Consent.started,Consent.stopped,key_resp.keys,key_resp.rt,key_resp.duration,participant,session,date,expName,psychopyVersion,OS,frameRate,SetupExperiment.started,SetupExperiment.stopped,DiscrimInstructions_Pre.started,DiscrimInstructions_Pre.stopped,KeyboardResponse.keys,KeyboardResponse.rt,KeyboardResponse.duration,feature_index,feature_center,feature_vector,correct_answer,coord1,coord2,DiscriminationTrial.started,DiscriminationTrial.stopped,PreTest.response,Resp_s_or_d.keys,Resp_s_or_d.corr,Resp_s_or_d.rt,Resp_s_or_d.duration,PreTest.CI_lower,PreTest.CI_upper,PreTest.CI_width,CrashPretest_2.started,CrashPretest_2.stopped,PreTest.thisRepN,PreTest.thisTrialN,PreTest.thisN,PreTest.thisIndex,PreTest.ran,PreTest.intensity,intensity,PreTest.label,PreTest.nReps,PreTest.method,PreTest.autoLog,PreTest.seed,PreTest.varName,PreTest.startVal,PreTest.minVal,PreTest.maxVal,PreTest.startValSd,PreTest.pThreshold,PreTest.nTrials,PreTest.maxTrials,PreTest.stopInterval,PreTest.beta,PreTest.delta,PreTest.gamma,PreTest.grain,WelcomeToCategorizationTask.started,WelcomeToCategorizationTask.stopped,PressAnyKey3.keys,PressAnyKey3.rt,PressAnyKey3.duration,shape_coordinates,category_center,category_sigma,subspace_center,subspace_vector1,subspace_vector2,CategorizationTrial.started,CategorizationTrial.stopped,Respond_1or2.keys,Respond_1or2.rt,Respond_1or2.duration,Feedback.started,Feedback.stopped,xcoord,ycoord,shape_coord,numeric_response_minus1,correctness,truecategory,mixture_index,respAifA,respBifA,respAifB,respBifB,trial_number,D,muAx,muAy,muBx,muBy,sigmaA,sigmaB,priorA,priorB,TrialLoop.thisRepN,TrialLoop.thisTrialN,TrialLoop.thisN,TrialLoop.thisIndex,TrialLoop.ran,DiscriminationInstructions_Post.started,DiscriminationInstructions_Post.stopped,key_resp_2.keys,key_resp_2.rt,key_resp_2.duration,PostTest.response,PostTest.CI_lower,PostTest.CI_upper,PostTest.CI_width,CrashPosttest.started,CrashPosttest.stopped,PostTest.thisRepN,PostTest.thisTrialN,PostTest.thisN,PostTest.thisIndex,PostTest.ran,PostTest.intensity,PostTest.label,PostTest.nReps,PostTest.method,PostTest.autoLog,PostTest.seed,PostTest.varName,PostTest.startVal,PostTest.minVal,PostTest.maxVal,PostTest.startValSd,PostTest.pThreshold,PostTest.nTrials,PostTest.maxTrials,PostTest.stopInterval,PostTest.beta,PostTest.delta,PostTest.gamma,PostTest.grain,Thanks.started,Thanks.stopped
0.0001,20.1957,y,20.1704,,053539,001,2025-03-17_00h40.52.420,Utility_discrimination_2024_2cat,2024.2.4,MacIntel,60.60606061,,,,,,,,,,,,,,,,,,,,,,,,,,,,,,,,,,,,,,,,,,,,,,,,,,,,,,,,,,,,,,,,,,,,,,,,,,,,,,,,,,,,,,,,,,,,,,,,,,,,,,,,,,,,,,,,,,,,,,,,,,,,,,,,,,,
,,,,,053539,001,2025-03-17_00h40.52.420,Utility_discrimination_2024_2cat,2024.2.4,MacIntel,60.60606061,20.196,20.1962,,,,,,,,,,,,,,,,,,,,,,,,,,,,,,,,,,,,,,,,,,,,,,,,,,,,,,,,,,,,,,,,,,,,,,,,,,,,,,,,,,,,,,,,,,,,,,,,,,,,,,,,,,,,,,,,,,,,,,,,,,,,,,,,,
,,,,,053539,001,2025-03-17_00h40.52.420,Utility_discrimination_2024_2cat,2024.2.4,MacIntel,60.60606061,,,20.1963,45.9955,space,25.7716,,,,,,,,,,,,,,,,,,,,,,,,,,,,,,,,,,,,,,,,,,,,,,,,,,,,,,,,,,,,,,,,,,,,,,,,,,,,,,,,,,,,,,,,,,,,,,,,,,,,,,,,,,,,,,,,,,,,,,,,,,,,,
,,,,,053539,001,2025-03-17_00h40.52.420,Utility_discrimination_2024_2cat,2024.2.4,MacIntel,60.60606061,,,,,,,,1,"[0.5,0.5]","[0.924,0.383]",,"[0.6185239449756466,0.5]","[0.3814760550243534,0.5]",46.0273,48.5616,1,s,1,1.0203,,-0.447967632,0.547967632,0.995935263,48.5649,48.5651,0,0,0,0,1,0.118523945,0.118523945,shape_difference0,1,,TRUE,,intensity,0.1,0.05,0.7,0.3,0.82,20,400,1E-11,3.5,0.01,0.5,0.1,,,,,,,,,,,,,,,,,,,,,,,,,,,,,,,,,,,,,,,,,,,,,,,,,,,,,,,,,,,,,,,,,,,,,,,,,,,,,,,,,
,,,,,053539,001,2025-03-17_00h40.52.420,Utility_discrimination_2024_2cat,2024.2.4,MacIntel,60.60606061,,,,,,,,2,"[0.5,0.5]","[0.707,0.707]",s,"[0.6095161251574974,0.5453946709256726]","[0.3904838748425025,0.4546053290743273]",48.5663,50.7448,0,s,0,0.6486,,-0.447967632,0.547967632,0.995935263,50.7468,50.7468,0,1,1,1,1,0.118523945,0.118523945,shape_difference1,1,,TRUE,,intensity,0.1,0.05,0.7,0.3,0.82,20,400,1E-11,3.5,0.01,0.5,0.1,,,,,,,,,,,,,,,,,,,,,,,,,,,,,,,,,,,,,,,,,,,,,,,,,,,,,,,,,,,,,,,,,,,,,,,,,,,,,,,,,
,,,,,053539,001,2025-03-17_00h40.52.420,Utility_discrimination_2024_2cat,2024.2.4,MacIntel,60.60606061,,,,,,,,4,"[0.5,0.5]","[0,1]",d,"[0.5837964290977822,0.5837964290977822]","[0.4162035709022178,0.4162035709022178]",50.7478,53.0782,0,d,0,0.804,,-0.447967632,0.547967632,0.995935263,53.0802,53.0803,0,2,2,2,1,0.118523945,0.118523945,shape_difference2,1,,TRUE,,intensity,0.1,0.05,0.7,0.3,0.82,20,400,1E-11,3.5,0.01,0.5,0.1,,,,,,,,,,,,,,,,,,,,,,,,,,,,,,,,,,,,,,,,,,,,,,,,,,,,,,,,,,,,,,,,,,,,,,,,,,,,,,,,,
,,,,,053539,001,2025-03-17_00h40.52.420,Utility_discrimination_2024_2cat,2024.2.4,MacIntel,60.60606061,,,,,,,,3,"[0.5,0.5]","[0.383,0.924]",s,"[0.5,0.6185239449756466]","[0.5,0.3814760550243534]",53.0819,55.1782,1,d,1,0.5694,,-0.447967632,0.547967632,0.995935263,55.1805,55.1806,0,3,3,3,1,0.118523945,0.118523945,shape_difference4,1,,TRUE,,intensity,0.1,0.05,0.7,0.3,0.82,20,400,1E-11,3.5,0.01,0.5,0.1,,,,,,,,,,,,,,,,,,,,,,,,,,,,,,,,,,,,,,,,,,,,,,,,,,,,,,,,,,,,,,,,,,,,,,,,,,,,,,,,,
,,,,,053539,001,2025-03-17_00h40.52.420,Utility_discrimination_2024_2cat,2024.2.4,MacIntel,60.60606061,,,,,,,,1,"[0.5,0.5]","[0.924,0.383]",d,"[0.5453946709256726,0.6095161251574974]","[0.4546053290743273,0.3904838748425025]",55.1817,57.4782,1,d,1,0.7689,,0.008797352,0.664308158,0.655510806,57.4802,57.4802,0,4,4,4,1,0.118523945,0.118523945,shape_difference3,1,,TRUE,,intensity,0.1,0.05,0.7,0.3,0.82,20,400,1E-11,3.5,0.01,0.5,0.1,,,,,,,,,,,,,,,,,,,,,,,,,,,,,,,,,,,,,,,,,,,,,,,,,,,,,,,,,,,,,,,,,,,,,,,,,,,,,,,,,
,,,,,053539,001,2025-03-17_00h40.52.420,Utility_discrimination_2024_2cat,2024.2.4,MacIntel,60.60606061,,,,,,,,2,"[0.5,0.5]","[0.707,0.707]",d,"[0.8000399480706037,0.6243672079123823]","[0.19996005192939625,0.37563279208761774]",57.4811,59.8615,1,s,1,0.8515,,0.008797352,0.664308158,0.655510806,59.8637,59.8638,0,5,5,5,1,0.324718559,0.324718559,shape_difference1,1,,TRUE,,intensity,0.1,0.05,0.7,0.3,0.82,20,400,1E-11,3.5,0.01,0.5,0.1,,,,,,,,,,,,,,,,,,,,,,,,,,,,,,,,,,,,,,,,,,,,,,,,,,,,,,,,,,,,,,,,,,,,,,,,,,,,,,,,,
,,,,,053539,001,2025-03-17_00h40.52.420,Utility_discrimination_2024_2cat,2024.2.4,MacIntel,60.60606061,,,,,,,,3,"[0.5,0.5]","[0.383,0.924]",s,"[0.7295760208722043,0.7295760208722043]","[0.2704239791277957,0.2704239791277957]",59.8647,62.1782,1,d,1,0.7826,,-0.479157219,0.478510979,0.957668197,62.1812,62.1812,0,6,6,6,1,0.324718559,0.324718559,shape_difference2,1,,TRUE,,intensity,0.1,0.05,0.7,0.3,0.82,20,400,1E-11,3.5,0.01,0.5,0.1,,,,,,,,,,,,,,,,,,,,,,,,,,,,,,,,,,,,,,,,,,,,,,,,,,,,,,,,,,,,,,,,,,,,,,,,,,,,,,,,,
,,,,,053539,001,2025-03-17_00h40.52.420,Utility_discrimination_2024_2cat,2024.2.4,MacIntel,60.60606061,,,,,,,,0,"[0.5,0.5]","[1,0]",d,"[0.5141716077151222,0.5341894661325662]","[0.48582839228487784,0.46581053386743376]",62.1821,64.5448,1,s,1,0.8371,,-0.479157219,0.478510979,0.957668197,64.5477,64.5477,0,7,7,7,1,0.037001587,0.037001587,shape_difference3,1,,TRUE,,intensity,0.1,0.05,0.7,0.3,0.82,20,400,1E-11,3.5,0.01,0.5,0.1,,,,,,,,,,,,,,,,,,,,,,,,,,,,,,,,,,,,,,,,,,,,,,,,,,,,,,,,,,,,,,,,,,,,,,,,,,,,,,,,,
,,,,,053539,001,2025-03-17_00h40.52.420,Utility_discrimination_2024_2cat,2024.2.4,MacIntel,60.60606061,,,,,,,,4,"[0.5,0.5]","[0,1]",s,"[0.5370015867235566,0.5]","[0.4629984132764434,0.5]",64.5486,66.9449,0,s,0,0.8659,,-0.479157219,0.478510979,0.957668197,66.9472,66.9472,0,8,8,8,1,0.037001587,0.037001587,shape_difference0,1,,TRUE,,intensity,0.1,0.05,0.7,0.3,0.82,20,400,1E-11,3.5,0.01,0.5,0.1,,,,,,,,,,,,,,,,,,,,,,,,,,,,,,,,,,,,,,,,,,,,,,,,,,,,,,,,,,,,,,,,,,,,,,,,,,,,,,,,,
,,,,,053539,001,2025-03-17_00h40.52.420,Utility_discrimination_2024_2cat,2024.2.4,MacIntel,60.60606061,,,,,,,,0,"[0.5,0.5]","[1,0]",d,"[0.5,0.5370015867235566]","[0.5,0.4629984132764434]",66.9482,69.1448,0,s,0,0.6662,,-0.090065158,0.591798206,0.681863364,69.1477,69.1477,0,9,9,9,1,0.037001587,0.037001587,shape_difference4,1,,TRUE,,intensity,0.1,0.05,0.7,0.3,0.82,20,400,1E-11,3.5,0.01,0.5,0.1,,,,,,,,,,,,,,,,,,,,,,,,,,,,,,,,,,,,,,,,,,,,,,,,,,,,,,,,,,,,,,,,,,,,,,,,,,,,,,,,,
,,,,,053539,001,2025-03-17_00h40.52.420,Utility_discrimination_2024_2cat,2024.2.4,MacIntel,60.60606061,,,,,,,,3,"[0.5,0.5]","[0.383,0.924]",d,"[0.7256621725789216,0.5]","[0.2743378274210784,0.5]",69.1487,71.5948,1,d,1,0.9164,,-0.510435314,0.404710629,0.915145943,71.597,71.597,0,10,10,10,1,0.225662173,0.225662173,shape_difference0,1,,TRUE,,intensity,0.1,0.05,0.7,0.3,0.82,20,400,1E-11,3.5,0.01,0.5,0.1,,,,,,,,,,,,,,,,,,,,,,,,,,,,,,,,,,,,,,,,,,,,,,,,,,,,,,,,,,,,,,,,,,,,,,,,,,,,,,,,,
,,,,,053539,001,2025-03-17_00h40.52.420,Utility_discrimination_2024_2cat,2024.2.4,MacIntel,60.60606061,,,,,,,,2,"[0.5,0.5]","[0.707,0.707]",d,"[0.48572626012287257,0.46556413669330093]","[0.5142737398771274,0.5344358633066991]",71.5978,73.9784,0,d,0,0.8615,,-0.003741292,0.604569979,0.608311271,73.9812,73.9812,0,11,11,11,1,-0.03726825,-0.03726825,shape_difference3,1,,TRUE,,intensity,0.1,0.05,0.7,0.3,0.82,20,400,1E-11,3.5,0.01,0.5,0.1,,,,,,,,,,,,,,,,,,,,,,,,,,,,,,,,,,,,,,,,,,,,,,,,,,,,,,,,,,,,,,,,,,,,,,,,,,,,,,,,,
,,,,,053539,001,2025-03-17_00h40.52.420,Utility_discrimination_2024_2cat,2024.2.4,MacIntel,60.60606061,,,,,,,,1,"[0.5,0.5]","[0.924,0.383]",s,"[0.6942958639235853,0.6942958639235853]","[0.30570413607641467,0.30570413607641467]",73.9821,76.1948,1,s,1,0.6825,,-0.003741292,0.604569979,0.608311271,76.1969,76.1969,0,12,12,12,1,0.274817346,0.274817346,shape_difference2,1,,TRUE,,intensity,0.1,0.05,0.7,0.3,0.82,20,400,1E-11,3.5,0.01,0.5,0.1,,,,,,,,,,,,,,,,,,,,,,,,,,,,,,,,,,,,,,,,,,,,,,,,,,,,,,,,,,,,,,,,,,,,,,,,,,,,,,,,,
,,,,,053539,001,2025-03-17_00h40.52.420,Utility_discrimination_2024_2cat,2024.2.4,MacIntel,60.60606061,,,,,,,,4,"[0.5,0.5]","[0,1]",s,"[0.7539312280981512,0.6052550436813765]","[0.2460687719018489,0.3947449563186235]",76.1984,78.4283,1,d,1,0.6992,,-0.090065158,0.591798206,0.681863364,78.4303,78.4303,0,13,13,13,1,0.274817346,0.274817346,shape_difference1,1,,TRUE,,intensity,0.1,0.05,0.7,0.3,0.82,20,400,1E-11,3.5,0.01,0.5,0.1,,,,,,,,,,,,,,,,,,,,,,,,,,,,,,,,,,,,,,,,,,,,,,,,,,,,,,,,,,,,,,,,,,,,,,,,,,,,,,,,,
,,,,,053539,001,2025-03-17_00h40.52.420,Utility_discrimination_2024_2cat,2024.2.4,MacIntel,60.60606061,,,,,,,,2,"[0.5,0.5]","[0.707,0.707]",d,"[0.5,0.7256621725789216]","[0.5,0.2743378274210784]",78.4312,80.8114,1,d,1,0.8523,,-0.026700702,0.552121039,0.578821741,80.8141,80.8141,0,14,14,14,1,0.225662173,0.225662173,shape_difference4,1,,TRUE,,intensity,0.1,0.05,0.7,0.3,0.82,20,400,1E-11,3.5,0.01,0.5,0.1,,,,,,,,,,,,,,,,,,,,,,,,,,,,,,,,,,,,,,,,,,,,,,,,,,,,,,,,,,,,,,,,,,,,,,,,,,,,,,,,,
,,,,,053539,001,2025-03-17_00h40.52.420,Utility_discrimination_2024_2cat,2024.2.4,MacIntel,60.60606061,,,,,,,,4,"[0.5,0.5]","[0,1]",d,"[0.6669698042543574,0.6669698042543574]","[0.33303019574564263,0.33303019574564263]",80.8151,83.1451,0,d,0,0.8118,,-0.09936101,0.537490534,0.636851544,83.1479,83.148,0,15,15,15,1,0.236166626,0.236166626,shape_difference2,1,,TRUE,,intensity,0.1,0.05,0.7,0.3,0.82,20,400,1E-11,3.5,0.01,0.5,0.1,,,,,,,,,,,,,,,,,,,,,,,,,,,,,,,,,,,,,,,,,,,,,,,,,,,,,,,,,,,,,,,,,,,,,,,,,,,,,,,,,
,,,,,053539,001,2025-03-17_00h40.52.420,Utility_discrimination_2024_2cat,2024.2.4,MacIntel,60.60606061,,,,,,,,3,"[0.5,0.5]","[0.383,0.924]",s,"[0.5,0.6717231163357056]","[0.5,0.3282768836642944]",83.1491,85.2612,1,d,1,0.5823,,-0.118157943,0.566731222,0.684889165,85.2644,85.2644,0,16,16,16,1,0.171723116,0.171723116,shape_difference4,1,,TRUE,,intensity,0.1,0.05,0.7,0.3,0.82,20,400,1E-11,3.5,0.01,0.5,0.1,,,,,,,,,,,,,,,,,,,,,,,,,,,,,,,,,,,,,,,,,,,,,,,,,,,,,,,,,,,,,,,,,,,,,,,,,,,,,,,,,
,,,,,053539,001,2025-03-17_00h40.52.420,Utility_discrimination_2024_2cat,2024.2.4,MacIntel,60.60606061,,,,,,,,1,"[0.5,0.5]","[0.924,0.383]",d,"[0.570651951224009,0.6704501382010035]","[0.429348048775991,0.3295498617989964]",85.2655,87.5114,1,d,1,0.7158,,-0.026700702,0.552121039,0.578821741,87.5146,87.5147,0,17,17,17,1,0.184469847,0.184469847,shape_difference3,1,,TRUE,,intensity,0.1,0.05,0.7,0.3,0.82,20,400,1E-11,3.5,0.01,0.5,0.1,,,,,,,,,,,,,,,,,,,,,,,,,,,,,,,,,,,,,,,,,,,,,,,,,,,,,,,,,,,,,,,,,,,,,,,,,,,,,,,,,
,,,,,053539,001,2025-03-17_00h40.52.420,Utility_discrimination_2024_2cat,2024.2.4,MacIntel,60.60606061,,,,,,,,0,"[0.5,0.5]","[1,0]",d,"[0.7182179619957938,0.5904518175805076]","[0.2817820380042062,0.4095481824194924]",87.5156,89.7448,1,s,1,0.6993,,-0.09936101,0.537490534,0.636851544,89.747,89.7471,0,18,18,18,1,0.236166626,0.236166626,shape_difference1,1,,TRUE,,intensity,0.1,0.05,0.7,0.3,0.82,20,400,1E-11,3.5,0.01,0.5,0.1,,,,,,,,,,,,,,,,,,,,,,,,,,,,,,,,,,,,,,,,,,,,,,,,,,,,,,,,,,,,,,,,,,,,,,,,,,,,,,,,,
,,,,,053539,001,2025-03-17_00h40.52.420,Utility_discrimination_2024_2cat,2024.2.4,MacIntel,60.60606061,,,,,,,,4,"[0.5,0.5]","[0,1]",s,"[0.6717231163357056,0.5]","[0.3282768836642944,0.5]",89.7482,92.0113,1,d,1,0.7363,,-0.120490743,0.470685176,0.591175919,92.014,92.014,0,19,19,19,1,0.171723116,0.171723116,shape_difference0,1,,TRUE,,intensity,0.1,0.05,0.7,0.3,0.82,20,400,1E-11,3.5,0.01,0.5,0.1,,,,,,,,,,,,,,,,,,,,,,,,,,,,,,,,,,,,,,,,,,,,,,,,,,,,,,,,,,,,,,,,,,,,,,,,,,,,,,,,,
,,,,,053539,001,2025-03-17_00h40.52.420,Utility_discrimination_2024_2cat,2024.2.4,MacIntel,60.60606061,,,,,,,,2,"[0.5,0.5]","[0.707,0.707]",d,"[0.5,0.6306116159745301]","[0.5,0.3693883840254699]",92.015,94.2781,1,s,1,0.7325,,0.105213017,0.641946211,0.536733194,94.2809,94.2809,0,20,20,20,1,0.130611616,0.130611616,shape_difference4,1,,TRUE,,intensity,0.1,0.05,0.7,0.3,0.82,20,400,1E-11,3.5,0.01,0.5,0.1,,,,,,,,,,,,,,,,,,,,,,,,,,,,,,,,,,,,,,,,,,,,,,,,,,,,,,,,,,,,,,,,,,,,,,,,,,,,,,,,,
,,,,,053539,001,2025-03-17_00h40.52.420,Utility_discrimination_2024_2cat,2024.2.4,MacIntel,60.60606061,,,,,,,,3,"[0.5,0.5]","[0.383,0.924]",s,"[0.7354120339163437,0.7354120339163437]","[0.2645879660836563,0.2645879660836563]",94.282,96.3114,1,s,1,0.5024,,-0.138426098,0.496127593,0.634553691,96.3135,96.3135,0,21,21,21,1,0.332973174,0.332973174,shape_difference2,1,,TRUE,,intensity,0.1,0.05,0.7,0.3,0.82,20,400,1E-11,3.5,0.01,0.5,0.1,,,,,,,,,,,,,,,,,,,,,,,,,,,,,,,,,,,,,,,,,,,,,,,,,,,,,,,,,,,,,,,,,,,,,,,,,,,,,,,,,
,,,,,053539,001,2025-03-17_00h40.52.420,Utility_discrimination_2024_2cat,2024.2.4,MacIntel,60.60606061,,,,,,,,0,"[0.5,0.5]","[1,0]",s,"[0.551976190646757,0.6253942562861707]","[0.4480238093532431,0.37460574371382926]",96.3144,98.2615,0,s,0,0.418,,-0.120490743,0.470685176,0.591175919,98.2641,98.2641,0,22,22,22,1,0.13570807,0.13570807,shape_difference3,1,,TRUE,,intensity,0.1,0.05,0.7,0.3,0.82,20,400,1E-11,3.5,0.01,0.5,0.1,,,,,,,,,,,,,,,,,,,,,,,,,,,,,,,,,,,,,,,,,,,,,,,,,,,,,,,,,,,,,,,,,,,,,,,,,,,,,,,,,
,,,,,053539,001,2025-03-17_00h40.52.420,Utility_discrimination_2024_2cat,2024.2.4,MacIntel,60.60606061,,,,,,,,1,"[0.5,0.5]","[0.924,0.383]",d,"[0.6306116159745301,0.5]","[0.3693883840254699,0.5]",98.2651,100.2448,1,d,1,0.449,,-0.050981617,0.494068035,0.545049652,100.2468,100.247,0,23,23,23,1,0.130611616,0.130611616,shape_difference0,1,,TRUE,,intensity,0.1,0.05,0.7,0.3,0.82,20,400,1E-11,3.5,0.01,0.5,0.1,,,,,,,,,,,,,,,,,,,,,,,,,,,,,,,,,,,,,,,,,,,,,,,,,,,,,,,,,,,,,,,,,,,,,,,,,,,,,,,,,
,,,,,053539,001,2025-03-17_00h40.52.420,Utility_discrimination_2024_2cat,2024.2.4,MacIntel,60.60606061,,,,,,,,4,"[0.5,0.5]","[0,1]",d,"[0.6817646943115111,0.5753418592221956]","[0.3182353056884889,0.4246581407778044]",100.2486,102.178,0,d,0,0.3995,,-0.144584963,0.406347617,0.550932581,102.1807,102.1807,0,24,24,24,1,0.196715037,0.196715037,shape_difference1,1,,TRUE,,intensity,0.1,0.05,0.7,0.3,0.82,20,400,1E-11,3.5,0.01,0.5,0.1,,,,,,,,,,,,,,,,,,,,,,,,,,,,,,,,,,,,,,,,,,,,,,,,,,,,,,,,,,,,,,,,,,,,,,,,,,,,,,,,,
,,,,,053539,001,2025-03-17_00h40.52.420,Utility_discrimination_2024_2cat,2024.2.4,MacIntel,60.60606061,,,,,,,,1,"[0.5,0.5]","[0.924,0.383]",s,"[0.5,0.5917420996447461]","[0.5,0.4082579003552539]",102.1819,104.3282,1,s,1,0.6162,,0.086822279,0.600153011,0.513330733,104.3312,104.3312,0,25,25,25,1,0.0917421,0.0917421,shape_difference4,1,,TRUE,,intensity,0.1,0.05,0.7,0.3,0.82,20,400,1E-11,3.5,0.01,0.5,0.1,,,,,,,,,,,,,,,,,,,,,,,,,,,,,,,,,,,,,,,,,,,,,,,,,,,,,,,,,,,,,,,,,,,,,,,,,,,,,,,,,
,,,,,053539,001,2025-03-17_00h40.52.420,Utility_discrimination_2024_2cat,2024.2.4,MacIntel,60.60606061,,,,,,,,2,"[0.5,0.5]","[0.707,0.707]",s,"[0.7759011755379792,0.614361634449184]","[0.22409882446202078,0.385638365550816]",104.3324,106.478,1,d,1,0.6197,,0.095253378,0.589319911,0.494066533,106.4813,106.4813,0,26,26,26,1,0.298594346,0.298594346,shape_difference1,1,,TRUE,,intensity,0.1,0.05,0.7,0.3,0.82,20,400,1E-11,3.5,0.01,0.5,0.1,,,,,,,,,,,,,,,,,,,,,,,,,,,,,,,,,,,,,,,,,,,,,,,,,,,,,,,,,,,,,,,,,,,,,,,,,,,,,,,,,
,,,,,053539,001,2025-03-17_00h40.52.420,Utility_discrimination_2024_2cat,2024.2.4,MacIntel,60.60606061,,,,,,,,3,"[0.5,0.5]","[0.383,0.924]",d,"[0.7082283670811896,0.7082283670811896]","[0.29177163291881036,0.29177163291881036]",106.4824,108.6614,1,d,1,0.6491,,0.003001688,0.59577868,0.592776992,108.6645,108.6645,0,27,27,27,1,0.294523857,0.294523857,shape_difference2,1,,TRUE,,intensity,0.1,0.05,0.7,0.3,0.82,20,400,1E-11,3.5,0.01,0.5,0.1,,,,,,,,,,,,,,,,,,,,,,,,,,,,,,,,,,,,,,,,,,,,,,,,,,,,,,,,,,,,,,,,,,,,,,,,,,,,,,,,,
,,,,,053539,001,2025-03-17_00h40.52.420,Utility_discrimination_2024_2cat,2024.2.4,MacIntel,60.60606061,,,,,,,,0,"[0.5,0.5]","[1,0]",d,"[0.5978417834155872,0.7360464957597981]","[0.40215821658441275,0.263953504240202]",108.6655,110.678,1,s,1,0.4827,,-0.144584963,0.406347617,0.550932581,110.6811,110.6811,0,28,28,28,1,0.255461575,0.255461575,shape_difference3,1,,TRUE,,intensity,0.1,0.05,0.7,0.3,0.82,20,400,1E-11,3.5,0.01,0.5,0.1,,,,,,,,,,,,,,,,,,,,,,,,,,,,,,,,,,,,,,,,,,,,,,,,,,,,,,,,,,,,,,,,,,,,,,,,,,,,,,,,,
,,,,,053539,001,2025-03-17_00h40.52.420,Utility_discrimination_2024_2cat,2024.2.4,MacIntel,60.60606061,,,,,,,,1,"[0.5,0.5]","[0.924,0.383]",s,"[0.5917420996447461,0.5]","[0.4082579003552539,0.5]",110.6821,113.0448,0,s,0,0.8327,,0.067160185,0.556411783,0.489251598,113.047,113.047,0,29,29,29,1,0.0917421,0.0917421,shape_difference0,1,,TRUE,,intensity,0.1,0.05,0.7,0.3,0.82,20,400,1E-11,3.5,0.01,0.5,0.1,,,,,,,,,,,,,,,,,,,,,,,,,,,,,,,,,,,,,,,,,,,,,,,,,,,,,,,,,,,,,,,,,,,,,,,,,,,,,,,,,
,,,,,053539,001,2025-03-17_00h40.52.420,Utility_discrimination_2024_2cat,2024.2.4,MacIntel,60.60606061,,,,,,,,0,"[0.5,0.5]","[1,0]",d,"[0.751069960899104,0.6040690422341524]","[0.24893003910089595,0.3959309577658476]",113.0486,115.128,0,d,0,0.5506,,-0.018937289,0.534405895,0.553343183,115.131,115.131,0,30,30,30,1,0.271720737,0.271720737,shape_difference1,1,,TRUE,,intensity,0.1,0.05,0.7,0.3,0.82,20,400,1E-11,3.5,0.01,0.5,0.1,,,,,,,,,,,,,,,,,,,,,,,,,,,,,,,,,,,,,,,,,,,,,,,,,,,,,,,,,,,,,,,,,,,,,,,,,,,,,,,,,
,,,,,053539,001,2025-03-17_00h40.52.420,Utility_discrimination_2024_2cat,2024.2.4,MacIntel,60.60606061,,,,,,,,3,"[0.5,0.5]","[0.383,0.924]",s,"[0.6971371521097935,0.5]","[0.3028628478902064,0.5]",115.132,117.2447,1,s,1,0.5818,,-0.00706543,0.538627976,0.545693406,117.247,117.2471,0,31,31,31,1,0.197137152,0.197137152,shape_difference0,1,,TRUE,,intensity,0.1,0.05,0.7,0.3,0.82,20,400,1E-11,3.5,0.01,0.5,0.1,,,,,,,,,,,,,,,,,,,,,,,,,,,,,,,,,,,,,,,,,,,,,,,,,,,,,,,,,,,,,,,,,,,,,,,,,,,,,,,,,
,,,,,053539,001,2025-03-17_00h40.52.420,Utility_discrimination_2024_2cat,2024.2.4,MacIntel,60.60606061,,,,,,,,4,"[0.5,0.5]","[0,1]",s,"[0.5820252856381305,0.6978886786674479]","[0.41797471436186956,0.30211132133255214]",117.249,119.2448,1,d,1,0.4683,,-0.160589475,0.350306654,0.510896129,119.2476,119.2477,0,32,32,32,1,0.214165237,0.214165237,shape_difference3,1,,TRUE,,intensity,0.1,0.05,0.7,0.3,0.82,20,400,1E-11,3.5,0.01,0.5,0.1,,,,,,,,,,,,,,,,,,,,,,,,,,,,,,,,,,,,,,,,,,,,,,,,,,,,,,,,,,,,,,,,,,,,,,,,,,,,,,,,,
,,,,,053539,001,2025-03-17_00h40.52.420,Utility_discrimination_2024_2cat,2024.2.4,MacIntel,60.60606061,,,,,,,,2,"[0.5,0.5]","[0.707,0.707]",d,"[0.5,0.5661561925116445]","[0.5,0.43384380748835555]",119.2487,121.3104,1,s,1,0.5325,,0.074165964,0.541678986,0.467513022,121.3128,121.3128,0,33,33,33,1,0.066156193,0.066156193,shape_difference4,1,,TRUE,,intensity,0.1,0.05,0.7,0.3,0.82,20,400,1E-11,3.5,0.01,0.5,0.1,,,,,,,,,,,,,,,,,,,,,,,,,,,,,,,,,,,,,,,,,,,,,,,,,,,,,,,,,,,,,,,,,,,,,,,,,,,,,,,,,
,,,,,053539,001,2025-03-17_00h40.52.420,Utility_discrimination_2024_2cat,2024.2.4,MacIntel,60.60606061,,,,,,,,0,"[0.5,0.5]","[1,0]",s,"[0.6908219404171503,0.6908219404171503]","[0.3091780595828497,0.3091780595828497]",121.3138,123.4281,0,d,0,0.5851,,-0.037207083,0.475072436,0.512279519,123.4304,123.4304,0,34,34,34,1,0.269903735,0.269903735,shape_difference2,1,,TRUE,,intensity,0.1,0.05,0.7,0.3,0.82,20,400,1E-11,3.5,0.01,0.5,0.1,,,,,,,,,,,,,,,,,,,,,,,,,,,,,,,,,,,,,,,,,,,,,,,,,,,,,,,,,,,,,,,,,,,,,,,,,,,,,,,,,
,,,,,053539,001,2025-03-17_00h40.52.420,Utility_discrimination_2024_2cat,2024.2.4,MacIntel,60.60606061,,,,,,,,1,"[0.5,0.5]","[0.924,0.383]",s,"[0.6687579417639199,0.5]","[0.3312420582360801,0.5]",123.4314,125.5781,1,d,1,0.6188,,0.158041921,0.671627007,0.513585086,125.5807,125.5807,0,35,35,35,1,0.168757942,0.168757942,shape_difference0,1,,TRUE,,intensity,0.1,0.05,0.7,0.3,0.82,20,400,1E-11,3.5,0.01,0.5,0.1,,,,,,,,,,,,,,,,,,,,,,,,,,,,,,,,,,,,,,,,,,,,,,,,,,,,,,,,,,,,,,,,,,,,,,,,,,,,,,,,,
,,,,,053539,001,2025-03-17_00h40.52.420,Utility_discrimination_2024_2cat,2024.2.4,MacIntel,60.60606061,,,,,,,,4,"[0.5,0.5]","[0,1]",d,"[0.8491112908379972,0.6447073857044945]","[0.15088870916200287,0.3552926142955055]",125.5816,127.5607,1,s,1,0.45,,-0.171576622,0.286796614,0.458373237,127.563,127.563,0,36,36,36,1,0.377826072,0.377826072,shape_difference1,1,,TRUE,,intensity,0.1,0.05,0.7,0.3,0.82,20,400,1E-11,3.5,0.01,0.5,0.1,,,,,,,,,,,,,,,,,,,,,,,,,,,,,,,,,,,,,,,,,,,,,,,,,,,,,,,,,,,,,,,,,,,,,,,,,,,,,,,,,
,,,,,053539,001,2025-03-17_00h40.52.420,Utility_discrimination_2024_2cat,2024.2.4,MacIntel,60.60606061,,,,,,,,2,"[0.5,0.5]","[0.707,0.707]",s,"[0.5,0.5442987540991198]","[0.5,0.4557012459008803]",127.564,129.4781,1,s,1,0.3826,,0.157316247,0.658780812,0.501464565,129.481,129.481,0,37,37,37,1,0.044298754,0.044298754,shape_difference4,1,,TRUE,,intensity,0.1,0.05,0.7,0.3,0.82,20,400,1E-11,3.5,0.01,0.5,0.1,,,,,,,,,,,,,,,,,,,,,,,,,,,,,,,,,,,,,,,,,,,,,,,,,,,,,,,,,,,,,,,,,,,,,,,,,,,,,,,,,
,,,,,053539,001,2025-03-17_00h40.52.420,Utility_discrimination_2024_2cat,2024.2.4,MacIntel,60.60606061,,,,,,,,3,"[0.5,0.5]","[0.383,0.924]",s,"[0.7617710992352575,0.7617710992352575]","[0.2382289007647425,0.2382289007647425]",129.4819,131.3785,0,d,0,0.3783,,-0.029161457,0.481404566,0.510566023,131.3807,131.3808,0,38,38,38,1,0.370256152,0.370256152,shape_difference2,1,,TRUE,,intensity,0.1,0.05,0.7,0.3,0.82,20,400,1E-11,3.5,0.01,0.5,0.1,,,,,,,,,,,,,,,,,,,,,,,,,,,,,,,,,,,,,,,,,,,,,,,,,,,,,,,,,,,,,,,,,,,,,,,,,,,,,,,,,
,,,,,053539,001,2025-03-17_00h40.52.420,Utility_discrimination_2024_2cat,2024.2.4,MacIntel,60.60606061,,,,,,,,1,"[0.5,0.5]","[0.924,0.383]",s,"[0.5692832862570668,0.6671481892990333]","[0.4307167137429332,0.3328518107009667]",131.3817,133.278,1,s,1,0.3662,,0.146289465,0.616633457,0.470343991,133.2804,133.2804,0,39,39,39,1,0.180896309,0.180896309,shape_difference3,1,,TRUE,,intensity,0.1,0.05,0.7,0.3,0.82,20,400,1E-11,3.5,0.01,0.5,0.1,,,,,,,,,,,,,,,,,,,,,,,,,,,,,,,,,,,,,,,,,,,,,,,,,,,,,,,,,,,,,,,,,,,,,,,,,,,,,,,,,
,,,,,053539,001,2025-03-17_00h40.52.420,Utility_discrimination_2024_2cat,2024.2.4,MacIntel,60.60606061,,,,,,,,4,"[0.5,0.5]","[0,1]",s,"[0.8243715032342369,0.634452690193412]","[0.1756284967657631,0.36554730980658795]",133.2815,135.1615,1,d,1,0.352,,-0.18394784,0.248316998,0.432264838,135.1641,135.1642,0,40,40,40,1,0.35105141,0.35105141,shape_difference1,1,,TRUE,,intensity,0.1,0.05,0.7,0.3,0.82,20,400,1E-11,3.5,0.01,0.5,0.1,,,,,,,,,,,,,,,,,,,,,,,,,,,,,,,,,,,,,,,,,,,,,,,,,,,,,,,,,,,,,,,,,,,,,,,,,,,,,,,,,
,,,,,053539,001,2025-03-17_00h40.52.420,Utility_discrimination_2024_2cat,2024.2.4,MacIntel,60.60606061,,,,,,,,3,"[0.5,0.5]","[0.383,0.924]",d,"[0.5,0.5220122995648098]","[0.5,0.4779877004351903]",135.1651,137.0448,1,s,1,0.3535,,-0.044024895,0.42252696,0.466551855,137.0469,137.047,0,41,41,41,1,0.0220123,0.0220123,shape_difference4,1,,TRUE,,intensity,0.1,0.05,0.7,0.3,0.82,20,400,1E-11,3.5,0.01,0.5,0.1,,,,,,,,,,,,,,,,,,,,,,,,,,,,,,,,,,,,,,,,,,,,,,,,,,,,,,,,,,,,,,,,,,,,,,,,,,,,,,,,,
,,,,,053539,001,2025-03-17_00h40.52.420,Utility_discrimination_2024_2cat,2024.2.4,MacIntel,60.60606061,,,,,,,,2,"[0.5,0.5]","[0.707,0.707]",s,"[0.5601144135424458,0.6450279846298171]","[0.43988558645755416,0.35497201537018286]",137.048,138.9947,0,d,0,0.4158,,0.255040282,0.76758716,0.512546878,138.9976,138.9976,0,42,42,42,1,0.156956693,0.156956693,shape_difference3,1,,TRUE,,intensity,0.1,0.05,0.7,0.3,0.82,20,400,1E-11,3.5,0.01,0.5,0.1,,,,,,,,,,,,,,,,,,,,,,,,,,,,,,,,,,,,,,,,,,,,,,,,,,,,,,,,,,,,,,,,,,,,,,,,,,,,,,,,,
,,,,,053539,001,2025-03-17_00h40.52.420,Utility_discrimination_2024_2cat,2024.2.4,MacIntel,60.60606061,,,,,,,,0,"[0.5,0.5]","[1,0]",s,"[0.8427826520555597,0.8427826520555597]","[0.15721734794444037,0.15721734794444037]",138.9986,141.2447,1,s,1,0.7165,,-0.049578866,0.408345939,0.457924805,141.2468,141.2468,0,43,43,43,1,0.484841092,0.484841092,shape_difference2,1,,TRUE,,intensity,0.1,0.05,0.7,0.3,0.82,20,400,1E-11,3.5,0.01,0.5,0.1,,,,,,,,,,,,,,,,,,,,,,,,,,,,,,,,,,,,,,,,,,,,,,,,,,,,,,,,,,,,,,,,,,,,,,,,,,,,,,,,,
,,,,,053539,001,2025-03-17_00h40.52.420,Utility_discrimination_2024_2cat,2024.2.4,MacIntel,60.60606061,,,,,,,,1,"[0.5,0.5]","[0.924,0.383]",s,"[0.6449338562578305,0.5]","[0.3550661437421695,0.5]",141.2483,143.2448,0,s,0,0.4701,,0.138139788,0.570195551,0.432055763,143.2469,143.2469,0,44,44,44,1,0.144933856,0.144933856,shape_difference0,1,,TRUE,,intensity,0.1,0.05,0.7,0.3,0.82,20,400,1E-11,3.5,0.01,0.5,0.1,,,,,,,,,,,,,,,,,,,,,,,,,,,,,,,,,,,,,,,,,,,,,,,,,,,,,,,,,,,,,,,,,,,,,,,,,,,,,,,,,
,,,,,053539,001,2025-03-17_00h40.52.420,Utility_discrimination_2024_2cat,2024.2.4,MacIntel,60.60606061,,,,,,,,4,"[0.5,0.5]","[0,1]",d,"[0.8025602458749603,0.6254118768074781]","[0.19743975412503967,0.3745881231925219]",143.2479,145.1447,1,d,1,0.3712,,-0.192940399,0.197833049,0.390773448,145.1474,145.1474,0,45,45,45,1,0.327446154,0.327446154,shape_difference1,1,,TRUE,,intensity,0.1,0.05,0.7,0.3,0.82,20,400,1E-11,3.5,0.01,0.5,0.1,,,,,,,,,,,,,,,,,,,,,,,,,,,,,,,,,,,,,,,,,,,,,,,,,,,,,,,,,,,,,,,,,,,,,,,,,,,,,,,,,
,,,,,053539,001,2025-03-17_00h40.52.420,Utility_discrimination_2024_2cat,2024.2.4,MacIntel,60.60606061,,,,,,,,3,"[0.5,0.5]","[0.383,0.924]",d,"[0.5,0.4979576318779266]","[0.5,0.5020423681220734]",145.1484,147.028,1,d,1,0.3494,,0.047456989,0.562367663,0.514910674,147.0302,147.0302,0,46,46,46,1,-0.002042368,-0.002042368,shape_difference4,1,,TRUE,,intensity,0.1,0.05,0.7,0.3,0.82,20,400,1E-11,3.5,0.01,0.5,0.1,,,,,,,,,,,,,,,,,,,,,,,,,,,,,,,,,,,,,,,,,,,,,,,,,,,,,,,,,,,,,,,,,,,,,,,,,,,,,,,,,
,,,,,053539,001,2025-03-17_00h40.52.420,Utility_discrimination_2024_2cat,2024.2.4,MacIntel,60.60606061,,,,,,,,2,"[0.5,0.5]","[0.707,0.707]",d,"[0.6000091020765524,0.7412752227643198]","[0.39999089792344755,0.2587247772356802]",147.032,148.9615,1,s,1,0.4003,,0.243450406,0.716796236,0.47334583,148.9643,148.9643,0,47,47,47,1,0.261120371,0.261120371,shape_difference3,1,,TRUE,,intensity,0.1,0.05,0.7,0.3,0.82,20,400,1E-11,3.5,0.01,0.5,0.1,,,,,,,,,,,,,,,,,,,,,,,,,,,,,,,,,,,,,,,,,,,,,,,,,,,,,,,,,,,,,,,,,,,,,,,,,,,,,,,,,
,,,,,053539,001,2025-03-17_00h40.52.420,Utility_discrimination_2024_2cat,2024.2.4,MacIntel,60.60606061,,,,,,,,0,"[0.5,0.5]","[1,0]",s,"[0.8231324380227132,0.8231324380227132]","[0.17686756197728676,0.17686756197728676]",148.9654,150.8114,1,s,1,0.3165,,0.013553054,0.492259556,0.478706502,150.8137,150.8137,0,48,48,48,1,0.457047296,0.457047296,shape_difference2,1,,TRUE,,intensity,0.1,0.05,0.7,0.3,0.82,20,400,1E-11,3.5,0.01,0.5,0.1,,,,,,,,,,,,,,,,,,,,,,,,,,,,,,,,,,,,,,,,,,,,,,,,,,,,,,,,,,,,,,,,,,,,,,,,,,,,,,,,,
,,,,,053539,001,2025-03-17_00h40.52.420,Utility_discrimination_2024_2cat,2024.2.4,MacIntel,60.60606061,,,,,,,,4,"[0.5,0.5]","[0,1]",s,"[0.6948671710754937,0.5]","[0.3051328289245063,0.5]",150.8152,152.6947,1,s,1,0.3507,,-0.199712991,0.174544142,0.374257133,152.6975,152.6976,0,49,49,49,1,0.194867171,0.194867171,shape_difference0,1,,TRUE,,intensity,0.1,0.05,0.7,0.3,0.82,20,400,1E-11,3.5,0.01,0.5,0.1,,,,,,,,,,,,,,,,,,,,,,,,,,,,,,,,,,,,,,,,,,,,,,,,,,,,,,,,,,,,,,,,,,,,,,,,,,,,,,,,,
,,,,,053539,001,2025-03-17_00h40.52.420,Utility_discrimination_2024_2cat,2024.2.4,MacIntel,60.60606061,,,,,,,,3,"[0.5,0.5]","[0.383,0.924]",s,"[0.5,0.4819342523554667]","[0.5,0.5180657476445333]",152.6985,154.5947,0,d,0,0.3672,,0.038489448,0.497063551,0.458574103,154.5969,154.5969,0,50,50,50,1,-0.018065748,-0.018065748,shape_difference4,1,,TRUE,,intensity,0.1,0.05,0.7,0.3,0.82,20,400,1E-11,3.5,0.01,0.5,0.1,,,,,,,,,,,,,,,,,,,,,,,,,,,,,,,,,,,,,,,,,,,,,,,,,,,,,,,,,,,,,,,,,,,,,,,,,,,,,,,,,
,,,,,053539,001,2025-03-17_00h40.52.420,Utility_discrimination_2024_2cat,2024.2.4,MacIntel,60.60606061,,,,,,,,1,"[0.5,0.5]","[0.924,0.383]",s,"[0.5900112972286676,0.7171551922696837]","[0.4099887027713324,0.2828448077303163]",154.5979,156.7281,1,d,1,0.6,,0.129136047,0.528316387,0.39918034,156.7322,156.7322,0,51,51,51,1,0.235016442,0.235016442,shape_difference3,1,,TRUE,,intensity,0.1,0.05,0.7,0.3,0.82,20,400,1E-11,3.5,0.01,0.5,0.1,,,,,,,,,,,,,,,,,,,,,,,,,,,,,,,,,,,,,,,,,,,,,,,,,,,,,,,,,,,,,,,,,,,,,,,,,,,,,,,,,
,,,,,053539,001,2025-03-17_00h40.52.420,Utility_discrimination_2024_2cat,2024.2.4,MacIntel,60.60606061,,,,,,,,2,"[0.5,0.5]","[0.707,0.707]",d,"[0.7790121292034167,0.6156511314771738]","[0.22098787079658333,0.38434886852282624]",156.7334,158.6946,0,d,0,0.4326,,0.23544933,0.67407039,0.438621059,158.6971,158.6972,0,52,52,52,1,0.301961179,0.301961179,shape_difference1,1,,TRUE,,intensity,0.1,0.05,0.7,0.3,0.82,20,400,1E-11,3.5,0.01,0.5,0.1,,,,,,,,,,,,,,,,,,,,,,,,,,,,,,,,,,,,,,,,,,,,,,,,,,,,,,,,,,,,,,,,,,,,,,,,,,,,,,,,,
,,,,,053539,001,2025-03-17_00h40.52.420,Utility_discrimination_2024_2cat,2024.2.4,MacIntel,60.60606061,,,,,,,,0,"[0.5,0.5]","[1,0]",s,"[0.8059265179723034,0.8059265179723034]","[0.1940734820276966,0.1940734820276966]",158.6982,160.5114,1,d,1,0.285,,0.009414146,0.441881158,0.432467012,160.5144,160.5146,0,53,53,53,1,0.432710775,0.432710775,shape_difference2,1,,TRUE,,intensity,0.1,0.05,0.7,0.3,0.82,20,400,1E-11,3.5,0.01,0.5,0.1,,,,,,,,,,,,,,,,,,,,,,,,,,,,,,,,,,,,,,,,,,,,,,,,,,,,,,,,,,,,,,,,,,,,,,,,,,,,,,,,,
,,,,,053539,001,2025-03-17_00h40.52.420,Utility_discrimination_2024_2cat,2024.2.4,MacIntel,60.60606061,,,,,,,,2,"[0.5,0.5]","[0.707,0.707]",d,"[0.6745273439748246,0.5]","[0.3254726560251754,0.5]",160.5157,162.328,1,s,1,0.2825,,0.226771819,0.636732459,0.40996064,162.3309,162.3309,0,54,54,54,1,0.174527344,0.174527344,shape_difference0,1,,TRUE,,intensity,0.1,0.05,0.7,0.3,0.82,20,400,1E-11,3.5,0.01,0.5,0.1,,,,,,,,,,,,,,,,,,,,,,,,,,,,,,,,,,,,,,,,,,,,,,,,,,,,,,,,,,,,,,,,,,,,,,,,,,,,,,,,,
,,,,,053539,001,2025-03-17_00h40.52.420,Utility_discrimination_2024_2cat,2024.2.4,MacIntel,60.60606061,,,,,,,,3,"[0.5,0.5]","[0.383,0.924]",s,"[0.787611112207597,0.787611112207597]","[0.2123888877924029,0.2123888877924029]",162.3318,164.028,1,d,1,0.1669,,0.029053859,0.46013246,0.431078601,164.0304,164.0304,0,55,55,55,1,0.406804968,0.406804968,shape_difference2,1,,TRUE,,intensity,0.1,0.05,0.7,0.3,0.82,20,400,1E-11,3.5,0.01,0.5,0.1,,,,,,,,,,,,,,,,,,,,,,,,,,,,,,,,,,,,,,,,,,,,,,,,,,,,,,,,,,,,,,,,,,,,,,,,,,,,,,,,,
,,,,,053539,001,2025-03-17_00h40.52.420,Utility_discrimination_2024_2cat,2024.2.4,MacIntel,60.60606061,,,,,,,,1,"[0.5,0.5]","[0.924,0.383]",d,"[0.5798195648773778,0.6925673053438568]","[0.42018043512262215,0.3074326946561432]",164.0316,165.8614,1,s,1,0.3046,,0.204714775,0.602525937,0.397811163,165.8641,165.8641,0,56,56,56,1,0.208406175,0.208406175,shape_difference3,1,,TRUE,,intensity,0.1,0.05,0.7,0.3,0.82,20,400,1E-11,3.5,0.01,0.5,0.1,,,,,,,,,,,,,,,,,,,,,,,,,,,,,,,,,,,,,,,,,,,,,,,,,,,,,,,,,,,,,,,,,,,,,,,,,,,,,,,,,
,,,,,053539,001,2025-03-17_00h40.52.420,Utility_discrimination_2024_2cat,2024.2.4,MacIntel,60.60606061,,,,,,,,4,"[0.5,0.5]","[0,1]",s,"[0.8373279398603877,0.6398231612191867]","[0.16267206013961233,0.3601768387808133]",165.8651,167.7447,1,s,1,0.3491,,-0.104534558,0.259595869,0.364130427,167.7476,167.7476,0,57,57,57,1,0.365073528,0.365073528,shape_difference1,1,,TRUE,,intensity,0.1,0.05,0.7,0.3,0.82,20,400,1E-11,3.5,0.01,0.5,0.1,,,,,,,,,,,,,,,,,,,,,,,,,,,,,,,,,,,,,,,,,,,,,,,,,,,,,,,,,,,,,,,,,,,,,,,,,,,,,,,,,
,,,,,053539,001,2025-03-17_00h40.52.420,Utility_discrimination_2024_2cat,2024.2.4,MacIntel,60.60606061,,,,,,,,0,"[0.5,0.5]","[1,0]",s,"[0.5,0.5453683413065136]","[0.5,0.45463165869348643]",167.7487,169.7779,0,d,0,0.5018,,0.00638711,0.385695233,0.379308122,169.7803,169.7804,0,58,58,58,1,0.045368341,0.045368341,shape_difference4,1,,TRUE,,intensity,0.1,0.05,0.7,0.3,0.82,20,400,1E-11,3.5,0.01,0.5,0.1,,,,,,,,,,,,,,,,,,,,,,,,,,,,,,,,,,,,,,,,,,,,,,,,,,,,,,,,,,,,,,,,,,,,,,,,,,,,,,,,,
,,,,,053539,001,2025-03-17_00h40.52.420,Utility_discrimination_2024_2cat,2024.2.4,MacIntel,60.60606061,,,,,,,,2,"[0.5,0.5]","[0.707,0.707]",s,"[0.6576028364801502,0.5]","[0.34239716351984983,0.5]",169.7821,171.7447,0,s,0,0.4327,,0.220601257,0.59381244,0.373211184,171.7475,171.7475,0,59,59,59,1,0.157602836,0.157602836,shape_difference0,1,,TRUE,,intensity,0.1,0.05,0.7,0.3,0.82,20,400,1E-11,3.5,0.01,0.5,0.1,,,,,,,,,,,,,,,,,,,,,,,,,,,,,,,,,,,,,,,,,,,,,,,,,,,,,,,,,,,,,,,,,,,,,,,,,,,,,,,,,
,,,,,053539,001,2025-03-17_00h40.52.420,Utility_discrimination_2024_2cat,2024.2.4,MacIntel,60.60606061,,,,,,,,3,"[0.5,0.5]","[0.383,0.924]",d,"[0.7742382772977476,0.7742382772977476]","[0.2257617227022523,0.2257617227022523]",171.7487,173.3947,1,d,1,0.1161,,0.022389393,0.407080411,0.384691018,173.3976,173.3976,0,60,60,60,1,0.387890067,0.387890067,shape_difference2,1,,TRUE,,intensity,0.1,0.05,0.7,0.3,0.82,20,400,1E-11,3.5,0.01,0.5,0.1,,,,,,,,,,,,,,,,,,,,,,,,,,,,,,,,,,,,,,,,,,,,,,,,,,,,,,,,,,,,,,,,,,,,,,,,,,,,,,,,,
,,,,,053539,001,2025-03-17_00h40.52.420,Utility_discrimination_2024_2cat,2024.2.4,MacIntel,60.60606061,,,,,,,,1,"[0.5,0.5]","[0.924,0.383]",d,"[0.5723317255876055,0.6745026486761032]","[0.42766827441239447,0.3254973513238968]",173.3985,175.3114,1,s,1,0.3829,,0.202077515,0.566786358,0.364708844,175.3136,175.3136,0,61,61,61,1,0.18885568,0.18885568,shape_difference3,1,,TRUE,,intensity,0.1,0.05,0.7,0.3,0.82,20,400,1E-11,3.5,0.01,0.5,0.1,,,,,,,,,,,,,,,,,,,,,,,,,,,,,,,,,,,,,,,,,,,,,,,,,,,,,,,,,,,,,,,,,,,,,,,,,,,,,,,,,
,,,,,053539,001,2025-03-17_00h40.52.420,Utility_discrimination_2024_2cat,2024.2.4,MacIntel,60.60606061,,,,,,,,0,"[0.5,0.5]","[1,0]",s,"[0.8209722697046096,0.6330437005377332]","[0.17902773029539049,0.3669562994622668]",175.3145,177.1614,1,s,1,0.3162,,0.047760681,0.514049386,0.466288705,177.1642,177.1642,0,62,62,62,1,0.347372586,0.347372586,shape_difference1,1,,TRUE,,intensity,0.1,0.05,0.7,0.3,0.82,20,400,1E-11,3.5,0.01,0.5,0.1,,,,,,,,,,,,,,,,,,,,,,,,,,,,,,,,,,,,,,,,,,,,,,,,,,,,,,,,,,,,,,,,,,,,,,,,,,,,,,,,,
,,,,,053539,001,2025-03-17_00h40.52.420,Utility_discrimination_2024_2cat,2024.2.4,MacIntel,60.60606061,,,,,,,,4,"[0.5,0.5]","[0,1]",s,"[0.7365072121159131,0.5]","[0.2634927878840869,0.5]",177.1652,179.0781,0,s,0,0.3827,,-0.083413541,0.324945584,0.408359125,179.081,179.081,0,63,63,63,1,0.236507212,0.236507212,shape_difference0,1,,TRUE,,intensity,0.1,0.05,0.7,0.3,0.82,20,400,1E-11,3.5,0.01,0.5,0.1,,,,,,,,,,,,,,,,,,,,,,,,,,,,,,,,,,,,,,,,,,,,,,,,,,,,,,,,,,,,,,,,,,,,,,,,,,,,,,,,,
,,,,,053539,001,2025-03-17_00h40.52.420,Utility_discrimination_2024_2cat,2024.2.4,MacIntel,60.60606061,,,,,,,,0,"[0.5,0.5]","[1,0]",d,"[0.5,0.5808009808584217]","[0.5,0.4191990191415783]",179.0819,180.8946,1,d,1,0.2929,,0.111285436,0.594240153,0.482954717,180.8967,180.8967,0,64,64,64,1,0.080800981,0.080800981,shape_difference4,1,,TRUE,,intensity,0.1,0.05,0.7,0.3,0.82,20,400,1E-11,3.5,0.01,0.5,0.1,,,,,,,,,,,,,,,,,,,,,,,,,,,,,,,,,,,,,,,,,,,,,,,,,,,,,,,,,,,,,,,,,,,,,,,,,,,,,,,,,
,,,,,053539,001,2025-03-17_00h40.52.420,Utility_discrimination_2024_2cat,2024.2.4,MacIntel,60.60606061,,,,,,,,4,"[0.5,0.5]","[0,1]",d,"[0.7946392650696894,0.5]","[0.20536073493031065,0.5]",180.8977,182.878,1,s,1,0.4498,,-0.086967906,0.278349441,0.365317346,182.8809,182.8809,0,65,65,65,1,0.294639265,0.294639265,shape_difference0,1,,TRUE,,intensity,0.1,0.05,0.7,0.3,0.82,20,400,1E-11,3.5,0.01,0.5,0.1,,,,,,,,,,,,,,,,,,,,,,,,,,,,,,,,,,,,,,,,,,,,,,,,,,,,,,,,,,,,,,,,,,,,,,,,,,,,,,,,,
,,,,,053539,001,2025-03-17_00h40.52.420,Utility_discrimination_2024_2cat,2024.2.4,MacIntel,60.60606061,,,,,,,,3,"[0.5,0.5]","[0.383,0.924]",s,"[0.5,0.5665245644957168]","[0.5,0.43347543550428325]",182.8818,184.8282,1,s,1,0.4167,,0.017552188,0.375576158,0.35802397,184.8311,184.8311,0,66,66,66,1,0.066524564,0.066524564,shape_difference4,1,,TRUE,,intensity,0.1,0.05,0.7,0.3,0.82,20,400,1E-11,3.5,0.01,0.5,0.1,,,,,,,,,,,,,,,,,,,,,,,,,,,,,,,,,,,,,,,,,,,,,,,,,,,,,,,,,,,,,,,,,,,,,,,,,,,,,,,,,
,,,,,053539,001,2025-03-17_00h40.52.420,Utility_discrimination_2024_2cat,2024.2.4,MacIntel,60.60606061,,,,,,,,2,"[0.5,0.5]","[0.707,0.707]",s,"[0.5672445037252855,0.6622295599012109]","[0.43275549627471455,0.33777044009878915]",184.8321,186.8114,1,s,1,0.4533,,0.216096553,0.568226179,0.352129625,186.8133,186.8133,0,67,67,67,1,0.175573117,0.175573117,shape_difference3,1,,TRUE,,intensity,0.1,0.05,0.7,0.3,0.82,20,400,1E-11,3.5,0.01,0.5,0.1,,,,,,,,,,,,,,,,,,,,,,,,,,,,,,,,,,,,,,,,,,,,,,,,,,,,,,,,,,,,,,,,,,,,,,,,,,,,,,,,,
,,,,,053539,001,2025-03-17_00h40.52.420,Utility_discrimination_2024_2cat,2024.2.4,MacIntel,60.60606061,,,,,,,,1,"[0.5,0.5]","[0.924,0.383]",s,"[0.7646843212237601,0.7646843212237601]","[0.23531567877623993,0.23531567877623993]",186.8142,188.7447,1,s,1,0.4005,,0.190452439,0.531071872,0.340619433,188.7468,188.7469,0,68,68,68,1,0.374376692,0.374376692,shape_difference2,1,,TRUE,,intensity,0.1,0.05,0.7,0.3,0.82,20,400,1E-11,3.5,0.01,0.5,0.1,,,,,,,,,,,,,,,,,,,,,,,,,,,,,,,,,,,,,,,,,,,,,,,,,,,,,,,,,,,,,,,,,,,,,,,,,,,,,,,,,
,,,,,053539,001,2025-03-17_00h40.52.420,Utility_discrimination_2024_2cat,2024.2.4,MacIntel,60.60606061,,,,,,,,0,"[0.5,0.5]","[1,0]",s,"[0.8053084191014812,0.6265510005582979]","[0.19469158089851885,0.37344899944170207]",188.7483,190.528,1,d,1,0.2499,,0.107537456,0.548121481,0.440584025,190.5314,190.5314,0,69,69,69,1,0.330420367,0.330420367,shape_difference1,1,,TRUE,,intensity,0.1,0.05,0.7,0.3,0.82,20,400,1E-11,3.5,0.01,0.5,0.1,,,,,,,,,,,,,,,,,,,,,,,,,,,,,,,,,,,,,,,,,,,,,,,,,,,,,,,,,,,,,,,,,,,,,,,,,,,,,,,,,
,,,,,053539,001,2025-03-17_00h40.52.420,Utility_discrimination_2024_2cat,2024.2.4,MacIntel,60.60606061,,,,,,,,3,"[0.5,0.5]","[0.383,0.924]",d,"[0.7716915040239997,0.5]","[0.22830849597600034,0.5]",190.5324,192.3614,0,d,0,0.3001,,0.013944024,0.3402777,0.326333676,192.3635,192.3635,0,70,70,70,1,0.271691504,0.271691504,shape_difference0,1,,TRUE,,intensity,0.1,0.05,0.7,0.3,0.82,20,400,1E-11,3.5,0.01,0.5,0.1,,,,,,,,,,,,,,,,,,,,,,,,,,,,,,,,,,,,,,,,,,,,,,,,,,,,,,,,,,,,,,,,,,,,,,,,,,,,,,,,,
,,,,,053539,001,2025-03-17_00h40.52.420,Utility_discrimination_2024_2cat,2024.2.4,MacIntel,60.60606061,,,,,,,,1,"[0.5,0.5]","[0.924,0.383]",s,"[0.5629519282617652,0.6518735814983577]","[0.43704807173823484,0.3481264185016423]",192.3644,194.2115,1,s,1,0.3164,,0.17033709,0.4942681,0.32393101,194.2143,194.2144,0,71,71,71,1,0.164365348,0.164365348,shape_difference3,1,,TRUE,,intensity,0.1,0.05,0.7,0.3,0.82,20,400,1E-11,3.5,0.01,0.5,0.1,,,,,,,,,,,,,,,,,,,,,,,,,,,,,,,,,,,,,,,,,,,,,,,,,,,,,,,,,,,,,,,,,,,,,,,,,,,,,,,,,
,,,,,053539,001,2025-03-17_00h40.52.420,Utility_discrimination_2024_2cat,2024.2.4,MacIntel,60.60606061,,,,,,,,4,"[0.5,0.5]","[0,1]",s,"[0.788391229432369,0.6195387888231573]","[0.2116087705676311,0.38046121117684273]",194.216,196.0946,1,s,1,0.3496,,-0.089621303,0.236526423,0.326147726,196.0976,196.0977,0,72,72,72,1,0.31211172,0.31211172,shape_difference1,1,,TRUE,,intensity,0.1,0.05,0.7,0.3,0.82,20,400,1E-11,3.5,0.01,0.5,0.1,,,,,,,,,,,,,,,,,,,,,,,,,,,,,,,,,,,,,,,,,,,,,,,,,,,,,,,,,,,,,,,,,,,,,,,,,,,,,,,,,
,,,,,053539,001,2025-03-17_00h40.52.420,Utility_discrimination_2024_2cat,2024.2.4,MacIntel,60.60606061,,,,,,,,2,"[0.5,0.5]","[0.707,0.707]",s,"[0.5,0.5542339680632494]","[0.5,0.4457660319367506]",196.0986,197.8447,0,d,0,0.2183,,0.212719483,0.534262893,0.32154341,197.8475,197.8475,0,73,73,73,1,0.054233968,0.054233968,shape_difference4,1,,TRUE,,intensity,0.1,0.05,0.7,0.3,0.82,20,400,1E-11,3.5,0.01,0.5,0.1,,,,,,,,,,,,,,,,,,,,,,,,,,,,,,,,,,,,,,,,,,,,,,,,,,,,,,,,,,,,,,,,,,,,,,,,,,,,,,,,,
,,,,,053539,001,2025-03-17_00h40.52.420,Utility_discrimination_2024_2cat,2024.2.4,MacIntel,60.60606061,,,,,,,,2,"[0.5,0.5]","[0.707,0.707]",s,"[0.7565332968541143,0.7565332968541143]","[0.24346670314588575,0.24346670314588575]",197.8484,199.6614,1,s,1,0.2827,,0.210120148,0.497162908,0.287042761,199.6635,199.6635,0,74,74,74,1,0.362847662,0.362847662,shape_difference2,1,,TRUE,,intensity,0.1,0.05,0.7,0.3,0.82,20,400,1E-11,3.5,0.01,0.5,0.1,,,,,,,,,,,,,,,,,,,,,,,,,,,,,,,,,,,,,,,,,,,,,,,,,,,,,,,,,,,,,,,,,,,,,,,,,,,,,,,,,
,,,,,053539,001,2025-03-17_00h40.52.420,Utility_discrimination_2024_2cat,2024.2.4,MacIntel,60.60606061,,,,,,,,4,"[0.5,0.5]","[0,1]",s,"[0.7492755535704037,0.7492755535704037]","[0.2507244464295963,0.2507244464295963]",199.6645,201.2947,1,d,1,0.1013,,-0.052915523,0.352169802,0.405085325,201.2967,201.2967,0,75,75,75,1,0.352582113,0.352582113,shape_difference2,1,,TRUE,,intensity,0.1,0.05,0.7,0.3,0.82,20,400,1E-11,3.5,0.01,0.5,0.1,,,,,,,,,,,,,,,,,,,,,,,,,,,,,,,,,,,,,,,,,,,,,,,,,,,,,,,,,,,,,,,,,,,,,,,,,,,,,,,,,
,,,,,053539,001,2025-03-17_00h40.52.420,Utility_discrimination_2024_2cat,2024.2.4,MacIntel,60.60606061,,,,,,,,0,"[0.5,0.5]","[1,0]",d,"[0.5,0.6088419953513423]","[0.5,0.3911580046486577]",201.2977,203.1947,0,s,0,0.3662,,0.156721707,0.66316118,0.506439473,203.197,203.197,0,76,76,76,1,0.108841995,0.108841995,shape_difference4,1,,TRUE,,intensity,0.1,0.05,0.7,0.3,0.82,20,400,1E-11,3.5,0.01,0.5,0.1,,,,,,,,,,,,,,,,,,,,,,,,,,,,,,,,,,,,,,,,,,,,,,,,,,,,,,,,,,,,,,,,,,,,,,,,,,,,,,,,,
,,,,,053539,001,2025-03-17_00h40.52.420,Utility_discrimination_2024_2cat,2024.2.4,MacIntel,60.60606061,,,,,,,,1,"[0.5,0.5]","[0.924,0.383]",d,"[0.86854048018144,0.5]","[0.13145951981855997,0.5]",203.1988,205.0447,0,d,0,0.3283,,0.15581069,0.474850477,0.319039787,205.0475,205.0475,0,77,77,77,1,0.36854048,0.36854048,shape_difference0,1,,TRUE,,intensity,0.1,0.05,0.7,0.3,0.82,20,400,1E-11,3.5,0.01,0.5,0.1,,,,,,,,,,,,,,,,,,,,,,,,,,,,,,,,,,,,,,,,,,,,,,,,,,,,,,,,,,,,,,,,,,,,,,,,,,,,,,,,,
,,,,,053539,001,2025-03-17_00h40.52.420,Utility_discrimination_2024_2cat,2024.2.4,MacIntel,60.60606061,,,,,,,,3,"[0.5,0.5]","[0.383,0.924]",s,"[0.7730304754648742,0.6131717230552455]","[0.2269695245351257,0.38682827694475447]",205.0485,206.9945,1,d,1,0.4271,,0.011179378,0.298286671,0.287107293,206.9973,206.9973,0,78,78,78,1,0.295487528,0.295487528,shape_difference1,1,,TRUE,,intensity,0.1,0.05,0.7,0.3,0.82,20,400,1E-11,3.5,0.01,0.5,0.1,,,,,,,,,,,,,,,,,,,,,,,,,,,,,,,,,,,,,,,,,,,,,,,,,,,,,,,,,,,,,,,,,,,,,,,,,,,,,,,,,
,,,,,053539,001,2025-03-17_00h40.52.420,Utility_discrimination_2024_2cat,2024.2.4,MacIntel,60.60606061,,,,,,,,0,"[0.5,0.5]","[1,0]",d,"[0.5591695020650095,0.6427483548513545]","[0.4408304979349905,0.3572516451486455]",206.9983,208.9947,1,s,1,0.4662,,0.252767412,0.77275721,0.519989798,208.9968,208.9968,0,79,79,79,1,0.154489562,0.154489562,shape_difference3,1,,TRUE,,intensity,0.1,0.05,0.7,0.3,0.82,20,400,1E-11,3.5,0.01,0.5,0.1,,,,,,,,,,,,,,,,,,,,,,,,,,,,,,,,,,,,,,,,,,,,,,,,,,,,,,,,,,,,,,,,,,,,,,,,,,,,,,,,,
,,,,,053539,001,2025-03-17_00h40.52.420,Utility_discrimination_2024_2cat,2024.2.4,MacIntel,60.60606061,,,,,,,,1,"[0.5,0.5]","[0.924,0.383]",s,"[0.9882016398893555,0.5]","[0.011798360110644501,0.5]",208.9977,210.8613,0,d,0,0.3326,,0.145108047,0.450345015,0.305236968,210.8634,210.8635,0,80,80,80,1,0.48820164,0.48820164,shape_difference0,1,,TRUE,,intensity,0.1,0.05,0.7,0.3,0.82,20,400,1E-11,3.5,0.01,0.5,0.1,,,,,,,,,,,,,,,,,,,,,,,,,,,,,,,,,,,,,,,,,,,,,,,,,,,,,,,,,,,,,,,,,,,,,,,,,,,,,,,,,
,,,,,053539,001,2025-03-17_00h40.52.420,Utility_discrimination_2024_2cat,2024.2.4,MacIntel,60.60606061,,,,,,,,4,"[0.5,0.5]","[0,1]",s,"[0.7639147455379506,0.6093932332695184]","[0.23608525446204942,0.39060676673048156]",210.865,212.828,0,s,0,0.433,,0.008110094,0.445023632,0.436913538,212.8306,212.8306,0,81,81,81,1,0.285622019,0.285622019,shape_difference1,1,,TRUE,,intensity,0.1,0.05,0.7,0.3,0.82,20,400,1E-11,3.5,0.01,0.5,0.1,,,,,,,,,,,,,,,,,,,,,,,,,,,,,,,,,,,,,,,,,,,,,,,,,,,,,,,,,,,,,,,,,,,,,,,,,,,,,,,,,
,,,,,053539,001,2025-03-17_00h40.52.420,Utility_discrimination_2024_2cat,2024.2.4,MacIntel,60.60606061,,,,,,,,2,"[0.5,0.5]","[0.707,0.707]",d,"[0.5,0.6656937164388609]","[0.5,0.3343062835611391]",212.8316,214.778,0,d,0,0.4154,,0.20806724,0.484518287,0.276451047,214.7801,214.7801,0,82,82,82,1,0.165693716,0.165693716,shape_difference4,1,,TRUE,,intensity,0.1,0.05,0.7,0.3,0.82,20,400,1E-11,3.5,0.01,0.5,0.1,,,,,,,,,,,,,,,,,,,,,,,,,,,,,,,,,,,,,,,,,,,,,,,,,,,,,,,,,,,,,,,,,,,,,,,,,,,,,,,,,
,,,,,053539,001,2025-03-17_00h40.52.420,Utility_discrimination_2024_2cat,2024.2.4,MacIntel,60.60606061,,,,,,,,3,"[0.5,0.5]","[0.383,0.924]",s,"[0.7425220178242955,0.7425220178242955]","[0.2574779821757045,0.2574779821757045]",214.781,216.8114,1,s,1,0.4993,,0.009005356,0.285510969,0.276505613,216.8136,216.8137,0,83,83,83,1,0.343029728,0.343029728,shape_difference2,1,,TRUE,,intensity,0.1,0.05,0.7,0.3,0.82,20,400,1E-11,3.5,0.01,0.5,0.1,,,,,,,,,,,,,,,,,,,,,,,,,,,,,,,,,,,,,,,,,,,,,,,,,,,,,,,,,,,,,,,,,,,,,,,,,,,,,,,,,
,,,,,053539,001,2025-03-17_00h40.52.420,Utility_discrimination_2024_2cat,2024.2.4,MacIntel,60.60606061,,,,,,,,2,"[0.5,0.5]","[0.707,0.707]",s,"[0.5556832461597564,0.6343376486987333]","[0.4443167538402436,0.3656623513012666]",216.8145,218.6946,1,s,1,0.3496,,0.205679952,0.472533647,0.266853695,218.6973,218.6973,0,84,84,84,1,0.145387066,0.145387066,shape_difference3,1,,TRUE,,intensity,0.1,0.05,0.7,0.3,0.82,20,400,1E-11,3.5,0.01,0.5,0.1,,,,,,,,,,,,,,,,,,,,,,,,,,,,,,,,,,,,,,,,,,,,,,,,,,,,,,,,,,,,,,,,,,,,,,,,,,,,,,,,,
,,,,,053539,001,2025-03-17_00h40.52.420,Utility_discrimination_2024_2cat,2024.2.4,MacIntel,60.60606061,,,,,,,,1,"[0.5,0.5]","[0.924,0.383]",s,"[0.735253074033043,0.735253074033043]","[0.264746925966957,0.264746925966957]",218.6982,220.5779,1,d,1,0.3495,,0.20514525,0.496991976,0.291846726,220.5807,220.5808,0,85,85,85,1,0.332748337,0.332748337,shape_difference2,1,,TRUE,,intensity,0.1,0.05,0.7,0.3,0.82,20,400,1E-11,3.5,0.01,0.5,0.1,,,,,,,,,,,,,,,,,,,,,,,,,,,,,,,,,,,,,,,,,,,,,,,,,,,,,,,,,,,,,,,,,,,,,,,,,,,,,,,,,
,,,,,053539,001,2025-03-17_00h40.52.420,Utility_discrimination_2024_2cat,2024.2.4,MacIntel,60.60606061,,,,,,,,4,"[0.5,0.5]","[0,1]",d,"[0.8037742608013574,0.6259150886222077]","[0.1962257391986426,0.3740849113777923]",220.5818,222.428,1,s,1,0.3222,,0.051998484,0.575155017,0.523156533,222.4299,222.43,0,86,86,86,1,0.328760023,0.328760023,shape_difference1,1,,TRUE,,intensity,0.1,0.05,0.7,0.3,0.82,20,400,1E-11,3.5,0.01,0.5,0.1,,,,,,,,,,,,,,,,,,,,,,,,,,,,,,,,,,,,,,,,,,,,,,,,,,,,,,,,,,,,,,,,,,,,,,,,,,,,,,,,,
,,,,,053539,001,2025-03-17_00h40.52.420,Utility_discrimination_2024_2cat,2024.2.4,MacIntel,60.60606061,,,,,,,,3,"[0.5,0.5]","[0.383,0.924]",s,"[0.5,0.7616423557984888]","[0.5,0.23835764420151118]",222.4307,224.4113,1,s,1,0.4497,,0.006543846,0.273668492,0.267124646,224.4133,224.4133,0,87,87,87,1,0.261642356,0.261642356,shape_difference4,1,,TRUE,,intensity,0.1,0.05,0.7,0.3,0.82,20,400,1E-11,3.5,0.01,0.5,0.1,,,,,,,,,,,,,,,,,,,,,,,,,,,,,,,,,,,,,,,,,,,,,,,,,,,,,,,,,,,,,,,,,,,,,,,,,,,,,,,,,
,,,,,053539,001,2025-03-17_00h40.52.420,Utility_discrimination_2024_2cat,2024.2.4,MacIntel,60.60606061,,,,,,,,0,"[0.5,0.5]","[1,0]",s,"[0.5519972404145497,0.6254450395379736]","[0.4480027595854503,0.3745549604620264]",224.4149,226.5782,1,s,1,0.645,,0.369604114,0.86568689,0.496082776,226.5811,226.5812,0,88,88,88,1,0.13576303,0.13576303,shape_difference3,1,,TRUE,,intensity,0.1,0.05,0.7,0.3,0.82,20,400,1E-11,3.5,0.01,0.5,0.1,,,,,,,,,,,,,,,,,,,,,,,,,,,,,,,,,,,,,,,,,,,,,,,,,,,,,,,,,,,,,,,,,,,,,,,,,,,,,,,,,
,,,,,053539,001,2025-03-17_00h40.52.420,Utility_discrimination_2024_2cat,2024.2.4,MacIntel,60.60606061,,,,,,,,4,"[0.5,0.5]","[0,1]",s,"[1.0994756860420367,0.5]","[-0.09947568604203672,0.5]",226.582,228.377,1,d,1,0.2671,,0.042639643,0.511634947,0.468995304,228.379,228.379,0,89,89,89,1,0.599475686,0.599475686,shape_difference0,1,,TRUE,,intensity,0.1,0.05,0.7,0.3,0.82,20,400,1E-11,3.5,0.01,0.5,0.1,,,,,,,,,,,,,,,,,,,,,,,,,,,,,,,,,,,,,,,,,,,,,,,,,,,,,,,,,,,,,,,,,,,,,,,,,,,,,,,,,
,,,,,053539,001,2025-03-17_00h40.52.420,Utility_discrimination_2024_2cat,2024.2.4,MacIntel,60.60606061,,,,,,,,2,"[0.5,0.5]","[0.707,0.707]",d,"[0.5,0.7336124022700659]","[0.5,0.2663875977299341]",228.3798,230.1779,1,s,1,0.2677,,0.203512298,0.457703457,0.254191159,230.1801,230.1801,0,90,90,90,1,0.233612402,0.233612402,shape_difference4,1,,TRUE,,intensity,0.1,0.05,0.7,0.3,0.82,20,400,1E-11,3.5,0.01,0.5,0.1,,,,,,,,,,,,,,,,,,,,,,,,,,,,,,,,,,,,,,,,,,,,,,,,,,,,,,,,,,,,,,,,,,,,,,,,,,,,,,,,,
,,,,,053539,001,2025-03-17_00h40.52.420,Utility_discrimination_2024_2cat,2024.2.4,MacIntel,60.60606061,,,,,,,,0,"[0.5,0.5]","[1,0]",s,"[0.7271871142887514,0.7271871142887514]","[0.2728128857112486,0.2728128857112486]",230.1811,232.2779,1,s,1,0.5661,,0.353897351,0.821069037,0.467171687,232.2807,232.2807,0,91,91,91,1,0.321339624,0.321339624,shape_difference2,1,,TRUE,,intensity,0.1,0.05,0.7,0.3,0.82,20,400,1E-11,3.5,0.01,0.5,0.1,,,,,,,,,,,,,,,,,,,,,,,,,,,,,,,,,,,,,,,,,,,,,,,,,,,,,,,,,,,,,,,,,,,,,,,,,,,,,,,,,
,,,,,053539,001,2025-03-17_00h40.52.420,Utility_discrimination_2024_2cat,2024.2.4,MacIntel,60.60606061,,,,,,,,1,"[0.5,0.5]","[0.924,0.383]",s,"[1.0722753753907939,0.5]","[-0.07227537539079376,0.5]",232.2816,233.8946,1,d,1,0.0833,,0.203153549,0.480948479,0.27779493,233.8975,233.8975,0,92,92,92,1,0.572275375,0.572275375,shape_difference0,1,,TRUE,,intensity,0.1,0.05,0.7,0.3,0.82,20,400,1E-11,3.5,0.01,0.5,0.1,,,,,,,,,,,,,,,,,,,,,,,,,,,,,,,,,,,,,,,,,,,,,,,,,,,,,,,,,,,,,,,,,,,,,,,,,,,,,,,,,
,,,,,053539,001,2025-03-17_00h40.52.420,Utility_discrimination_2024_2cat,2024.2.4,MacIntel,60.60606061,,,,,,,,3,"[0.5,0.5]","[0.383,0.924]",d,"[0.7894964317067239,0.6199968975580901]","[0.21050356829327604,0.3800031024419099]",233.8995,235.7612,1,d,1,0.3328,,0.004333284,0.259131042,0.254797758,235.7641,235.7641,0,93,93,93,1,0.313307827,0.313307827,shape_difference1,1,,TRUE,,intensity,0.1,0.05,0.7,0.3,0.82,20,400,1E-11,3.5,0.01,0.5,0.1,,,,,,,,,,,,,,,,,,,,,,,,,,,,,,,,,,,,,,,,,,,,,,,,,,,,,,,,,,,,,,,,,,,,,,,,,,,,,,,,,
,,,,,053539,001,2025-03-17_00h40.52.420,Utility_discrimination_2024_2cat,2024.2.4,MacIntel,60.60606061,,,,,,,,1,"[0.5,0.5]","[0.924,0.383]",d,"[0.5479297340184993,0.6156320476059879]","[0.4520702659815007,0.3843679523940121]",235.765,237.5617,1,s,1,0.2785,,0.201291982,0.461277689,0.259985707,237.5637,237.5637,0,94,94,94,1,0.125142909,0.125142909,shape_difference3,1,,TRUE,,intensity,0.1,0.05,0.7,0.3,0.82,20,400,1E-11,3.5,0.01,0.5,0.1,,,,,,,,,,,,,,,,,,,,,,,,,,,,,,,,,,,,,,,,,,,,,,,,,,,,,,,,,,,,,,,,,,,,,,,,,,,,,,,,,
,,,,,053539,001,2025-03-17_00h40.52.420,Utility_discrimination_2024_2cat,2024.2.4,MacIntel,60.60606061,,,,,,,,4,"[0.5,0.5]","[0,1]",s,"[0.7751888803332548,0.6140663865450613]","[0.22481111966674516,0.38593361345493876]",237.5646,239.3779,1,s,1,0.2829,,0.033005877,0.469701883,0.436696006,239.38,239.38,0,95,95,95,1,0.297823464,0.297823464,shape_difference1,1,,TRUE,,intensity,0.1,0.05,0.7,0.3,0.82,20,400,1E-11,3.5,0.01,0.5,0.1,,,,,,,,,,,,,,,,,,,,,,,,,,,,,,,,,,,,,,,,,,,,,,,,,,,,,,,,,,,,,,,,,,,,,,,,,,,,,,,,,
,,,,,053539,001,2025-03-17_00h40.52.420,Utility_discrimination_2024_2cat,2024.2.4,MacIntel,60.60606061,,,,,,,,0,"[0.5,0.5]","[1,0]",s,"[0.5,0.705538541150186]","[0.5,0.29446145884981406]",239.3817,241.0781,1,d,1,0.1651,,0.343106584,0.781243707,0.438137123,241.081,241.081,0,96,96,96,1,0.205538541,0.205538541,shape_difference4,1,,TRUE,,intensity,0.1,0.05,0.7,0.3,0.82,20,400,1E-11,3.5,0.01,0.5,0.1,,,,,,,,,,,,,,,,,,,,,,,,,,,,,,,,,,,,,,,,,,,,,,,,,,,,,,,,,,,,,,,,,,,,,,,,,,,,,,,,,
,,,,,053539,001,2025-03-17_00h40.52.420,Utility_discrimination_2024_2cat,2024.2.4,MacIntel,60.60606061,,,,,,,,3,"[0.5,0.5]","[0.383,0.924]",d,"[1.0490059042629114,0.5]","[-0.04900590426291129,0.5]",241.082,242.6947,1,s,1,0.0949,,0.002270153,0.240784389,0.238514236,242.6973,242.6974,0,97,97,97,1,0.549005904,0.549005904,shape_difference0,1,,TRUE,,intensity,0.1,0.05,0.7,0.3,0.82,20,400,1E-11,3.5,0.01,0.5,0.1,,,,,,,,,,,,,,,,,,,,,,,,,,,,,,,,,,,,,,,,,,,,,,,,,,,,,,,,,,,,,,,,,,,,,,,,,,,,,,,,,
,,,,,053539,001,2025-03-17_00h40.52.420,Utility_discrimination_2024_2cat,2024.2.4,MacIntel,60.60606061,,,,,,,,2,"[0.5,0.5]","[0.707,0.707]",s,"[0.5433229738400184,0.6045180883242219]","[0.45667702615998157,0.39548191167577806]",242.6984,244.4282,1,s,1,0.2003,,0.201465659,0.438855956,0.237390297,244.4303,244.4303,0,98,98,98,1,0.113114814,0.113114814,shape_difference3,1,,TRUE,,intensity,0.1,0.05,0.7,0.3,0.82,20,400,1E-11,3.5,0.01,0.5,0.1,,,,,,,,,,,,,,,,,,,,,,,,,,,,,,,,,,,,,,,,,,,,,,,,,,,,,,,,,,,,,,,,,,,,,,,,,,,,,,,,,
,,,,,053539,001,2025-03-17_00h40.52.420,Utility_discrimination_2024_2cat,2024.2.4,MacIntel,60.60606061,,,,,,,,1,"[0.5,0.5]","[0.924,0.383]",s,"[0.7180093650673026,0.7180093650673026]","[0.2819906349326974,0.2819906349326974]",244.4315,246.2281,1,s,1,0.2666,,0.194058706,0.43636169,0.242302985,246.2311,246.2311,0,99,99,99,1,0.308358366,0.308358366,shape_difference2,1,,TRUE,,intensity,0.1,0.05,0.7,0.3,0.82,20,400,1E-11,3.5,0.01,0.5,0.1,,,,,,,,,,,,,,,,,,,,,,,,,,,,,,,,,,,,,,,,,,,,,,,,,,,,,,,,,,,,,,,,,,,,,,,,,,,,,,,,,
,,,,,053539,001,2025-03-17_00h40.52.420,Utility_discrimination_2024_2cat,2024.2.4,MacIntel,60.60606061,,,,,,,,3,"[0.5,0.5]","[0.383,0.924]",s,"[0.7671464516102847,0.6107327824315357]","[0.23285354838971528,0.3892672175684642]",246.2322,247.8114,1,s,1,0.0506,,0.000269782,0.217082559,0.216812777,247.8143,247.8143,0,100,100,100,1,0.289119536,0.289119536,shape_difference1,1,,TRUE,,intensity,0.1,0.05,0.7,0.3,0.82,20,400,1E-11,3.5,0.01,0.5,0.1,,,,,,,,,,,,,,,,,,,,,,,,,,,,,,,,,,,,,,,,,,,,,,,,,,,,,,,,,,,,,,,,,,,,,,,,,,,,,,,,,
,,,,,053539,001,2025-03-17_00h40.52.420,Utility_discrimination_2024_2cat,2024.2.4,MacIntel,60.60606061,,,,,,,,0,"[0.5,0.5]","[1,0]",s,"[0.5381030419767766,0.5919248323408397]","[0.46189695802322334,0.40807516765916024]",247.8153,249.4781,1,s,1,0.1334,,0.331786615,0.751454234,0.419667619,249.4801,249.4802,0,101,101,101,1,0.099485749,0.099485749,shape_difference3,1,,TRUE,,intensity,0.1,0.05,0.7,0.3,0.82,20,400,1E-11,3.5,0.01,0.5,0.1,,,,,,,,,,,,,,,,,,,,,,,,,,,,,,,,,,,,,,,,,,,,,,,,,,,,,,,,,,,,,,,,,,,,,,,,,,,,,,,,,
,,,,,053539,001,2025-03-17_00h40.52.420,Utility_discrimination_2024_2cat,2024.2.4,MacIntel,60.60606061,,,,,,,,4,"[0.5,0.5]","[0,1]",s,"[1.0259553243121957,0.5]","[-0.025955324312195716,0.5]",249.4811,251.1116,1,d,1,0.0995,,0.026252534,0.418238384,0.39198585,251.1136,251.1137,0,102,102,102,1,0.525955324,0.525955324,shape_difference0,1,,TRUE,,intensity,0.1,0.05,0.7,0.3,0.82,20,400,1E-11,3.5,0.01,0.5,0.1,,,,,,,,,,,,,,,,,,,,,,,,,,,,,,,,,,,,,,,,,,,,,,,,,,,,,,,,,,,,,,,,,,,,,,,,,,,,,,,,,
,,,,,053539,001,2025-03-17_00h40.52.420,Utility_discrimination_2024_2cat,2024.2.4,MacIntel,60.60606061,,,,,,,,2,"[0.5,0.5]","[0.707,0.707]",d,"[0.5,0.6876830866494785]","[0.5,0.3123169133505215]",251.1147,252.778,0,s,0,0.1327,,0.194147597,0.414359751,0.220212153,252.7802,252.7803,0,103,103,103,1,0.187683087,0.187683087,shape_difference4,1,,TRUE,,intensity,0.1,0.05,0.7,0.3,0.82,20,400,1E-11,3.5,0.01,0.5,0.1,,,,,,,,,,,,,,,,,,,,,,,,,,,,,,,,,,,,,,,,,,,,,,,,,,,,,,,,,,,,,,,,,,,,,,,,,,,,,,,,,
,,,,,053539,001,2025-03-17_00h40.52.420,Utility_discrimination_2024_2cat,2024.2.4,MacIntel,60.60606061,,,,,,,,2,"[0.5,0.5]","[0.707,0.707]",d,"[0.7092871388492065,0.7092871388492065]","[0.29071286115079353,0.29071286115079353]",252.7821,254.4614,1,d,1,0.1512,,0.175839194,0.397718154,0.22187896,254.4643,254.4644,0,104,104,104,1,0.296021413,0.296021413,shape_difference2,1,,TRUE,,intensity,0.1,0.05,0.7,0.3,0.82,20,400,1E-11,3.5,0.01,0.5,0.1,,,,,,,,,,,,,,,,,,,,,,,,,,,,,,,,,,,,,,,,,,,,,,,,,,,,,,,,,,,,,,,,,,,,,,,,,,,,,,,,,
,,,,,053539,001,2025-03-17_00h40.52.420,Utility_discrimination_2024_2cat,2024.2.4,MacIntel,60.60606061,,,,,,,,1,"[0.5,0.5]","[0.924,0.383]",d,"[0.7035383826690244,0.7035383826690244]","[0.29646161733097565,0.29646161733097565]",254.4654,256.0948,0,d,0,0.1043,,0.176766495,0.403944454,0.227177959,256.0969,256.0969,0,105,105,105,1,0.287890216,0.287890216,shape_difference2,1,,TRUE,,intensity,0.1,0.05,0.7,0.3,0.82,20,400,1E-11,3.5,0.01,0.5,0.1,,,,,,,,,,,,,,,,,,,,,,,,,,,,,,,,,,,,,,,,,,,,,,,,,,,,,,,,,,,,,,,,,,,,,,,,,,,,,,,,,
,,,,,053539,001,2025-03-17_00h40.52.420,Utility_discrimination_2024_2cat,2024.2.4,MacIntel,60.60606061,,,,,,,,0,"[0.5,0.5]","[1,0]",s,"[0.7606485075189344,0.608039370540857]","[0.23935149248106563,0.391960629459143]",256.098,257.8614,0,s,0,0.2329,,0.323834698,0.708651526,0.384816827,257.8637,257.8637,0,106,106,106,1,0.282087129,0.282087129,shape_difference1,1,,TRUE,,intensity,0.1,0.05,0.7,0.3,0.82,20,400,1E-11,3.5,0.01,0.5,0.1,,,,,,,,,,,,,,,,,,,,,,,,,,,,,,,,,,,,,,,,,,,,,,,,,,,,,,,,,,,,,,,,,,,,,,,,,,,,,,,,,
,,,,,053539,001,2025-03-17_00h40.52.420,Utility_discrimination_2024_2cat,2024.2.4,MacIntel,60.60606061,,,,,,,,4,"[0.5,0.5]","[0,1]",d,"[1.0004202425226056,0.5]","[-0.0004202425226055295,0.5]",257.8653,259.944,1,s,1,0.5491,,0.101586707,0.518249335,0.416662627,259.9468,259.9468,0,107,107,107,1,0.500420243,0.500420243,shape_difference0,1,,TRUE,,intensity,0.1,0.05,0.7,0.3,0.82,20,400,1E-11,3.5,0.01,0.5,0.1,,,,,,,,,,,,,,,,,,,,,,,,,,,,,,,,,,,,,,,,,,,,,,,,,,,,,,,,,,,,,,,,,,,,,,,,,,,,,,,,,
,,,,,053539,001,2025-03-17_00h40.52.420,Utility_discrimination_2024_2cat,2024.2.4,MacIntel,60.60606061,,,,,,,,3,"[0.5,0.5]","[0.383,0.924]",s,"[0.5,0.7532703521291424]","[0.5,0.2467296478708576]",259.9479,261.8104,1,d,1,0.344,,-0.017591074,0.198267241,0.215858315,261.8124,261.8124,0,108,108,108,1,0.253270352,0.253270352,shape_difference4,1,,TRUE,,intensity,0.1,0.05,0.7,0.3,0.82,20,400,1E-11,3.5,0.01,0.5,0.1,,,,,,,,,,,,,,,,,,,,,,,,,,,,,,,,,,,,,,,,,,,,,,,,,,,,,,,,,,,,,,,,,,,,,,,,,,,,,,,,,
,,,,,053539,001,2025-03-17_00h40.52.420,Utility_discrimination_2024_2cat,2024.2.4,MacIntel,60.60606061,,,,,,,,3,"[0.5,0.5]","[0.383,0.924]",d,"[0.534779775722568,0.5839073440408689]","[0.4652202242774321,0.4160926559591312]",261.8133,263.3613,0,s,0,0.0162,,0.007815148,0.246796123,0.238980975,263.3633,263.3635,0,109,109,109,1,0.090808814,0.090808814,shape_difference3,1,,TRUE,,intensity,0.1,0.05,0.7,0.3,0.82,20,400,1E-11,3.5,0.01,0.5,0.1,,,,,,,,,,,,,,,,,,,,,,,,,,,,,,,,,,,,,,,,,,,,,,,,,,,,,,,,,,,,,,,,,,,,,,,,,,,,,,,,,
,,,,,053539,001,2025-03-17_00h40.52.420,Utility_discrimination_2024_2cat,2024.2.4,MacIntel,60.60606061,,,,,,,,0,"[0.5,0.5]","[1,0]",d,"[0.547972334455521,0.6157348225506563]","[0.4520276655444791,0.3842651774493438]",263.365,265.078,1,s,1,0.183,,0.318103803,0.682534159,0.364430357,265.0808,265.0808,0,110,110,110,1,0.125254137,0.125254137,shape_difference3,1,,TRUE,,intensity,0.1,0.05,0.7,0.3,0.82,20,400,1E-11,3.5,0.01,0.5,0.1,,,,,,,,,,,,,,,,,,,,,,,,,,,,,,,,,,,,,,,,,,,,,,,,,,,,,,,,,,,,,,,,,,,,,,,,,,,,,,,,,
,,,,,053539,001,2025-03-17_00h40.52.420,Utility_discrimination_2024_2cat,2024.2.4,MacIntel,60.60606061,,,,,,,,2,"[0.5,0.5]","[0.707,0.707]",s,"[0.9846070377265591,0.5]","[0.015392962273440891,0.5]",265.0819,267.378,1,s,1,0.768,,0.207193843,0.445512197,0.238318354,267.3801,267.3801,0,111,111,111,1,0.484607038,0.484607038,shape_difference0,1,,TRUE,,intensity,0.1,0.05,0.7,0.3,0.82,20,400,1E-11,3.5,0.01,0.5,0.1,,,,,,,,,,,,,,,,,,,,,,,,,,,,,,,,,,,,,,,,,,,,,,,,,,,,,,,,,,,,,,,,,,,,,,,,,,,,,,,,,
,,,,,053539,001,2025-03-17_00h40.52.420,Utility_discrimination_2024_2cat,2024.2.4,MacIntel,60.60606061,,,,,,,,4,"[0.5,0.5]","[0,1]",s,"[0.7274561507133909,0.7274561507133909]","[0.27254384928660913,0.27254384928660913]",267.3813,269.1946,1,d,1,0.2831,,0.094536717,0.468458231,0.373921513,269.1968,269.1968,0,112,112,112,1,0.321720157,0.321720157,shape_difference2,1,,TRUE,,intensity,0.1,0.05,0.7,0.3,0.82,20,400,1E-11,3.5,0.01,0.5,0.1,,,,,,,,,,,,,,,,,,,,,,,,,,,,,,,,,,,,,,,,,,,,,,,,,,,,,,,,,,,,,,,,,,,,,,,,,,,,,,,,,
,,,,,053539,001,2025-03-17_00h40.52.420,Utility_discrimination_2024_2cat,2024.2.4,MacIntel,60.60606061,,,,,,,,1,"[0.5,0.5]","[0.924,0.383]",d,"[0.5,0.7332368101637385]","[0.5,0.26676318983626146]",269.1985,271.0781,1,s,1,0.3515,,0.206465098,0.466776974,0.260311876,271.0809,271.081,0,113,113,113,1,0.23323681,0.23323681,shape_difference4,1,,TRUE,,intensity,0.1,0.05,0.7,0.3,0.82,20,400,1E-11,3.5,0.01,0.5,0.1,,,,,,,,,,,,,,,,,,,,,,,,,,,,,,,,,,,,,,,,,,,,,,,,,,,,,,,,,,,,,,,,,,,,,,,,,,,,,,,,,
,,,,,053539,001,2025-03-17_00h40.52.420,Utility_discrimination_2024_2cat,2024.2.4,MacIntel,60.60606061,,,,,,,,0,"[0.5,0.5]","[1,0]",s,"[0.7889979236820333,0.6197902649028342]","[0.2110020763179667,0.3802097350971659]",271.082,272.8613,1,d,1,0.2502,,0.313862866,0.655935669,0.342072803,272.8631,272.8631,0,114,114,114,1,0.312768316,0.312768316,shape_difference1,1,,TRUE,,intensity,0.1,0.05,0.7,0.3,0.82,20,400,1E-11,3.5,0.01,0.5,0.1,,,,,,,,,,,,,,,,,,,,,,,,,,,,,,,,,,,,,,,,,,,,,,,,,,,,,,,,,,,,,,,,,,,,,,,,,,,,,,,,,
,,,,,053539,001,2025-03-17_00h40.52.420,Utility_discrimination_2024_2cat,2024.2.4,MacIntel,60.60606061,,,,,,,,2,"[0.5,0.5]","[0.707,0.707]",d,"[0.9715648165370866,0.5]","[0.028435183462913405,0.5]",272.8639,274.8614,1,d,1,0.4666,,0.205768318,0.424911162,0.219142845,274.8636,274.8636,0,115,115,115,1,0.471564817,0.471564817,shape_difference0,1,,TRUE,,intensity,0.1,0.05,0.7,0.3,0.82,20,400,1E-11,3.5,0.01,0.5,0.1,,,,,,,,,,,,,,,,,,,,,,,,,,,,,,,,,,,,,,,,,,,,,,,,,,,,,,,,,,,,,,,,,,,,,,,,,,,,,,,,,
,,,,,053539,001,2025-03-17_00h40.52.420,Utility_discrimination_2024_2cat,2024.2.4,MacIntel,60.60606061,,,,,,,,4,"[0.5,0.5]","[0,1]",d,"[0.7192375067964495,0.7192375067964495]","[0.2807624932035505,0.2807624932035505]",274.8652,276.8448,1,d,1,0.4496,,0.07321878,0.425805727,0.352586947,276.8477,276.8477,0,116,116,116,1,0.310095483,0.310095483,shape_difference2,1,,TRUE,,intensity,0.1,0.05,0.7,0.3,0.82,20,400,1E-11,3.5,0.01,0.5,0.1,,,,,,,,,,,,,,,,,,,,,,,,,,,,,,,,,,,,,,,,,,,,,,,,,,,,,,,,,,,,,,,,,,,,,,,,,,,,,,,,,
,,,,,053539,001,2025-03-17_00h40.52.420,Utility_discrimination_2024_2cat,2024.2.4,MacIntel,60.60606061,,,,,,,,1,"[0.5,0.5]","[0.924,0.383]",d,"[0.5,0.7130228793682818]","[0.5,0.2869771206317182]",276.8487,279.0446,1,d,1,0.6674,,0.205189337,0.445809612,0.240620275,279.0468,279.0468,0,117,117,117,1,0.213022879,0.213022879,shape_difference4,1,,TRUE,,intensity,0.1,0.05,0.7,0.3,0.82,20,400,1E-11,3.5,0.01,0.5,0.1,,,,,,,,,,,,,,,,,,,,,,,,,,,,,,,,,,,,,,,,,,,,,,,,,,,,,,,,,,,,,,,,,,,,,,,,,,,,,,,,,
,,,,,053539,001,2025-03-17_00h40.52.420,Utility_discrimination_2024_2cat,2024.2.4,MacIntel,60.60606061,,,,,,,,3,"[0.5,0.5]","[0.383,0.924]",d,"[0.775829779731518,0.6143320407328695]","[0.224170220268482,0.38566795926713054]",279.0479,280.8781,1,s,1,0.2996,,0.006348638,0.22673231,0.220383672,280.8802,280.8802,0,118,118,118,1,0.298517078,0.298517078,shape_difference1,1,,TRUE,,intensity,0.1,0.05,0.7,0.3,0.82,20,400,1E-11,3.5,0.01,0.5,0.1,,,,,,,,,,,,,,,,,,,,,,,,,,,,,,,,,,,,,,,,,,,,,,,,,,,,,,,,,,,,,,,,,,,,,,,,,,,,,,,,,
,,,,,053539,001,2025-03-17_00h40.52.420,Utility_discrimination_2024_2cat,2024.2.4,MacIntel,60.60606061,,,,,,,,3,"[0.5,0.5]","[0.383,0.924]",s,"[0.5438420649900635,0.6057704126653229]","[0.4561579350099365,0.3942295873346771]",280.8812,282.8113,0,s,0,0.4003,,0.012440604,0.264561038,0.252120434,282.8144,282.8144,0,119,119,119,1,0.114470144,0.114470144,shape_difference3,1,,TRUE,,intensity,0.1,0.05,0.7,0.3,0.82,20,400,1E-11,3.5,0.01,0.5,0.1,,,,,,,,,,,,,,,,,,,,,,,,,,,,,,,,,,,,,,,,,,,,,,,,,,,,,,,,,,,,,,,,,,,,,,,,,,,,,,,,,
,,,,,053539,001,2025-03-17_00h40.52.420,Utility_discrimination_2024_2cat,2024.2.4,MacIntel,60.60606061,,,,,,,,2,"[0.5,0.5]","[0.707,0.707]",d,"[0.5541932448871147,0.6307429719992012]","[0.44580675511288526,0.36925702800079885]",282.8154,284.728,0,s,0,0.3828,,0.204461676,0.399772681,0.195311004,284.7301,284.7302,0,120,120,120,1,0.141496723,0.141496723,shape_difference3,1,,TRUE,,intensity,0.1,0.05,0.7,0.3,0.82,20,400,1E-11,3.5,0.01,0.5,0.1,,,,,,,,,,,,,,,,,,,,,,,,,,,,,,,,,,,,,,,,,,,,,,,,,,,,,,,,,,,,,,,,,,,,,,,,,,,,,,,,,
,,,,,053539,001,2025-03-17_00h40.52.420,Utility_discrimination_2024_2cat,2024.2.4,MacIntel,60.60606061,,,,,,,,4,"[0.5,0.5]","[0,1]",d,"[0.7106615701285952,0.7106615701285952]","[0.28933842987140473,0.28933842987140473]",284.7312,286.5605,1,s,1,0.2993,,0.057979915,0.388849917,0.330870001,286.5627,286.5627,0,121,121,121,1,0.297965446,0.297965446,shape_difference2,1,,TRUE,,intensity,0.1,0.05,0.7,0.3,0.82,20,400,1E-11,3.5,0.01,0.5,0.1,,,,,,,,,,,,,,,,,,,,,,,,,,,,,,,,,,,,,,,,,,,,,,,,,,,,,,,,,,,,,,,,,,,,,,,,,,,,,,,,,
,,,,,053539,001,2025-03-17_00h40.52.420,Utility_discrimination_2024_2cat,2024.2.4,MacIntel,60.60606061,,,,,,,,0,"[0.5,0.5]","[1,0]",s,"[0.5,0.6953009539764963]","[0.5,0.3046990460235037]",286.5647,288.3778,1,s,1,0.2835,,0.310639082,0.619969001,0.309329919,288.3806,288.3806,0,122,122,122,1,0.195300954,0.195300954,shape_difference4,1,,TRUE,,intensity,0.1,0.05,0.7,0.3,0.82,20,400,1E-11,3.5,0.01,0.5,0.1,,,,,,,,,,,,,,,,,,,,,,,,,,,,,,,,,,,,,,,,,,,,,,,,,,,,,,,,,,,,,,,,,,,,,,,,,,,,,,,,,
,,,,,053539,001,2025-03-17_00h40.52.420,Utility_discrimination_2024_2cat,2024.2.4,MacIntel,60.60606061,,,,,,,,1,"[0.5,0.5]","[0.924,0.383]",s,"[0.9602653309338905,0.5]","[0.03973466906610945,0.5]",288.3817,289.9778,1,d,1,0.0711,,0.204022364,0.419026904,0.21500454,289.9796,289.9797,0,123,123,123,1,0.460265331,0.460265331,shape_difference0,1,,TRUE,,intensity,0.1,0.05,0.7,0.3,0.82,20,400,1E-11,3.5,0.01,0.5,0.1,,,,,,,,,,,,,,,,,,,,,,,,,,,,,,,,,,,,,,,,,,,,,,,,,,,,,,,,,,,,,,,,,,,,,,,,,,,,,,,,,
,,,,,053539,001,2025-03-17_00h40.52.420,Utility_discrimination_2024_2cat,2024.2.4,MacIntel,60.60606061,,,,,,,,1,"[0.5,0.5]","[0.924,0.383]",d,"[0.7684164628433864,0.6112592048365985]","[0.23158353715661362,0.38874079516340154]",289.9811,291.9112,1,d,1,0.4006,,0.202913142,0.397818848,0.194905706,291.9131,291.9131,0,124,124,124,1,0.290494007,0.290494007,shape_difference1,1,,TRUE,,intensity,0.1,0.05,0.7,0.3,0.82,20,400,1E-11,3.5,0.01,0.5,0.1,,,,,,,,,,,,,,,,,,,,,,,,,,,,,,,,,,,,,,,,,,,,,,,,,,,,,,,,,,,,,,,,,,,,,,,,,,,,,,,,,
,,,,,053539,001,2025-03-17_00h40.52.420,Utility_discrimination_2024_2cat,2024.2.4,MacIntel,60.60606061,,,,,,,,3,"[0.5,0.5]","[0.383,0.924]",d,"[0.7624493570992721,0.6087858265898498]","[0.23755064290072797,0.39121417341015025]",291.9148,293.9112,1,d,1,0.4667,,0.020304803,0.285116908,0.264812105,293.9138,293.9138,0,125,125,125,1,0.284036101,0.284036101,shape_difference1,1,,TRUE,,intensity,0.1,0.05,0.7,0.3,0.82,20,400,1E-11,3.5,0.01,0.5,0.1,,,,,,,,,,,,,,,,,,,,,,,,,,,,,,,,,,,,,,,,,,,,,,,,,,,,,,,,,,,,,,,,,,,,,,,,,,,,,,,,,
,,,,,053539,001,2025-03-17_00h40.52.420,Utility_discrimination_2024_2cat,2024.2.4,MacIntel,60.60606061,,,,,,,,4,"[0.5,0.5]","[0,1]",d,"[0.5607167377654061,0.64648111147581]","[0.4392832622345939,0.35351888852418994]",293.9148,335.5778,1,s,1,40.1333,,0.046844421,0.363927215,0.317082795,335.5804,335.5805,0,126,126,126,1,0.158529341,0.158529341,shape_difference3,1,,TRUE,,intensity,0.1,0.05,0.7,0.3,0.82,20,400,1E-11,3.5,0.01,0.5,0.1,,,,,,,,,,,,,,,,,,,,,,,,,,,,,,,,,,,,,,,,,,,,,,,,,,,,,,,,,,,,,,,,,,,,,,,,,,,,,,,,,
,,,,,053539,001,2025-03-17_00h40.52.420,Utility_discrimination_2024_2cat,2024.2.4,MacIntel,60.60606061,,,,,,,,0,"[0.5,0.5]","[1,0]",s,"[0.5,0.6853262489100601]","[0.5,0.3146737510899399]",335.5816,339.9944,0,d,0,2.8857,,0.30812188,0.593500119,0.28537824,339.9963,339.9963,0,127,127,127,1,0.185326249,0.185326249,shape_difference4,1,,TRUE,,intensity,0.1,0.05,0.7,0.3,0.82,20,400,1E-11,3.5,0.01,0.5,0.1,,,,,,,,,,,,,,,,,,,,,,,,,,,,,,,,,,,,,,,,,,,,,,,,,,,,,,,,,,,,,,,,,,,,,,,,,,,,,,,,,
,,,,,053539,001,2025-03-17_00h40.52.420,Utility_discrimination_2024_2cat,2024.2.4,MacIntel,60.60606061,,,,,,,,2,"[0.5,0.5]","[0.707,0.707]",s,"[0.9500509905215438,0.5]","[0.04994900947845615,0.5]",339.9981,341.9778,1,d,1,0.4495,,0.203222477,0.396063658,0.192841181,341.9802,341.9802,0,128,128,128,1,0.450050991,0.450050991,shape_difference0,1,,TRUE,,intensity,0.1,0.05,0.7,0.3,0.82,20,400,1E-11,3.5,0.01,0.5,0.1,,,,,,,,,,,,,,,,,,,,,,,,,,,,,,,,,,,,,,,,,,,,,,,,,,,,,,,,,,,,,,,,,,,,,,,,,,,,,,,,,
,,,,,053539,001,2025-03-17_00h40.52.420,Utility_discrimination_2024_2cat,2024.2.4,MacIntel,60.60606061,,,,,,,,1,"[0.5,0.5]","[0.924,0.383]",d,"[0.7052680810550754,0.7052680810550754]","[0.29473191894492456,0.29473191894492456]",341.9812,344.0612,1,d,1,0.5492,,0.201819347,0.392606145,0.190786797,344.0641,344.0642,0,129,129,129,1,0.290336748,0.290336748,shape_difference2,1,,TRUE,,intensity,0.1,0.05,0.7,0.3,0.82,20,400,1E-11,3.5,0.01,0.5,0.1,,,,,,,,,,,,,,,,,,,,,,,,,,,,,,,,,,,,,,,,,,,,,,,,,,,,,,,,,,,,,,,,,,,,,,,,,,,,,,,,,
,,,,,053539,001,2025-03-17_00h40.52.420,Utility_discrimination_2024_2cat,2024.2.4,MacIntel,60.60606061,,,,,,,,4,"[0.5,0.5]","[0,1]",d,"[0.7575929067103374,0.606772817391839]","[0.2424070932896626,0.39322718260816103]",344.0652,346.1945,1,d,1,0.6039,,0.105317793,0.431541594,0.326223801,346.1965,346.1966,0,130,130,130,1,0.278780202,0.278780202,shape_difference1,1,,TRUE,,intensity,0.1,0.05,0.7,0.3,0.82,20,400,1E-11,3.5,0.01,0.5,0.1,,,,,,,,,,,,,,,,,,,,,,,,,,,,,,,,,,,,,,,,,,,,,,,,,,,,,,,,,,,,,,,,,,,,,,,,,,,,,,,,,
,,,,,053539,001,2025-03-17_00h40.52.420,Utility_discrimination_2024_2cat,2024.2.4,MacIntel,60.60606061,,,,,,,,2,"[0.5,0.5]","[0.707,0.707]",d,"[0.5,0.7300357494122849]","[0.5,0.26996425058771506]",346.1977,348.2111,1,d,1,0.4881,,0.202006967,0.392264855,0.190257888,348.2138,348.2138,0,131,131,131,1,0.230035749,0.230035749,shape_difference4,1,,TRUE,,intensity,0.1,0.05,0.7,0.3,0.82,20,400,1E-11,3.5,0.01,0.5,0.1,,,,,,,,,,,,,,,,,,,,,,,,,,,,,,,,,,,,,,,,,,,,,,,,,,,,,,,,,,,,,,,,,,,,,,,,,,,,,,,,,
,,,,,053539,001,2025-03-17_00h40.52.420,Utility_discrimination_2024_2cat,2024.2.4,MacIntel,60.60606061,,,,,,,,0,"[0.5,0.5]","[1,0]",d,"[0.7008342218778478,0.7008342218778478]","[0.29916577812215217,0.29916577812215217]",348.2148,350.2779,1,d,1,0.5329,,0.306103877,0.580984004,0.274880127,350.2798,350.2798,0,132,132,132,1,0.284065377,0.284065377,shape_difference2,1,,TRUE,,intensity,0.1,0.05,0.7,0.3,0.82,20,400,1E-11,3.5,0.01,0.5,0.1,,,,,,,,,,,,,,,,,,,,,,,,,,,,,,,,,,,,,,,,,,,,,,,,,,,,,,,,,,,,,,,,,,,,,,,,,,,,,,,,,
,,,,,053539,001,2025-03-17_00h40.52.420,Utility_discrimination_2024_2cat,2024.2.4,MacIntel,60.60606061,,,,,,,,3,"[0.5,0.5]","[0.383,0.924]",d,"[0.9404104096022281,0.5]","[0.0595895903977719,0.5]",350.2809,352.4103,0,s,0,0.5993,,0.017654876,0.273976025,0.256321149,352.413,352.413,0,133,133,133,1,0.44041041,0.44041041,shape_difference0,1,,TRUE,,intensity,0.1,0.05,0.7,0.3,0.82,20,400,1E-11,3.5,0.01,0.5,0.1,,,,,,,,,,,,,,,,,,,,,,,,,,,,,,,,,,,,,,,,,,,,,,,,,,,,,,,,,,,,,,,,,,,,,,,,,,,,,,,,,
,,,,,053539,001,2025-03-17_00h40.52.420,Utility_discrimination_2024_2cat,2024.2.4,MacIntel,60.60606061,,,,,,,,0,"[0.5,0.5]","[1,0]",d,"[0.5585262061330026,0.6411963824200899]","[0.44147379386699737,0.3588036175799101]",352.414,355.2945,0,s,0,1.3496,,0.317800862,0.598910326,0.281109464,355.2971,355.2972,0,134,134,134,1,0.152809938,0.152809938,shape_difference3,1,,TRUE,,intensity,0.1,0.05,0.7,0.3,0.82,20,400,1E-11,3.5,0.01,0.5,0.1,,,,,,,,,,,,,,,,,,,,,,,,,,,,,,,,,,,,,,,,,,,,,,,,,,,,,,,,,,,,,,,,,,,,,,,,,,,,,,,,,
,,,,,053539,001,2025-03-17_00h40.52.420,Utility_discrimination_2024_2cat,2024.2.4,MacIntel,60.60606061,,,,,,,,3,"[0.5,0.5]","[0.383,0.924]",d,"[0.9636558564372962,0.5]","[0.03634414356270377,0.5]",355.2982,357.4444,1,d,1,0.626,,0.055873969,0.309574265,0.253700296,357.4463,357.4463,0,135,135,135,1,0.463655856,0.463655856,shape_difference0,1,,TRUE,,intensity,0.1,0.05,0.7,0.3,0.82,20,400,1E-11,3.5,0.01,0.5,0.1,,,,,,,,,,,,,,,,,,,,,,,,,,,,,,,,,,,,,,,,,,,,,,,,,,,,,,,,,,,,,,,,,,,,,,,,,,,,,,,,,
,,,,,053539,001,2025-03-17_00h40.52.420,Utility_discrimination_2024_2cat,2024.2.4,MacIntel,60.60606061,,,,,,,,1,"[0.5,0.5]","[0.924,0.383]",d,"[0.5681550157608756,0.6644261999035223]","[0.43184498423912443,0.33557380009647775]",357.4473,359.561,1,s,1,0.5828,,0.200704285,0.387183874,0.186479589,359.5637,359.5637,0,136,136,136,1,0.177950433,0.177950433,shape_difference3,1,,TRUE,,intensity,0.1,0.05,0.7,0.3,0.82,20,400,1E-11,3.5,0.01,0.5,0.1,,,,,,,,,,,,,,,,,,,,,,,,,,,,,,,,,,,,,,,,,,,,,,,,,,,,,,,,,,,,,,,,,,,,,,,,,,,,,,,,,
,,,,,053539,001,2025-03-17_00h40.52.420,Utility_discrimination_2024_2cat,2024.2.4,MacIntel,60.60606061,,,,,,,,2,"[0.5,0.5]","[0.707,0.707]",s,"[0.7535922517098418,0.6051145372347071]","[0.2464077482901582,0.39488546276529285]",359.5648,361.9112,0,d,0,0.8161,,0.200776449,0.388246046,0.187469597,361.9135,361.9136,0,137,137,137,1,0.274450489,0.274450489,shape_difference1,1,,TRUE,,intensity,0.1,0.05,0.7,0.3,0.82,20,400,1E-11,3.5,0.01,0.5,0.1,,,,,,,,,,,,,,,,,,,,,,,,,,,,,,,,,,,,,,,,,,,,,,,,,,,,,,,,,,,,,,,,,,,,,,,,,,,,,,,,,
,,,,,053539,001,2025-03-17_00h40.52.420,Utility_discrimination_2024_2cat,2024.2.4,MacIntel,60.60606061,,,,,,,,4,"[0.5,0.5]","[0,1]",s,"[0.6971549091864608,0.6971549091864608]","[0.3028450908135392,0.3028450908135392]",361.9147,363.9112,1,s,1,0.4669,,0.103330543,0.393603929,0.290273386,363.9139,363.9139,0,138,138,138,1,0.278861258,0.278861258,shape_difference2,1,,TRUE,,intensity,0.1,0.05,0.7,0.3,0.82,20,400,1E-11,3.5,0.01,0.5,0.1,,,,,,,,,,,,,,,,,,,,,,,,,,,,,,,,,,,,,,,,,,,,,,,,,,,,,,,,,,,,,,,,,,,,,,,,,,,,,,,,,
,,,,,053539,001,2025-03-17_00h40.52.420,Utility_discrimination_2024_2cat,2024.2.4,MacIntel,60.60606061,,,,,,,,4,"[0.5,0.5]","[0,1]",s,"[0.5,0.7130694005543958]","[0.5,0.2869305994456042]",363.9149,365.8946,1,s,1,0.4616,,0.101494917,0.373413837,0.271918919,365.8968,365.8968,0,139,139,139,1,0.213069401,0.213069401,shape_difference4,1,,TRUE,,intensity,0.1,0.05,0.7,0.3,0.82,20,400,1E-11,3.5,0.01,0.5,0.1,,,,,,,,,,,,,,,,,,,,,,,,,,,,,,,,,,,,,,,,,,,,,,,,,,,,,,,,,,,,,,,,,,,,,,,,,,,,,,,,,
,,,,,053539,001,2025-03-17_00h40.52.420,Utility_discrimination_2024_2cat,2024.2.4,MacIntel,60.60606061,,,,,,,,0,"[0.5,0.5]","[1,0]",s,"[0.5,0.6970650302689393]","[0.5,0.3029349697310607]",365.8978,367.7779,1,s,1,0.3489,,0.315012551,0.58891227,0.273899719,367.7807,367.7807,0,140,140,140,1,0.19706503,0.19706503,shape_difference4,1,,TRUE,,intensity,0.1,0.05,0.7,0.3,0.82,20,400,1E-11,3.5,0.01,0.5,0.1,,,,,,,,,,,,,,,,,,,,,,,,,,,,,,,,,,,,,,,,,,,,,,,,,,,,,,,,,,,,,,,,,,,,,,,,,,,,,,,,,
,,,,,053539,001,2025-03-17_00h40.52.420,Utility_discrimination_2024_2cat,2024.2.4,MacIntel,60.60606061,,,,,,,,3,"[0.5,0.5]","[0.383,0.924]",s,"[0.9556838497526243,0.5]","[0.044316150247375674,0.5]",367.7818,369.9278,1,d,1,0.6271,,0.046576264,0.294218556,0.247642292,369.9298,369.9299,0,141,141,141,1,0.45568385,0.45568385,shape_difference0,1,,TRUE,,intensity,0.1,0.05,0.7,0.3,0.82,20,400,1E-11,3.5,0.01,0.5,0.1,,,,,,,,,,,,,,,,,,,,,,,,,,,,,,,,,,,,,,,,,,,,,,,,,,,,,,,,,,,,,,,,,,,,,,,,,,,,,,,,,
,,,,,053539,001,2025-03-17_00h40.52.420,Utility_discrimination_2024_2cat,2024.2.4,MacIntel,60.60606061,,,,,,,,2,"[0.5,0.5]","[0.707,0.707]",d,"[0.5659994412539481,0.6592258060539113]","[0.43400055874605187,0.3407741939460886]",369.931,371.828,0,d,0,0.3783,,0.193192415,0.383864048,0.190671633,371.8307,371.8308,0,142,142,142,1,0.172322301,0.172322301,shape_difference3,1,,TRUE,,intensity,0.1,0.05,0.7,0.3,0.82,20,400,1E-11,3.5,0.01,0.5,0.1,,,,,,,,,,,,,,,,,,,,,,,,,,,,,,,,,,,,,,,,,,,,,,,,,,,,,,,,,,,,,,,,,,,,,,,,,,,,,,,,,
,,,,,053539,001,2025-03-17_00h40.52.420,Utility_discrimination_2024_2cat,2024.2.4,MacIntel,60.60606061,,,,,,,,1,"[0.5,0.5]","[0.924,0.383]",s,"[0.6940684961556401,0.6940684961556401]","[0.30593150384435985,0.30593150384435985]",371.8318,374.0277,1,d,1,0.6664,,0.206067471,0.399843997,0.193776526,374.0298,374.0298,0,143,143,143,1,0.274495751,0.274495751,shape_difference2,1,,TRUE,,intensity,0.1,0.05,0.7,0.3,0.82,20,400,1E-11,3.5,0.01,0.5,0.1,,,,,,,,,,,,,,,,,,,,,,,,,,,,,,,,,,,,,,,,,,,,,,,,,,,,,,,,,,,,,,,,,,,,,,,,,,,,,,,,,
,,,,,053539,001,2025-03-17_00h40.52.420,Utility_discrimination_2024_2cat,2024.2.4,MacIntel,60.60606061,,,,,,,,3,"[0.5,0.5]","[0.383,0.924]",d,"[0.7689112452638205,0.6114642932208261]","[0.2310887547361795,0.388535706779174]",374.031,375.8445,1,s,1,0.2846,,0.103658614,0.354926151,0.251267537,375.8473,375.8473,0,144,144,144,1,0.291029486,0.291029486,shape_difference1,1,,TRUE,,intensity,0.1,0.05,0.7,0.3,0.82,20,400,1E-11,3.5,0.01,0.5,0.1,,,,,,,,,,,,,,,,,,,,,,,,,,,,,,,,,,,,,,,,,,,,,,,,,,,,,,,,,,,,,,,,,,,,,,,,,,,,,,,,,
,,,,,053539,001,2025-03-17_00h40.52.420,Utility_discrimination_2024_2cat,2024.2.4,MacIntel,60.60606061,,,,,,,,2,"[0.5,0.5]","[0.707,0.707]",s,"[0.5743874928056051,0.6794622541837575]","[0.42561250719439486,0.3205377458162425]",375.8485,377.7613,1,d,1,0.3828,,0.178133038,0.378955889,0.200822851,377.7635,377.7636,0,145,145,145,1,0.194223219,0.194223219,shape_difference3,1,,TRUE,,intensity,0.1,0.05,0.7,0.3,0.82,20,400,1E-11,3.5,0.01,0.5,0.1,,,,,,,,,,,,,,,,,,,,,,,,,,,,,,,,,,,,,,,,,,,,,,,,,,,,,,,,,,,,,,,,,,,,,,,,,,,,,,,,,
,,,,,053539,001,2025-03-17_00h40.52.420,Utility_discrimination_2024_2cat,2024.2.4,MacIntel,60.60606061,,,,,,,,0,"[0.5,0.5]","[1,0]",d,"[0.6914460930488191,0.6914460930488191]","[0.3085539069511809,0.3085539069511809]",377.7647,379.4779,0,d,0,0.1846,,0.31281154,0.577880318,0.265068778,379.4806,379.4806,0,146,146,146,1,0.270786553,0.270786553,shape_difference2,1,,TRUE,,intensity,0.1,0.05,0.7,0.3,0.82,20,400,1E-11,3.5,0.01,0.5,0.1,,,,,,,,,,,,,,,,,,,,,,,,,,,,,,,,,,,,,,,,,,,,,,,,,,,,,,,,,,,,,,,,,,,,,,,,,,,,,,,,,
,,,,,053539,001,2025-03-17_00h40.52.420,Utility_discrimination_2024_2cat,2024.2.4,MacIntel,60.60606061,,,,,,,,4,"[0.5,0.5]","[0,1]",s,"[0.9482401964081831,0.5]","[0.051759803591816866,0.5]",379.4816,381.0612,0,s,0,0.054,,0.096704232,0.34832312,0.251618888,381.0632,381.0632,0,147,147,147,1,0.448240196,0.448240196,shape_difference0,1,,TRUE,,intensity,0.1,0.05,0.7,0.3,0.82,20,400,1E-11,3.5,0.01,0.5,0.1,,,,,,,,,,,,,,,,,,,,,,,,,,,,,,,,,,,,,,,,,,,,,,,,,,,,,,,,,,,,,,,,,,,,,,,,,,,,,,,,,
,,,,,053539,001,2025-03-17_00h40.52.420,Utility_discrimination_2024_2cat,2024.2.4,MacIntel,60.60606061,,,,,,,,1,"[0.5,0.5]","[0.924,0.383]",d,"[0.5,0.6883590485922682]","[0.5,0.31164095140773185]",381.0644,383.4444,0,s,0,0.8494,,0.205293939,0.395378862,0.190084923,383.447,383.4471,0,148,148,148,1,0.188359049,0.188359049,shape_difference4,1,,TRUE,,intensity,0.1,0.05,0.7,0.3,0.82,20,400,1E-11,3.5,0.01,0.5,0.1,,,,,,,,,,,,,,,,,,,,,,,,,,,,,,,,,,,,,,,,,,,,,,,,,,,,,,,,,,,,,,,,,,,,,,,,,,,,,,,,,
,,,,,053539,001,2025-03-17_00h40.52.420,Utility_discrimination_2024_2cat,2024.2.4,MacIntel,60.60606061,,,,,,,,2,"[0.5,0.5]","[0.707,0.707]",d,"[0.7632477593362865,0.6091167660452357]","[0.23675224066371348,0.3908832339547644]",383.4483,385.4277,1,s,1,0.4494,,0.204939133,0.391169395,0.186230262,385.4298,385.4299,0,149,149,149,1,0.284900172,0.284900172,shape_difference1,1,,TRUE,,intensity,0.1,0.05,0.7,0.3,0.82,20,400,1E-11,3.5,0.01,0.5,0.1,,,,,,,,,,,,,,,,,,,,,,,,,,,,,,,,,,,,,,,,,,,,,,,,,,,,,,,,,,,,,,,,,,,,,,,,,,,,,,,,,
,,,,,053539,001,2025-03-17_00h40.52.420,Utility_discrimination_2024_2cat,2024.2.4,MacIntel,60.60606061,,,,,,,,0,"[0.5,0.5]","[1,0]",s,"[0.7018198936616868,0.7018198936616868]","[0.29818010633831316,0.29818010633831316]",385.4318,387.4278,1,s,1,0.4664,,0.323038333,0.593466147,0.270427813,387.4306,387.4307,0,150,150,150,1,0.285459538,0.285459538,shape_difference2,1,,TRUE,,intensity,0.1,0.05,0.7,0.3,0.82,20,400,1E-11,3.5,0.01,0.5,0.1,,,,,,,,,,,,,,,,,,,,,,,,,,,,,,,,,,,,,,,,,,,,,,,,,,,,,,,,,,,,,,,,,,,,,,,,,,,,,,,,,
,,,,,053539,001,2025-03-17_00h40.52.420,Utility_discrimination_2024_2cat,2024.2.4,MacIntel,60.60606061,,,,,,,,3,"[0.5,0.5]","[0.383,0.924]",s,"[0.9653235202161582,0.5]","[0.03467647978384181,0.5]",387.4317,389.5944,1,d,1,0.6328,,0.102352121,0.326654367,0.224302246,389.5965,389.5965,0,151,151,151,1,0.46532352,0.46532352,shape_difference0,1,,TRUE,,intensity,0.1,0.05,0.7,0.3,0.82,20,400,1E-11,3.5,0.01,0.5,0.1,,,,,,,,,,,,,,,,,,,,,,,,,,,,,,,,,,,,,,,,,,,,,,,,,,,,,,,,,,,,,,,,,,,,,,,,,,,,,,,,,
,,,,,053539,001,2025-03-17_00h40.52.420,Utility_discrimination_2024_2cat,2024.2.4,MacIntel,60.60606061,,,,,,,,4,"[0.5,0.5]","[0,1]",d,"[0.571495592869109,0.6724854512038035]","[0.42850440713089094,0.32751454879619646]",389.5984,391.7278,1,d,1,0.5998,,0.107914167,0.395253043,0.287338876,391.7309,391.731,0,152,152,152,1,0.186672566,0.186672566,shape_difference3,1,,TRUE,,intensity,0.1,0.05,0.7,0.3,0.82,20,400,1E-11,3.5,0.01,0.5,0.1,,,,,,,,,,,,,,,,,,,,,,,,,,,,,,,,,,,,,,,,,,,,,,,,,,,,,,,,,,,,,,,,,,,,,,,,,,,,,,,,,
,,,,,053539,001,2025-03-17_00h40.52.420,Utility_discrimination_2024_2cat,2024.2.4,MacIntel,60.60606061,,,,,,,,1,"[0.5,0.5]","[0.924,0.383]",d,"[0.5,0.7266904825146611]","[0.5,0.27330951748533894]",391.7321,393.811,1,s,1,0.5548,,0.204578884,0.390833405,0.18625452,393.8131,393.8131,0,153,153,153,1,0.226690483,0.226690483,shape_difference4,1,,TRUE,,intensity,0.1,0.05,0.7,0.3,0.82,20,400,1E-11,3.5,0.01,0.5,0.1,,,,,,,,,,,,,,,,,,,,,,,,,,,,,,,,,,,,,,,,,,,,,,,,,,,,,,,,,,,,,,,,,,,,,,,,,,,,,,,,,
,,,,,053539,001,2025-03-17_00h40.52.420,Utility_discrimination_2024_2cat,2024.2.4,MacIntel,60.60606061,,,,,,,,0,"[0.5,0.5]","[1,0]",s,"[0.7586476199669996,0.6072099983196546]","[0.2413523800330004,0.3927900016803454]",393.8146,396.0444,1,d,1,0.6993,,0.319704299,0.584434167,0.264729867,396.0475,396.0476,0,154,154,154,1,0.279921667,0.279921667,shape_difference1,1,,TRUE,,intensity,0.1,0.05,0.7,0.3,0.82,20,400,1E-11,3.5,0.01,0.5,0.1,,,,,,,,,,,,,,,,,,,,,,,,,,,,,,,,,,,,,,,,,,,,,,,,,,,,,,,,,,,,,,,,,,,,,,,,,,,,,,,,,
,,,,,053539,001,2025-03-17_00h40.52.420,Utility_discrimination_2024_2cat,2024.2.4,MacIntel,60.60606061,,,,,,,,2,"[0.5,0.5]","[0.707,0.707]",d,"[0.9589334739557572,0.5]","[0.04106652604424277,0.5]",396.0486,398.0444,0,d,0,0.466,,0.204161835,0.387598537,0.183436701,398.0465,398.0465,0,155,155,155,1,0.458933474,0.458933474,shape_difference0,1,,TRUE,,intensity,0.1,0.05,0.7,0.3,0.82,20,400,1E-11,3.5,0.01,0.5,0.1,,,,,,,,,,,,,,,,,,,,,,,,,,,,,,,,,,,,,,,,,,,,,,,,,,,,,,,,,,,,,,,,,,,,,,,,,,,,,,,,,
,,,,,053539,001,2025-03-17_00h40.52.420,Utility_discrimination_2024_2cat,2024.2.4,MacIntel,60.60606061,,,,,,,,4,"[0.5,0.5]","[0,1]",s,"[0.6982981081061783,0.6982981081061783]","[0.3017018918938216,0.3017018918938216]",398.0476,400.2949,1,d,1,0.7287,,0.10647135,0.377896625,0.271425274,400.2979,400.298,0,156,156,156,1,0.280478229,0.280478229,shape_difference2,1,,TRUE,,intensity,0.1,0.05,0.7,0.3,0.82,20,400,1E-11,3.5,0.01,0.5,0.1,,,,,,,,,,,,,,,,,,,,,,,,,,,,,,,,,,,,,,,,,,,,,,,,,,,,,,,,,,,,,,,,,,,,,,,,,,,,,,,,,
,,,,,053539,001,2025-03-17_00h40.52.420,Utility_discrimination_2024_2cat,2024.2.4,MacIntel,60.60606061,,,,,,,,3,"[0.5,0.5]","[0.383,0.924]",d,"[0.5,0.7117323823575106]","[0.5,0.2882676176424894]",400.299,402.5276,1,d,1,0.7094,,0.101069283,0.298472556,0.197403273,402.5298,402.5298,0,157,157,157,1,0.211732382,0.211732382,shape_difference4,1,,TRUE,,intensity,0.1,0.05,0.7,0.3,0.82,20,400,1E-11,3.5,0.01,0.5,0.1,,,,,,,,,,,,,,,,,,,,,,,,,,,,,,,,,,,,,,,,,,,,,,,,,,,,,,,,,,,,,,,,,,,,,,,,,,,,,,,,,
,,,,,053539,001,2025-03-17_00h40.52.420,Utility_discrimination_2024_2cat,2024.2.4,MacIntel,60.60606061,,,,,,,,1,"[0.5,0.5]","[0.924,0.383]",d,"[0.5691739761023017,0.6668844749830984]","[0.43082602389769836,0.3331155250169015]",402.5315,404.5113,0,s,0,0.4548,,0.203895299,0.386054209,0.18215891,404.5142,404.5142,0,158,158,158,1,0.180610904,0.180610904,shape_difference3,1,,TRUE,,intensity,0.1,0.05,0.7,0.3,0.82,20,400,1E-11,3.5,0.01,0.5,0.1,,,,,,,,,,,,,,,,,,,,,,,,,,,,,,,,,,,,,,,,,,,,,,,,,,,,,,,,,,,,,,,,,,,,,,,,,,,,,,,,,
,,,,,053539,001,2025-03-17_00h40.52.420,Utility_discrimination_2024_2cat,2024.2.4,MacIntel,60.60606061,,,,,,,,0,"[0.5,0.5]","[1,0]",d,"[0.7548820467983249,0.6056491600906477]","[0.24511795320167507,0.3943508399093523]",404.5153,406.3446,1,s,1,0.2997,,0.367208307,0.632310602,0.265102296,406.3467,406.3467,0,159,159,159,1,0.275846371,0.275846371,shape_difference1,1,,TRUE,,intensity,0.1,0.05,0.7,0.3,0.82,20,400,1E-11,3.5,0.01,0.5,0.1,,,,,,,,,,,,,,,,,,,,,,,,,,,,,,,,,,,,,,,,,,,,,,,,,,,,,,,,,,,,,,,,,,,,,,,,,,,,,,,,,
,,,,,053539,001,2025-03-17_00h40.52.420,Utility_discrimination_2024_2cat,2024.2.4,MacIntel,60.60606061,,,,,,,,4,"[0.5,0.5]","[0,1]",s,"[0.9860945678356103,0.5]","[0.013905432164389664,0.5]",406.3479,408.1612,1,s,1,0.2831,,0.105213306,0.356707144,0.251493837,408.1639,408.164,0,160,160,160,1,0.486094568,0.486094568,shape_difference0,1,,TRUE,,intensity,0.1,0.05,0.7,0.3,0.82,20,400,1E-11,3.5,0.01,0.5,0.1,,,,,,,,,,,,,,,,,,,,,,,,,,,,,,,,,,,,,,,,,,,,,,,,,,,,,,,,,,,,,,,,,,,,,,,,,,,,,,,,,
,,,,,053539,001,2025-03-17_00h40.52.420,Utility_discrimination_2024_2cat,2024.2.4,MacIntel,60.60606061,,,,,,,,3,"[0.5,0.5]","[0.383,0.924]",s,"[0.5,0.6973975548108597]","[0.5,0.3026024451891402]",408.165,410.0113,0,s,0,0.3182,,0.107057122,0.360851795,0.253794673,410.0135,410.0135,0,161,161,161,1,0.197397555,0.197397555,shape_difference4,1,,TRUE,,intensity,0.1,0.05,0.7,0.3,0.82,20,400,1E-11,3.5,0.01,0.5,0.1,,,,,,,,,,,,,,,,,,,,,,,,,,,,,,,,,,,,,,,,,,,,,,,,,,,,,,,,,,,,,,,,,,,,,,,,,,,,,,,,,
,,,,,053539,001,2025-03-17_00h40.52.420,Utility_discrimination_2024_2cat,2024.2.4,MacIntel,60.60606061,,,,,,,,1,"[0.5,0.5]","[0.924,0.383]",d,"[0.5786665294384369,0.6897855697157067]","[0.4213334705615631,0.3102144302842933]",410.0145,411.8612,1,s,1,0.3162,,0.203219978,0.380878084,0.177658106,411.864,411.8641,0,162,162,162,1,0.205395638,0.205395638,shape_difference3,1,,TRUE,,intensity,0.1,0.05,0.7,0.3,0.82,20,400,1E-11,3.5,0.01,0.5,0.1,,,,,,,,,,,,,,,,,,,,,,,,,,,,,,,,,,,,,,,,,,,,,,,,,,,,,,,,,,,,,,,,,,,,,,,,,,,,,,,,,
,,,,,053539,001,2025-03-17_00h40.52.420,Utility_discrimination_2024_2cat,2024.2.4,MacIntel,60.60606061,,,,,,,,2,"[0.5,0.5]","[0.707,0.707]",s,"[0.7517737664291699,0.6043607711497533]","[0.24822623357083007,0.39563922885024666]",411.8651,413.6937,1,s,1,0.2997,,0.203401859,0.383689625,0.180287766,413.6958,413.6958,0,163,163,163,1,0.272482431,0.272482431,shape_difference1,1,,TRUE,,intensity,0.1,0.05,0.7,0.3,0.82,20,400,1E-11,3.5,0.01,0.5,0.1,,,,,,,,,,,,,,,,,,,,,,,,,,,,,,,,,,,,,,,,,,,,,,,,,,,,,,,,,,,,,,,,,,,,,,,,,,,,,,,,,
,,,,,053539,001,2025-03-17_00h40.52.420,Utility_discrimination_2024_2cat,2024.2.4,MacIntel,60.60606061,,,,,,,,4,"[0.5,0.5]","[0,1]",s,"[0.6953766530733057,0.6953766530733057]","[0.30462334692669435,0.30462334692669435]",413.6969,415.5112,1,s,1,0.2837,,0.110447382,0.395615615,0.285168233,415.5134,415.5135,0,164,164,164,1,0.276346044,0.276346044,shape_difference2,1,,TRUE,,intensity,0.1,0.05,0.7,0.3,0.82,20,400,1E-11,3.5,0.01,0.5,0.1,,,,,,,,,,,,,,,,,,,,,,,,,,,,,,,,,,,,,,,,,,,,,,,,,,,,,,,,,,,,,,,,,,,,,,,,,,,,,,,,,
,,,,,053539,001,2025-03-17_00h40.52.420,Utility_discrimination_2024_2cat,2024.2.4,MacIntel,60.60606061,,,,,,,,3,"[0.5,0.5]","[0.383,0.924]",s,"[0.5,0.7362471430656555]","[0.5,0.26375285693434447]",415.5145,417.3946,0,s,0,0.3502,,0.106047106,0.336731168,0.230684062,417.3973,417.3974,0,165,165,165,1,0.236247143,0.236247143,shape_difference4,1,,TRUE,,intensity,0.1,0.05,0.7,0.3,0.82,20,400,1E-11,3.5,0.01,0.5,0.1,,,,,,,,,,,,,,,,,,,,,,,,,,,,,,,,,,,,,,,,,,,,,,,,,,,,,,,,,,,,,,,,,,,,,,,,,,,,,,,,,
,,,,,053539,001,2025-03-17_00h40.52.420,Utility_discrimination_2024_2cat,2024.2.4,MacIntel,60.60606061,,,,,,,,1,"[0.5,0.5]","[0.924,0.383]",d,"[0.5744615622991143,0.6796409492542599]","[0.42553843770088573,0.32035905074574006]",417.3985,419.2946,0,d,0,0.3665,,0.202532169,0.375125178,0.172593009,419.2968,419.2968,0,166,166,166,1,0.194416612,0.194416612,shape_difference3,1,,TRUE,,intensity,0.1,0.05,0.7,0.3,0.82,20,400,1E-11,3.5,0.01,0.5,0.1,,,,,,,,,,,,,,,,,,,,,,,,,,,,,,,,,,,,,,,,,,,,,,,,,,,,,,,,,,,,,,,,,,,,,,,,,,,,,,,,,
,,,,,053539,001,2025-03-17_00h40.52.420,Utility_discrimination_2024_2cat,2024.2.4,MacIntel,60.60606061,,,,,,,,0,"[0.5,0.5]","[1,0]",s,"[0.7491839171475753,0.603287273016798]","[0.25081608285242474,0.39671272698320204]",419.2978,421.1279,0,s,0,0.2996,,0.355232575,0.59979211,0.244559534,421.1299,421.1299,0,167,167,167,1,0.269679564,0.269679564,shape_difference1,1,,TRUE,,intensity,0.1,0.05,0.7,0.3,0.82,20,400,1E-11,3.5,0.01,0.5,0.1,,,,,,,,,,,,,,,,,,,,,,,,,,,,,,,,,,,,,,,,,,,,,,,,,,,,,,,,,,,,,,,,,,,,,,,,,,,,,,,,,
,,,,,053539,001,2025-03-17_00h40.52.420,Utility_discrimination_2024_2cat,2024.2.4,MacIntel,60.60606061,,,,,,,,2,"[0.5,0.5]","[0.707,0.707]",d,"[0.9791270107962092,0.5]","[0.02087298920379077,0.5]",421.131,423.194,0,s,0,0.533,,0.202636379,0.379309285,0.176672906,423.1966,423.1966,0,168,168,168,1,0.479127011,0.479127011,shape_difference0,1,,TRUE,,intensity,0.1,0.05,0.7,0.3,0.82,20,400,1E-11,3.5,0.01,0.5,0.1,,,,,,,,,,,,,,,,,,,,,,,,,,,,,,,,,,,,,,,,,,,,,,,,,,,,,,,,,,,,,,,,,,,,,,,,,,,,,,,,,
,,,,,053539,001,2025-03-17_00h40.52.420,Utility_discrimination_2024_2cat,2024.2.4,MacIntel,60.60606061,,,,,,,,3,"[0.5,0.5]","[0.383,0.924]",d,"[0.6929353844615853,0.6929353844615853]","[0.30706461553841463,0.30706461553841463]",423.1975,424.9612,1,s,1,0.2372,,0.110159553,0.38175763,0.271598078,424.9634,424.9634,0,169,169,169,1,0.272893047,0.272893047,shape_difference2,1,,TRUE,,intensity,0.1,0.05,0.7,0.3,0.82,20,400,1E-11,3.5,0.01,0.5,0.1,,,,,,,,,,,,,,,,,,,,,,,,,,,,,,,,,,,,,,,,,,,,,,,,,,,,,,,,,,,,,,,,,,,,,,,,,,,,,,,,,
,,,,,053539,001,2025-03-17_00h40.52.420,Utility_discrimination_2024_2cat,2024.2.4,MacIntel,60.60606061,,,,,,,,1,"[0.5,0.5]","[0.924,0.383]",s,"[0.5881254835412545,0.7126056052013555]","[0.4118745164587455,0.2873943947986445]",424.965,426.5445,0,s,0,0.05,,0.205831791,0.389311499,0.183479708,426.5467,426.5467,0,170,170,170,1,0.230092646,0.230092646,shape_difference3,1,,TRUE,,intensity,0.1,0.05,0.7,0.3,0.82,20,400,1E-11,3.5,0.01,0.5,0.1,,,,,,,,,,,,,,,,,,,,,,,,,,,,,,,,,,,,,,,,,,,,,,,,,,,,,,,,,,,,,,,,,,,,,,,,,,,,,,,,,
,,,,,053539,001,2025-03-17_00h40.52.420,Utility_discrimination_2024_2cat,2024.2.4,MacIntel,60.60606061,,,,,,,,0,"[0.5,0.5]","[1,0]",d,"[0.7591860577232652,0.6074331819350763]","[0.2408139422767348,0.3925668180649236]",426.5479,428.3779,0,s,0,0.2998,,0.40511022,0.664532528,0.259422307,428.3806,428.3807,0,171,171,171,1,0.280504391,0.280504391,shape_difference1,1,,TRUE,,intensity,0.1,0.05,0.7,0.3,0.82,20,400,1E-11,3.5,0.01,0.5,0.1,,,,,,,,,,,,,,,,,,,,,,,,,,,,,,,,,,,,,,,,,,,,,,,,,,,,,,,,,,,,,,,,,,,,,,,,,,,,,,,,,
,,,,,053539,001,2025-03-17_00h40.52.420,Utility_discrimination_2024_2cat,2024.2.4,MacIntel,60.60606061,,,,,,,,2,"[0.5,0.5]","[0.707,0.707]",d,"[1.0090289043366838,0.5]","[-0.009028904336683796,0.5]",428.3818,430.561,0,d,0,0.6492,,0.201844086,0.374303508,0.172459421,430.5632,430.5632,0,172,172,172,1,0.509028904,0.509028904,shape_difference0,1,,TRUE,,intensity,0.1,0.05,0.7,0.3,0.82,20,400,1E-11,3.5,0.01,0.5,0.1,,,,,,,,,,,,,,,,,,,,,,,,,,,,,,,,,,,,,,,,,,,,,,,,,,,,,,,,,,,,,,,,,,,,,,,,,,,,,,,,,
,,,,,053539,001,2025-03-17_00h40.52.420,Utility_discrimination_2024_2cat,2024.2.4,MacIntel,60.60606061,,,,,,,,4,"[0.5,0.5]","[0,1]",s,"[0.6908776049010478,0.6908776049010478]","[0.30912239509895223,0.30912239509895223]",430.565,432.5612,0,s,0,0.4664,,0.117008238,0.459268165,0.342259927,432.5632,432.5632,0,173,173,173,1,0.269982468,0.269982468,shape_difference2,1,,TRUE,,intensity,0.1,0.05,0.7,0.3,0.82,20,400,1E-11,3.5,0.01,0.5,0.1,,,,,,,,,,,,,,,,,,,,,,,,,,,,,,,,,,,,,,,,,,,,,,,,,,,,,,,,,,,,,,,,,,,,,,,,,,,,,,,,,
,,,,,053539,001,2025-03-17_00h40.52.420,Utility_discrimination_2024_2cat,2024.2.4,MacIntel,60.60606061,,,,,,,,1,"[0.5,0.5]","[0.924,0.383]",d,"[0.5,0.7631653272960564]","[0.5,0.2368346727039437]",432.5643,434.4444,1,s,1,0.3495,,0.208067998,0.398695989,0.190627991,434.4472,434.4473,0,174,174,174,1,0.263165327,0.263165327,shape_difference4,1,,TRUE,,intensity,0.1,0.05,0.7,0.3,0.82,20,400,1E-11,3.5,0.01,0.5,0.1,,,,,,,,,,,,,,,,,,,,,,,,,,,,,,,,,,,,,,,,,,,,,,,,,,,,,,,,,,,,,,,,,,,,,,,,,,,,,,,,,
,,,,,053539,001,2025-03-17_00h40.52.420,Utility_discrimination_2024_2cat,2024.2.4,MacIntel,60.60606061,,,,,,,,0,"[0.5,0.5]","[1,0]",s,"[0.775920670478307,0.6143697151441467]","[0.22407932952169302,0.38563028485585327]",434.4484,436.6444,1,d,1,0.6664,,0.411605045,0.695094717,0.283489672,436.6471,436.6471,0,175,175,175,1,0.298615444,0.298615444,shape_difference1,1,,TRUE,,intensity,0.1,0.05,0.7,0.3,0.82,20,400,1E-11,3.5,0.01,0.5,0.1,,,,,,,,,,,,,,,,,,,,,,,,,,,,,,,,,,,,,,,,,,,,,,,,,,,,,,,,,,,,,,,,,,,,,,,,,,,,,,,,,
,,,,,053539,001,2025-03-17_00h40.52.420,Utility_discrimination_2024_2cat,2024.2.4,MacIntel,60.60606061,,,,,,,,3,"[0.5,0.5]","[0.383,0.924]",d,"[1.0446716876014464,0.5]","[-0.04467168760144635,0.5]",436.6482,438.661,1,d,1,0.4825,,0.115765284,0.42475795,0.308992666,438.663,438.663,0,176,176,176,1,0.544671688,0.544671688,shape_difference0,1,,TRUE,,intensity,0.1,0.05,0.7,0.3,0.82,20,400,1E-11,3.5,0.01,0.5,0.1,,,,,,,,,,,,,,,,,,,,,,,,,,,,,,,,,,,,,,,,,,,,,,,,,,,,,,,,,,,,,,,,,,,,,,,,,,,,,,,,,
,,,,,053539,001,2025-03-17_00h40.52.420,Utility_discrimination_2024_2cat,2024.2.4,MacIntel,60.60606061,,,,,,,,4,"[0.5,0.5]","[0,1]",d,"[0.598213462799119,0.7369431844030965]","[0.40178653720088103,0.2630568155969035]",438.6641,440.6944,0,s,0,0.5012,,0.114606299,0.413126791,0.298520492,440.6965,440.6965,0,177,177,177,1,0.256432018,0.256432018,shape_difference3,1,,TRUE,,intensity,0.1,0.05,0.7,0.3,0.82,20,400,1E-11,3.5,0.01,0.5,0.1,,,,,,,,,,,,,,,,,,,,,,,,,,,,,,,,,,,,,,,,,,,,,,,,,,,,,,,,,,,,,,,,,,,,,,,,,,,,,,,,,
,,,,,053539,001,2025-03-17_00h40.52.420,Utility_discrimination_2024_2cat,2024.2.4,MacIntel,60.60606061,,,,,,,,2,"[0.5,0.5]","[0.707,0.707]",d,"[0.5,0.753084036217021]","[0.5,0.24691596378297898]",440.6977,442.4602,0,s,0,0.2343,,0.2056944,0.386923731,0.181229331,442.463,442.4631,0,178,178,178,1,0.253084036,0.253084036,shape_difference4,1,,TRUE,,intensity,0.1,0.05,0.7,0.3,0.82,20,400,1E-11,3.5,0.01,0.5,0.1,,,,,,,,,,,,,,,,,,,,,,,,,,,,,,,,,,,,,,,,,,,,,,,,,,,,,,,,,,,,,,,,,,,,,,,,,,,,,,,,,
,,,,,053539,001,2025-03-17_00h40.52.420,Utility_discrimination_2024_2cat,2024.2.4,MacIntel,60.60606061,,,,,,,,4,"[0.5,0.5]","[0,1]",d,"[0.6989146634498433,0.6989146634498433]","[0.3010853365501567,0.3010853365501567]",442.4641,444.4943,1,d,1,0.4992,,0.147519925,0.516937748,0.369417822,444.4964,444.4964,0,179,179,179,1,0.281350302,0.281350302,shape_difference2,1,,TRUE,,intensity,0.1,0.05,0.7,0.3,0.82,20,400,1E-11,3.5,0.01,0.5,0.1,,,,,,,,,,,,,,,,,,,,,,,,,,,,,,,,,,,,,,,,,,,,,,,,,,,,,,,,,,,,,,,,,,,,,,,,,,,,,,,,,
,,,,,053539,001,2025-03-17_00h40.52.420,Utility_discrimination_2024_2cat,2024.2.4,MacIntel,60.60606061,,,,,,,,2,"[0.5,0.5]","[0.707,0.707]",d,"[0.5,0.7953108391993325]","[0.5,0.20468916080066746]",444.4981,446.0277,0,d,0,0.0004,,0.205166974,0.383334155,0.178167182,446.0307,446.0307,0,180,180,180,1,0.295310839,0.295310839,shape_difference4,1,,TRUE,,intensity,0.1,0.05,0.7,0.3,0.82,20,400,1E-11,3.5,0.01,0.5,0.1,,,,,,,,,,,,,,,,,,,,,,,,,,,,,,,,,,,,,,,,,,,,,,,,,,,,,,,,,,,,,,,,,,,,,,,,,,,,,,,,,
,,,,,053539,001,2025-03-17_00h40.52.420,Utility_discrimination_2024_2cat,2024.2.4,MacIntel,60.60606061,,,,,,,,0,"[0.5,0.5]","[1,0]",s,"[0.6960593017723227,0.6960593017723227]","[0.30394069822767733,0.30394069822767733]",446.0317,447.7599,0,d,0,0.1994,,0.40985206,0.682962307,0.273110247,447.7619,447.7619,0,181,181,181,1,0.277311601,0.277311601,shape_difference2,1,,TRUE,,intensity,0.1,0.05,0.7,0.3,0.82,20,400,1E-11,3.5,0.01,0.5,0.1,,,,,,,,,,,,,,,,,,,,,,,,,,,,,,,,,,,,,,,,,,,,,,,,,,,,,,,,,,,,,,,,,,,,,,,,,,,,,,,,,
,,,,,053539,001,2025-03-17_00h40.52.420,Utility_discrimination_2024_2cat,2024.2.4,MacIntel,60.60606061,,,,,,,,1,"[0.5,0.5]","[0.924,0.383]",s,"[1.0337281753000909,0.5]","[-0.03372817530009087,0.5]",447.763,449.3773,0,s,0,0.093,,0.207415275,0.395256733,0.187841458,449.3792,449.3792,0,182,182,182,1,0.533728175,0.533728175,shape_difference0,1,,TRUE,,intensity,0.1,0.05,0.7,0.3,0.82,20,400,1E-11,3.5,0.01,0.5,0.1,,,,,,,,,,,,,,,,,,,,,,,,,,,,,,,,,,,,,,,,,,,,,,,,,,,,,,,,,,,,,,,,,,,,,,,,,,,,,,,,,
,,,,,053539,001,2025-03-17_00h40.52.420,Utility_discrimination_2024_2cat,2024.2.4,MacIntel,60.60606061,,,,,,,,3,"[0.5,0.5]","[0.383,0.924]",d,"[0.7692965867532233,0.611624018102256]","[0.23070341324677673,0.388375981897744]",449.3801,451.2943,1,s,1,0.3834,,0.152348971,0.527718035,0.375369064,451.2962,451.2962,0,183,183,183,1,0.291446522,0.291446522,shape_difference1,1,,TRUE,,intensity,0.1,0.05,0.7,0.3,0.82,20,400,1E-11,3.5,0.01,0.5,0.1,,,,,,,,,,,,,,,,,,,,,,,,,,,,,,,,,,,,,,,,,,,,,,,,,,,,,,,,,,,,,,,,,,,,,,,,,,,,,,,,,
,,,,,053539,001,2025-03-17_00h40.52.420,Utility_discrimination_2024_2cat,2024.2.4,MacIntel,60.60606061,,,,,,,,1,"[0.5,0.5]","[0.924,0.383]",s,"[0.6140348694405497,0.7751128442899946]","[0.3859651305594503,0.2248871557100054]",451.2981,453.16,1,s,1,0.3336,,0.206869565,0.391751314,0.184881749,453.1622,453.1623,0,184,184,184,1,0.297741173,0.297741173,shape_difference3,1,,TRUE,,intensity,0.1,0.05,0.7,0.3,0.82,20,400,1E-11,3.5,0.01,0.5,0.1,,,,,,,,,,,,,,,,,,,,,,,,,,,,,,,,,,,,,,,,,,,,,,,,,,,,,,,,,,,,,,,,,,,,,,,,,,,,,,,,,
,,,,,053539,001,2025-03-17_00h40.52.420,Utility_discrimination_2024_2cat,2024.2.4,MacIntel,60.60606061,,,,,,,,3,"[0.5,0.5]","[0.383,0.924]",s,"[0.7639143271911641,0.60939305986387]","[0.2360856728088358,0.39060694013613]",453.1633,455.111,0,s,0,0.4205,,0.142076941,0.487558308,0.345481367,455.1136,455.1136,0,185,185,185,1,0.285621566,0.285621566,shape_difference1,1,,TRUE,,intensity,0.1,0.05,0.7,0.3,0.82,20,400,1E-11,3.5,0.01,0.5,0.1,,,,,,,,,,,,,,,,,,,,,,,,,,,,,,,,,,,,,,,,,,,,,,,,,,,,,,,,,,,,,,,,,,,,,,,,,,,,,,,,,
,,,,,053539,001,2025-03-17_00h40.52.420,Utility_discrimination_2024_2cat,2024.2.4,MacIntel,60.60606061,,,,,,,,2,"[0.5,0.5]","[0.707,0.707]",d,"[0.6096896487844673,0.7646298576419003]","[0.3903103512155327,0.23537014235809972]",455.1147,457.2934,0,s,0,0.6508,,0.207448712,0.39211072,0.184662007,457.2963,457.2963,0,186,186,186,1,0.28639595,0.28639595,shape_difference3,1,,TRUE,,intensity,0.1,0.05,0.7,0.3,0.82,20,400,1E-11,3.5,0.01,0.5,0.1,,,,,,,,,,,,,,,,,,,,,,,,,,,,,,,,,,,,,,,,,,,,,,,,,,,,,,,,,,,,,,,,,,,,,,,,,,,,,,,,,
,,,,,053539,001,2025-03-17_00h40.52.420,Utility_discrimination_2024_2cat,2024.2.4,MacIntel,60.60606061,,,,,,,,0,"[0.5,0.5]","[1,0]",d,"[0.7069232667193542,0.7069232667193542]","[0.29307673328064576,0.29307673328064576]",457.2973,459.1443,0,d,0,0.3174,,0.416432096,0.716590319,0.300158222,459.1461,459.1461,0,187,187,187,1,0.292677888,0.292677888,shape_difference2,1,,TRUE,,intensity,0.1,0.05,0.7,0.3,0.82,20,400,1E-11,3.5,0.01,0.5,0.1,,,,,,,,,,,,,,,,,,,,,,,,,,,,,,,,,,,,,,,,,,,,,,,,,,,,,,,,,,,,,,,,,,,,,,,,,,,,,,,,,
,,,,,053539,001,2025-03-17_00h40.52.420,Utility_discrimination_2024_2cat,2024.2.4,MacIntel,60.60606061,,,,,,,,4,"[0.5,0.5]","[0,1]",s,"[1.0595108089199983,0.5]","[-0.05951080891999827,0.5]",459.1472,460.81,0,s,0,0.1355,,0.206798994,0.597287893,0.390488899,460.8127,460.8128,0,188,188,188,1,0.559510809,0.559510809,shape_difference0,1,,TRUE,,intensity,0.1,0.05,0.7,0.3,0.82,20,400,1E-11,3.5,0.01,0.5,0.1,,,,,,,,,,,,,,,,,,,,,,,,,,,,,,,,,,,,,,,,,,,,,,,,,,,,,,,,,,,,,,,,,,,,,,,,,,,,,,,,,
,,,,,053539,001,2025-03-17_00h40.52.420,Utility_discrimination_2024_2cat,2024.2.4,MacIntel,60.60606061,,,,,,,,2,"[0.5,0.5]","[0.707,0.707]",d,"[0.5,0.853599312286903]","[0.5,0.146400687713097]",460.8138,462.3944,0,s,0,0.052,,0.21003168,0.398118039,0.188086359,462.3964,462.3964,0,189,189,189,1,0.353599312,0.353599312,shape_difference4,1,,TRUE,,intensity,0.1,0.05,0.7,0.3,0.82,20,400,1E-11,3.5,0.01,0.5,0.1,,,,,,,,,,,,,,,,,,,,,,,,,,,,,,,,,,,,,,,,,,,,,,,,,,,,,,,,,,,,,,,,,,,,,,,,,,,,,,,,,
,,,,,053539,001,2025-03-17_00h40.52.420,Utility_discrimination_2024_2cat,2024.2.4,MacIntel,60.60606061,,,,,,,,4,"[0.5,0.5]","[0,1]",d,"[0.7268364380422672,0.7268364380422672]","[0.27316356195773284,0.27316356195773284]",462.3976,464.1601,0,s,0,0.2354,,0.241654872,0.720094468,0.478439596,464.1628,464.1628,0,190,190,190,1,0.320843618,0.320843618,shape_difference2,1,,TRUE,,intensity,0.1,0.05,0.7,0.3,0.82,20,400,1E-11,3.5,0.01,0.5,0.1,,,,,,,,,,,,,,,,,,,,,,,,,,,,,,,,,,,,,,,,,,,,,,,,,,,,,,,,,,,,,,,,,,,,,,,,,,,,,,,,,
