Consent.started,Consent.stopped,key_resp.keys,key_resp.rt,key_resp.duration,participant,session,date,expName,psychopyVersion,OS,frameRate,SetupExperiment.started,SetupExperiment.stopped,DiscrimInstructions_Pre.started,DiscrimInstructions_Pre.stopped,KeyboardResponse.keys,KeyboardResponse.rt,KeyboardResponse.duration,feature_index,feature_center,feature_vector,correct_answer,coord1,coord2,DiscriminationTrial.started,DiscriminationTrial.stopped,PreTest.response,Resp_s_or_d.keys,Resp_s_or_d.corr,Resp_s_or_d.rt,Resp_s_or_d.duration,PreTest.CI_lower,PreTest.CI_upper,PreTest.CI_width,CrashPretest_2.started,CrashPretest_2.stopped,PreTest.thisRepN,PreTest.thisTrialN,PreTest.thisN,PreTest.thisIndex,PreTest.ran,PreTest.intensity,intensity,PreTest.label,PreTest.nReps,PreTest.method,PreTest.autoLog,PreTest.seed,PreTest.varName,PreTest.startVal,PreTest.minVal,PreTest.maxVal,PreTest.startValSd,PreTest.pThreshold,PreTest.nTrials,PreTest.maxTrials,PreTest.stopInterval,PreTest.beta,PreTest.delta,PreTest.gamma,PreTest.grain,WelcomeToCategorizationTask.started,WelcomeToCategorizationTask.stopped,PressAnyKey3.keys,PressAnyKey3.rt,PressAnyKey3.duration,shape_coordinates,category_center,category_sigma,subspace_center,subspace_vector1,subspace_vector2,CategorizationTrial.started,CategorizationTrial.stopped,Respond_1or2.keys,Respond_1or2.rt,Respond_1or2.duration,Feedback.started,Feedback.stopped,xcoord,ycoord,shape_coord,numeric_response_minus1,correctness,truecategory,mixture_index,respAifA,respBifA,respAifB,respBifB,trial_number,D,muAx,muAy,muBx,muBy,sigmaA,sigmaB,priorA,priorB,TrialLoop.thisRepN,TrialLoop.thisTrialN,TrialLoop.thisN,TrialLoop.thisIndex,TrialLoop.ran,DiscriminationInstructions_Post.started,DiscriminationInstructions_Post.stopped,key_resp_2.keys,key_resp_2.rt,key_resp_2.duration,PostTest.response,PostTest.CI_lower,PostTest.CI_upper,PostTest.CI_width,CrashPosttest.started,CrashPosttest.stopped,PostTest.thisRepN,PostTest.thisTrialN,PostTest.thisN,PostTest.thisIndex,PostTest.ran,PostTest.intensity,PostTest.label,PostTest.nReps,PostTest.method,PostTest.autoLog,PostTest.seed,PostTest.varName,PostTest.startVal,PostTest.minVal,PostTest.maxVal,PostTest.startValSd,PostTest.pThreshold,PostTest.nTrials,PostTest.maxTrials,PostTest.stopInterval,PostTest.beta,PostTest.delta,PostTest.gamma,PostTest.grain,Thanks.started,Thanks.stopped
0.0001,2.4212,y,2.3823,,059774,001,2025-03-18_22h04.37.229,Utility_discrimination_2024_2cat,2024.2.4,MacIntel,30.03003003,,,,,,,,,,,,,,,,,,,,,,,,,,,,,,,,,,,,,,,,,,,,,,,,,,,,,,,,,,,,,,,,,,,,,,,,,,,,,,,,,,,,,,,,,,,,,,,,,,,,,,,,,,,,,,,,,,,,,,,,,,,,,,,,,,,
,,,,,059774,001,2025-03-18_22h04.37.229,Utility_discrimination_2024_2cat,2024.2.4,MacIntel,30.03003003,2.4216,2.4218,,,,,,,,,,,,,,,,,,,,,,,,,,,,,,,,,,,,,,,,,,,,,,,,,,,,,,,,,,,,,,,,,,,,,,,,,,,,,,,,,,,,,,,,,,,,,,,,,,,,,,,,,,,,,,,,,,,,,,,,,,,,,,,,,
,,,,,059774,001,2025-03-18_22h04.37.229,Utility_discrimination_2024_2cat,2024.2.4,MacIntel,30.03003003,,,2.4219,34.6877,space,32.2323,,,,,,,,,,,,,,,,,,,,,,,,,,,,,,,,,,,,,,,,,,,,,,,,,,,,,,,,,,,,,,,,,,,,,,,,,,,,,,,,,,,,,,,,,,,,,,,,,,,,,,,,,,,,,,,,,,,,,,,,,,,,,
,,,,,059774,001,2025-03-18_22h04.37.229,Utility_discrimination_2024_2cat,2024.2.4,MacIntel,30.03003003,,,,,,,,0,"[0.5,0.5]","[1,0]",,"[0.6185239449756466,0.5]","[0.3814760550243534,0.5]",34.7188,37.3878,0,s,0,1.1418,,-0.447967632,0.547967632,0.995935263,37.3915,37.3916,0,0,0,0,1,0.118523945,0.118523945,shape_difference2,1,,TRUE,,intensity,0.1,0.05,0.7,0.3,0.82,20,400,1E-11,3.5,0.01,0.5,0.1,,,,,,,,,,,,,,,,,,,,,,,,,,,,,,,,,,,,,,,,,,,,,,,,,,,,,,,,,,,,,,,,,,,,,,,,,,,,,,,,,
,,,,,059774,001,2025-03-18_22h04.37.229,Utility_discrimination_2024_2cat,2024.2.4,MacIntel,30.03003003,,,,,,,,1,"[0.5,0.5]","[0.924,0.383]",d,"[0.6185239449756466,0.5]","[0.3814760550243534,0.5]",37.393,40.2871,0,s,0,1.3594,,-0.447967632,0.547967632,0.995935263,40.2893,40.2894,0,1,1,1,1,0.118523945,0.118523945,shape_difference0,1,,TRUE,,intensity,0.1,0.05,0.7,0.3,0.82,20,400,1E-11,3.5,0.01,0.5,0.1,,,,,,,,,,,,,,,,,,,,,,,,,,,,,,,,,,,,,,,,,,,,,,,,,,,,,,,,,,,,,,,,,,,,,,,,,,,,,,,,,
,,,,,059774,001,2025-03-18_22h04.37.229,Utility_discrimination_2024_2cat,2024.2.4,MacIntel,30.03003003,,,,,,,,3,"[0.5,0.5]","[0.383,0.924]",d,"[0.6095161251574974,0.5453946709256726]","[0.3904838748425025,0.4546053290743273]",40.2906,42.8207,1,s,1,0.9657,,-0.447967632,0.547967632,0.995935263,42.8234,42.8234,0,2,2,2,1,0.118523945,0.118523945,shape_difference1,1,,TRUE,,intensity,0.1,0.05,0.7,0.3,0.82,20,400,1E-11,3.5,0.01,0.5,0.1,,,,,,,,,,,,,,,,,,,,,,,,,,,,,,,,,,,,,,,,,,,,,,,,,,,,,,,,,,,,,,,,,,,,,,,,,,,,,,,,,
,,,,,059774,001,2025-03-18_22h04.37.229,Utility_discrimination_2024_2cat,2024.2.4,MacIntel,30.03003003,,,,,,,,4,"[0.5,0.5]","[0,1]",s,"[0.5453946709256726,0.6095161251574974]","[0.4546053290743273,0.3904838748425025]",42.8246,45.2205,1,s,1,0.8503,,-0.447967632,0.547967632,0.995935263,45.224,45.224,0,3,3,3,1,0.118523945,0.118523945,shape_difference3,1,,TRUE,,intensity,0.1,0.05,0.7,0.3,0.82,20,400,1E-11,3.5,0.01,0.5,0.1,,,,,,,,,,,,,,,,,,,,,,,,,,,,,,,,,,,,,,,,,,,,,,,,,,,,,,,,,,,,,,,,,,,,,,,,,,,,,,,,,
,,,,,059774,001,2025-03-18_22h04.37.229,Utility_discrimination_2024_2cat,2024.2.4,MacIntel,30.03003003,,,,,,,,2,"[0.5,0.5]","[0.707,0.707]",s,"[0.5,0.6185239449756466]","[0.5,0.3814760550243534]",45.2251,47.754,1,s,1,0.98,,0.008797352,0.664308158,0.655510806,47.7567,47.7568,0,4,4,4,1,0.118523945,0.118523945,shape_difference4,1,,TRUE,,intensity,0.1,0.05,0.7,0.3,0.82,20,400,1E-11,3.5,0.01,0.5,0.1,,,,,,,,,,,,,,,,,,,,,,,,,,,,,,,,,,,,,,,,,,,,,,,,,,,,,,,,,,,,,,,,,,,,,,,,,,,,,,,,,
,,,,,059774,001,2025-03-18_22h04.37.229,Utility_discrimination_2024_2cat,2024.2.4,MacIntel,30.03003003,,,,,,,,0,"[0.5,0.5]","[1,0]",s,"[0.7295760208722043,0.7295760208722043]","[0.2704239791277957,0.2704239791277957]",47.7586,50.1538,1,s,1,0.8556,,0.008797352,0.664308158,0.655510806,50.1562,50.1562,0,5,5,5,1,0.324718559,0.324718559,shape_difference2,1,,TRUE,,intensity,0.1,0.05,0.7,0.3,0.82,20,400,1E-11,3.5,0.01,0.5,0.1,,,,,,,,,,,,,,,,,,,,,,,,,,,,,,,,,,,,,,,,,,,,,,,,,,,,,,,,,,,,,,,,,,,,,,,,,,,,,,,,,
,,,,,059774,001,2025-03-18_22h04.37.229,Utility_discrimination_2024_2cat,2024.2.4,MacIntel,30.03003003,,,,,,,,4,"[0.5,0.5]","[0,1]",s,"[0.8247185585179694,0.5]","[0.17528144148203062,0.5]",50.1572,52.7207,1,s,1,1.0012,,-0.479157219,0.478510979,0.957668197,52.7245,52.7245,0,6,6,6,1,0.324718559,0.324718559,shape_difference0,1,,TRUE,,intensity,0.1,0.05,0.7,0.3,0.82,20,400,1E-11,3.5,0.01,0.5,0.1,,,,,,,,,,,,,,,,,,,,,,,,,,,,,,,,,,,,,,,,,,,,,,,,,,,,,,,,,,,,,,,,,,,,,,,,,,,,,,,,,
,,,,,059774,001,2025-03-18_22h04.37.229,Utility_discrimination_2024_2cat,2024.2.4,MacIntel,30.03003003,,,,,,,,1,"[0.5,0.5]","[0.924,0.383]",s,"[0.5,0.5370015867235566]","[0.5,0.4629984132764434]",52.7254,55.9871,1,d,1,1.7136,,-0.479157219,0.478510979,0.957668197,55.9895,55.9895,0,7,7,7,1,0.037001587,0.037001587,shape_difference4,1,,TRUE,,intensity,0.1,0.05,0.7,0.3,0.82,20,400,1E-11,3.5,0.01,0.5,0.1,,,,,,,,,,,,,,,,,,,,,,,,,,,,,,,,,,,,,,,,,,,,,,,,,,,,,,,,,,,,,,,,,,,,,,,,,,,,,,,,,
,,,,,059774,001,2025-03-18_22h04.37.229,Utility_discrimination_2024_2cat,2024.2.4,MacIntel,30.03003003,,,,,,,,3,"[0.5,0.5]","[0.383,0.924]",d,"[0.5341894661325662,0.5141716077151222]","[0.46581053386743376,0.48582839228487784]",55.9906,58.4873,1,s,1,0.9486,,-0.479157219,0.478510979,0.957668197,58.4907,58.4907,0,8,8,8,1,0.037001587,0.037001587,shape_difference1,1,,TRUE,,intensity,0.1,0.05,0.7,0.3,0.82,20,400,1E-11,3.5,0.01,0.5,0.1,,,,,,,,,,,,,,,,,,,,,,,,,,,,,,,,,,,,,,,,,,,,,,,,,,,,,,,,,,,,,,,,,,,,,,,,,,,,,,,,,
,,,,,059774,001,2025-03-18_22h04.37.229,Utility_discrimination_2024_2cat,2024.2.4,MacIntel,30.03003003,,,,,,,,1,"[0.5,0.5]","[0.924,0.383]",s,"[0.5141716077151222,0.5341894661325662]","[0.48582839228487784,0.46581053386743376]",58.4917,61.2205,1,s,1,1.1866,,-0.510435314,0.404710629,0.915145943,61.2238,61.2238,0,9,9,9,1,0.037001587,0.037001587,shape_difference3,1,,TRUE,,intensity,0.1,0.05,0.7,0.3,0.82,20,400,1E-11,3.5,0.01,0.5,0.1,,,,,,,,,,,,,,,,,,,,,,,,,,,,,,,,,,,,,,,,,,,,,,,,,,,,,,,,,,,,,,,,,,,,,,,,,,,,,,,,,
,,,,,059774,001,2025-03-18_22h04.37.229,Utility_discrimination_2024_2cat,2024.2.4,MacIntel,30.03003003,,,,,,,,3,"[0.5,0.5]","[0.383,0.924]",s,"[0.46556413669330093,0.48572626012287257]","[0.5344358633066991,0.5142737398771274]",61.2248,63.7539,1,s,1,0.9671,,-0.510435314,0.404710629,0.915145943,63.7566,63.7566,0,10,10,10,1,-0.03726825,-0.03726825,shape_difference1,1,,TRUE,,intensity,0.1,0.05,0.7,0.3,0.82,20,400,1E-11,3.5,0.01,0.5,0.1,,,,,,,,,,,,,,,,,,,,,,,,,,,,,,,,,,,,,,,,,,,,,,,,,,,,,,,,,,,,,,,,,,,,,,,,,,,,,,,,,
,,,,,059774,001,2025-03-18_22h04.37.229,Utility_discrimination_2024_2cat,2024.2.4,MacIntel,30.03003003,,,,,,,,0,"[0.5,0.5]","[1,0]",s,"[0.48572626012287257,0.46556413669330093]","[0.5142737398771274,0.5344358633066991]",63.7577,66.4872,1,d,1,1.1852,,-0.003741292,0.604569979,0.608311271,66.4904,66.4905,0,11,11,11,1,-0.03726825,-0.03726825,shape_difference3,1,,TRUE,,intensity,0.1,0.05,0.7,0.3,0.82,20,400,1E-11,3.5,0.01,0.5,0.1,,,,,,,,,,,,,,,,,,,,,,,,,,,,,,,,,,,,,,,,,,,,,,,,,,,,,,,,,,,,,,,,,,,,,,,,,,,,,,,,,
,,,,,059774,001,2025-03-18_22h04.37.229,Utility_discrimination_2024_2cat,2024.2.4,MacIntel,30.03003003,,,,,,,,2,"[0.5,0.5]","[0.707,0.707]",d,"[0.7748173464265704,0.5]","[0.22518265357342954,0.5]",66.4914,69.1207,1,d,1,1.0806,,-0.003741292,0.604569979,0.608311271,69.1246,69.1246,0,12,12,12,1,0.274817346,0.274817346,shape_difference0,1,,TRUE,,intensity,0.1,0.05,0.7,0.3,0.82,20,400,1E-11,3.5,0.01,0.5,0.1,,,,,,,,,,,,,,,,,,,,,,,,,,,,,,,,,,,,,,,,,,,,,,,,,,,,,,,,,,,,,,,,,,,,,,,,,,,,,,,,,
,,,,,059774,001,2025-03-18_22h04.37.229,Utility_discrimination_2024_2cat,2024.2.4,MacIntel,30.03003003,,,,,,,,4,"[0.5,0.5]","[0,1]",d,"[0.6942958639235853,0.6942958639235853]","[0.30570413607641467,0.30570413607641467]",69.1256,71.7537,1,s,1,1.0789,,-0.510435314,0.404710629,0.915145943,71.756,71.756,0,13,13,13,1,0.274817346,0.274817346,shape_difference2,1,,TRUE,,intensity,0.1,0.05,0.7,0.3,0.82,20,400,1E-11,3.5,0.01,0.5,0.1,,,,,,,,,,,,,,,,,,,,,,,,,,,,,,,,,,,,,,,,,,,,,,,,,,,,,,,,,,,,,,,,,,,,,,,,,,,,,,,,,
,,,,,059774,001,2025-03-18_22h04.37.229,Utility_discrimination_2024_2cat,2024.2.4,MacIntel,30.03003003,,,,,,,,1,"[0.5,0.5]","[0.924,0.383]",s,"[0.5,0.4627317496680746]","[0.5,0.5372682503319254]",71.7569,74.5539,1,s,1,1.2487,,-0.540713527,0.322166073,0.862879599,74.5571,74.5571,0,14,14,14,1,-0.03726825,-0.03726825,shape_difference4,1,,TRUE,,intensity,0.1,0.05,0.7,0.3,0.82,20,400,1E-11,3.5,0.01,0.5,0.1,,,,,,,,,,,,,,,,,,,,,,,,,,,,,,,,,,,,,,,,,,,,,,,,,,,,,,,,,,,,,,,,,,,,,,,,,,,,,,,,,
,,,,,059774,001,2025-03-18_22h04.37.229,Utility_discrimination_2024_2cat,2024.2.4,MacIntel,30.03003003,,,,,,,,4,"[0.5,0.5]","[0,1]",s,"[0.410739142292911,0.4630011812750919]","[0.589260857707089,0.5369988187249081]",74.558,77.2204,1,d,1,1.1212,,-0.540713527,0.322166073,0.862879599,77.2234,77.2234,0,15,15,15,1,-0.09660266,-0.09660266,shape_difference1,1,,TRUE,,intensity,0.1,0.05,0.7,0.3,0.82,20,400,1E-11,3.5,0.01,0.5,0.1,,,,,,,,,,,,,,,,,,,,,,,,,,,,,,,,,,,,,,,,,,,,,,,,,,,,,,,,,,,,,,,,,,,,,,,,,,,,,,,,,
,,,,,059774,001,2025-03-18_22h04.37.229,Utility_discrimination_2024_2cat,2024.2.4,MacIntel,30.03003003,,,,,,,,3,"[0.5,0.5]","[0.383,0.924]",d,"[0.5,0.40339734014384304]","[0.5,0.5966026598561569]",77.2244,79.6539,1,s,1,0.8669,,-0.540713527,0.322166073,0.862879599,79.6573,79.6573,0,16,16,16,1,-0.09660266,-0.09660266,shape_difference4,1,,TRUE,,intensity,0.1,0.05,0.7,0.3,0.82,20,400,1E-11,3.5,0.01,0.5,0.1,,,,,,,,,,,,,,,,,,,,,,,,,,,,,,,,,,,,,,,,,,,,,,,,,,,,,,,,,,,,,,,,,,,,,,,,,,,,,,,,,
,,,,,059774,001,2025-03-18_22h04.37.229,Utility_discrimination_2024_2cat,2024.2.4,MacIntel,30.03003003,,,,,,,,0,"[0.5,0.5]","[1,0]",s,"[0.4630011812750919,0.410739142292911]","[0.5369988187249081,0.589260857707089]",79.6581,82.2535,1,s,1,1.0474,,-0.026700702,0.552121039,0.578821741,82.2566,82.2567,0,17,17,17,1,-0.09660266,-0.09660266,shape_difference3,1,,TRUE,,intensity,0.1,0.05,0.7,0.3,0.82,20,400,1E-11,3.5,0.01,0.5,0.1,,,,,,,,,,,,,,,,,,,,,,,,,,,,,,,,,,,,,,,,,,,,,,,,,,,,,,,,,,,,,,,,,,,,,,,,,,,,,,,,,
,,,,,059774,001,2025-03-18_22h04.37.229,Utility_discrimination_2024_2cat,2024.2.4,MacIntel,30.03003003,,,,,,,,2,"[0.5,0.5]","[0.707,0.707]",s,"[0.7361666255365733,0.5]","[0.26383337446342664,0.5]",82.2575,84.9874,1,d,1,1.1673,,-0.026700702,0.552121039,0.578821741,84.9911,84.9911,0,18,18,18,1,0.236166626,0.236166626,shape_difference0,1,,TRUE,,intensity,0.1,0.05,0.7,0.3,0.82,20,400,1E-11,3.5,0.01,0.5,0.1,,,,,,,,,,,,,,,,,,,,,,,,,,,,,,,,,,,,,,,,,,,,,,,,,,,,,,,,,,,,,,,,,,,,,,,,,,,,,,,,,
,,,,,059774,001,2025-03-18_22h04.37.229,Utility_discrimination_2024_2cat,2024.2.4,MacIntel,30.03003003,,,,,,,,2,"[0.5,0.5]","[0.707,0.707]",d,"[0.6669698042543574,0.6669698042543574]","[0.33303019574564263,0.33303019574564263]",84.9921,87.5871,1,s,1,1.0544,,-0.050981617,0.494068035,0.545049652,87.5893,87.5893,0,19,19,19,1,0.236166626,0.236166626,shape_difference2,1,,TRUE,,intensity,0.1,0.05,0.7,0.3,0.82,20,400,1E-11,3.5,0.01,0.5,0.1,,,,,,,,,,,,,,,,,,,,,,,,,,,,,,,,,,,,,,,,,,,,,,,,,,,,,,,,,,,,,,,,,,,,,,,,,,,,,,,,,
,,,,,059774,001,2025-03-18_22h04.37.229,Utility_discrimination_2024_2cat,2024.2.4,MacIntel,30.03003003,,,,,,,,0,"[0.5,0.5]","[1,0]",s,"[0.6390775312535046,0.6390775312535046]","[0.3609224687464953,0.3609224687464953]",87.5902,91.0206,1,d,1,1.8667,,-0.050981617,0.494068035,0.545049652,91.0245,91.0245,0,20,20,20,1,0.196715037,0.196715037,shape_difference2,1,,TRUE,,intensity,0.1,0.05,0.7,0.3,0.82,20,400,1E-11,3.5,0.01,0.5,0.1,,,,,,,,,,,,,,,,,,,,,,,,,,,,,,,,,,,,,,,,,,,,,,,,,,,,,,,,,,,,,,,,,,,,,,,,,,,,,,,,,
,,,,,059774,001,2025-03-18_22h04.37.229,Utility_discrimination_2024_2cat,2024.2.4,MacIntel,30.03003003,,,,,,,,3,"[0.5,0.5]","[0.383,0.924]",d,"[0.69671503713367,0.5]","[0.30328496286633,0.5]",91.0254,93.5539,1,d,1,0.9801,,-0.569624043,0.240042019,0.809666061,93.5575,93.5575,0,21,21,21,1,0.196715037,0.196715037,shape_difference0,1,,TRUE,,intensity,0.1,0.05,0.7,0.3,0.82,20,400,1E-11,3.5,0.01,0.5,0.1,,,,,,,,,,,,,,,,,,,,,,,,,,,,,,,,,,,,,,,,,,,,,,,,,,,,,,,,,,,,,,,,,,,,,,,,,,,,,,,,,
,,,,,059774,001,2025-03-18_22h04.37.229,Utility_discrimination_2024_2cat,2024.2.4,MacIntel,30.03003003,,,,,,,,4,"[0.5,0.5]","[0,1]",d,"[0.443484497975294,0.36365450686467793]","[0.556515502024706,0.6363454931353221]",93.5585,96.6861,0,s,0,1.5883,,-0.569624043,0.240042019,0.809666061,96.6882,96.6883,0,22,22,22,1,-0.147560058,-0.147560058,shape_difference3,1,,TRUE,,intensity,0.1,0.05,0.7,0.3,0.82,20,400,1E-11,3.5,0.01,0.5,0.1,,,,,,,,,,,,,,,,,,,,,,,,,,,,,,,,,,,,,,,,,,,,,,,,,,,,,,,,,,,,,,,,,,,,,,,,,,,,,,,,,
,,,,,059774,001,2025-03-18_22h04.37.229,Utility_discrimination_2024_2cat,2024.2.4,MacIntel,30.03003003,,,,,,,,1,"[0.5,0.5]","[0.924,0.383]",d,"[0.5,0.35243994249424015]","[0.5,0.6475600575057598]",96.6892,99.3873,1,s,1,1.1343,,-0.569624043,0.240042019,0.809666061,99.3909,99.3909,0,23,23,23,1,-0.147560058,-0.147560058,shape_difference4,1,,TRUE,,intensity,0.1,0.05,0.7,0.3,0.82,20,400,1E-11,3.5,0.01,0.5,0.1,,,,,,,,,,,,,,,,,,,,,,,,,,,,,,,,,,,,,,,,,,,,,,,,,,,,,,,,,,,,,,,,,,,,,,,,,,,,,,,,,
,,,,,059774,001,2025-03-18_22h04.37.229,Utility_discrimination_2024_2cat,2024.2.4,MacIntel,30.03003003,,,,,,,,2,"[0.5,0.5]","[0.707,0.707]",s,"[0.36365450686467793,0.443484497975294]","[0.6363454931353221,0.556515502024706]",99.3919,101.9872,1,s,1,1.0521,,-0.067097964,0.445046575,0.512144539,101.99,101.9901,0,24,24,24,1,-0.147560058,-0.147560058,shape_difference1,1,,TRUE,,intensity,0.1,0.05,0.7,0.3,0.82,20,400,1E-11,3.5,0.01,0.5,0.1,,,,,,,,,,,,,,,,,,,,,,,,,,,,,,,,,,,,,,,,,,,,,,,,,,,,,,,,,,,,,,,,,,,,,,,,,,,,,,,,,
,,,,,059774,001,2025-03-18_22h04.37.229,Utility_discrimination_2024_2cat,2024.2.4,MacIntel,30.03003003,,,,,,,,4,"[0.5,0.5]","[0,1]",s,"[0.6202573175539916,0.6202573175539916]","[0.37974268244600834,0.37974268244600834]",101.991,104.4861,1,d,1,0.9544,,-0.588261172,0.151848651,0.740109824,104.489,104.489,0,25,25,25,1,0.170095216,0.170095216,shape_difference2,1,,TRUE,,intensity,0.1,0.05,0.7,0.3,0.82,20,400,1E-11,3.5,0.01,0.5,0.1,,,,,,,,,,,,,,,,,,,,,,,,,,,,,,,,,,,,,,,,,,,,,,,,,,,,,,,,,,,,,,,,,,,,,,,,,,,,,,,,,
,,,,,059774,001,2025-03-18_22h04.37.229,Utility_discrimination_2024_2cat,2024.2.4,MacIntel,30.03003003,,,,,,,,3,"[0.5,0.5]","[0.383,0.924]",d,"[0.5,0.3089903613102919]","[0.5,0.6910096386897081]",104.4898,106.8205,1,s,1,0.7942,,-0.233083019,0.431441265,0.664524284,106.8241,106.8241,0,26,26,26,1,-0.191009639,-0.191009639,shape_difference4,1,,TRUE,,intensity,0.1,0.05,0.7,0.3,0.82,20,400,1E-11,3.5,0.01,0.5,0.1,,,,,,,,,,,,,,,,,,,,,,,,,,,,,,,,,,,,,,,,,,,,,,,,,,,,,,,,,,,,,,,,,,,,,,,,,,,,,,,,,
,,,,,059774,001,2025-03-18_22h04.37.229,Utility_discrimination_2024_2cat,2024.2.4,MacIntel,30.03003003,,,,,,,,0,"[0.5,0.5]","[1,0]",s,"[0.5117856691014108,0.5284333113569283]","[0.48821433089858923,0.47156668864307166]",106.8251,109.5197,1,s,1,1.1325,,-0.067097964,0.445046575,0.512144539,109.524,109.524,0,27,27,27,1,0.030771982,0.030771982,shape_difference3,1,,TRUE,,intensity,0.1,0.05,0.7,0.3,0.82,20,400,1E-11,3.5,0.01,0.5,0.1,,,,,,,,,,,,,,,,,,,,,,,,,,,,,,,,,,,,,,,,,,,,,,,,,,,,,,,,,,,,,,,,,,,,,,,,,,,,,,,,,
,,,,,059774,001,2025-03-18_22h04.37.229,Utility_discrimination_2024_2cat,2024.2.4,MacIntel,30.03003003,,,,,,,,1,"[0.5,0.5]","[0.924,0.383]",s,"[0.6700952157765088,0.5]","[0.3299047842234913,0.5]",109.5251,111.9528,1,s,1,0.8907,,-0.588261172,0.151848651,0.740109824,111.955,111.955,0,28,28,28,1,0.170095216,0.170095216,shape_difference0,1,,TRUE,,intensity,0.1,0.05,0.7,0.3,0.82,20,400,1E-11,3.5,0.01,0.5,0.1,,,,,,,,,,,,,,,,,,,,,,,,,,,,,,,,,,,,,,,,,,,,,,,,,,,,,,,,,,,,,,,,,,,,,,,,,,,,,,,,,
,,,,,059774,001,2025-03-18_22h04.37.229,Utility_discrimination_2024_2cat,2024.2.4,MacIntel,30.03003003,,,,,,,,2,"[0.5,0.5]","[0.707,0.707]",s,"[0.32350709385070975,0.4268433083818418]","[0.6764929061492903,0.5731566916181582]",111.9561,114.7204,1,d,1,1.2148,,-0.078138993,0.387434732,0.465573725,114.7234,114.7235,0,29,29,29,1,-0.191009639,-0.191009639,shape_difference1,1,,TRUE,,intensity,0.1,0.05,0.7,0.3,0.82,20,400,1E-11,3.5,0.01,0.5,0.1,,,,,,,,,,,,,,,,,,,,,,,,,,,,,,,,,,,,,,,,,,,,,,,,,,,,,,,,,,,,,,,,,,,,,,,,,,,,,,,,,
,,,,,059774,001,2025-03-18_22h04.37.229,Utility_discrimination_2024_2cat,2024.2.4,MacIntel,30.03003003,,,,,,,,0,"[0.5,0.5]","[1,0]",d,"[0.6042140812410881,0.6042140812410881]","[0.3957859187589119,0.3957859187589119]",114.7244,117.5208,1,s,1,1.2343,,-0.078138993,0.387434732,0.465573725,117.5247,117.5247,0,30,30,30,1,0.147403227,0.147403227,shape_difference2,1,,TRUE,,intensity,0.1,0.05,0.7,0.3,0.82,20,400,1E-11,3.5,0.01,0.5,0.1,,,,,,,,,,,,,,,,,,,,,,,,,,,,,,,,,,,,,,,,,,,,,,,,,,,,,,,,,,,,,,,,,,,,,,,,,,,,,,,,,
,,,,,059774,001,2025-03-18_22h04.37.229,Utility_discrimination_2024_2cat,2024.2.4,MacIntel,30.03003003,,,,,,,,4,"[0.5,0.5]","[0,1]",s,"[0.6474032266493467,0.5]","[0.3525967733506533,0.5]",117.5257,120.9872,1,d,1,1.9203,,-0.616056949,0.077962516,0.694019466,120.9897,120.9897,0,31,31,31,1,0.147403227,0.147403227,shape_difference0,1,,TRUE,,intensity,0.1,0.05,0.7,0.3,0.82,20,400,1E-11,3.5,0.01,0.5,0.1,,,,,,,,,,,,,,,,,,,,,,,,,,,,,,,,,,,,,,,,,,,,,,,,,,,,,,,,,,,,,,,,,,,,,,,,,,,,,,,,,
,,,,,059774,001,2025-03-18_22h04.37.229,Utility_discrimination_2024_2cat,2024.2.4,MacIntel,30.03003003,,,,,,,,3,"[0.5,0.5]","[0.383,0.924]",d,"[0.5,0.2663877560171044]","[0.5,0.7336122439828956]",120.9916,124.3206,0,d,0,1.7668,,-0.25333342,0.363948207,0.617281627,124.3246,124.3246,0,32,32,32,1,-0.233612244,-0.233612244,shape_difference4,1,,TRUE,,intensity,0.1,0.05,0.7,0.3,0.82,20,400,1E-11,3.5,0.01,0.5,0.1,,,,,,,,,,,,,,,,,,,,,,,,,,,,,,,,,,,,,,,,,,,,,,,,,,,,,,,,,,,,,,,,,,,,,,,,,,,,,,,,,
,,,,,059774,001,2025-03-18_22h04.37.229,Utility_discrimination_2024_2cat,2024.2.4,MacIntel,30.03003003,,,,,,,,1,"[0.5,0.5]","[0.924,0.383]",s,"[0.49473278210799004,0.48729266492893675]","[0.50526721789201,0.5127073350710633]",124.3258,127.0873,0,s,0,1.204,,-0.616056949,0.077962516,0.694019466,127.0903,127.0903,0,33,33,33,1,-0.013752527,-0.013752527,shape_difference3,1,,TRUE,,intensity,0.1,0.05,0.7,0.3,0.82,20,400,1E-11,3.5,0.01,0.5,0.1,,,,,,,,,,,,,,,,,,,,,,,,,,,,,,,,,,,,,,,,,,,,,,,,,,,,,,,,,,,,,,,,,,,,,,,,,,,,,,,,,
,,,,,059774,001,2025-03-18_22h04.37.229,Utility_discrimination_2024_2cat,2024.2.4,MacIntel,30.03003003,,,,,,,,3,"[0.5,0.5]","[0.383,0.924]",d,"[0.28414228655980445,0.410526510554551]","[0.7158577134401956,0.589473489445449]",127.0913,130.0864,1,s,1,1.4549,,-0.128314068,0.498810923,0.627124991,130.0895,130.0895,0,34,34,34,1,-0.233612244,-0.233612244,shape_difference1,1,,TRUE,,intensity,0.1,0.05,0.7,0.3,0.82,20,400,1E-11,3.5,0.01,0.5,0.1,,,,,,,,,,,,,,,,,,,,,,,,,,,,,,,,,,,,,,,,,,,,,,,,,,,,,,,,,,,,,,,,,,,,,,,,,,,,,,,,,
,,,,,059774,001,2025-03-18_22h04.37.229,Utility_discrimination_2024_2cat,2024.2.4,MacIntel,30.03003003,,,,,,,,1,"[0.5,0.5]","[0.924,0.383]",s,"[0.5453368327200373,0.6093765885987323]","[0.4546631672799627,0.39062341140126766]",130.0905,132.3871,1,s,1,0.7543,,-0.642600146,0.003859163,0.64645931,132.3899,132.3899,0,35,35,35,1,0.118372931,0.118372931,shape_difference3,1,,TRUE,,intensity,0.1,0.05,0.7,0.3,0.82,20,400,1E-11,3.5,0.01,0.5,0.1,,,,,,,,,,,,,,,,,,,,,,,,,,,,,,,,,,,,,,,,,,,,,,,,,,,,,,,,,,,,,,,,,,,,,,,,,,,,,,,,,
,,,,,059774,001,2025-03-18_22h04.37.229,Utility_discrimination_2024_2cat,2024.2.4,MacIntel,30.03003003,,,,,,,,4,"[0.5,0.5]","[0,1]",s,"[0.2508649069187566,0.3967329646643764]","[0.7491350930812434,0.6032670353356236]",132.391,135.053,1,d,1,1.1017,,-0.328175385,0.257447381,0.585622767,135.056,135.056,0,36,36,36,1,-0.269626724,-0.269626724,shape_difference1,1,,TRUE,,intensity,0.1,0.05,0.7,0.3,0.82,20,400,1E-11,3.5,0.01,0.5,0.1,,,,,,,,,,,,,,,,,,,,,,,,,,,,,,,,,,,,,,,,,,,,,,,,,,,,,,,,,,,,,,,,,,,,,,,,,,,,,,,,,
,,,,,059774,001,2025-03-18_22h04.37.229,Utility_discrimination_2024_2cat,2024.2.4,MacIntel,30.03003003,,,,,,,,0,"[0.5,0.5]","[1,0]",d,"[0.5,0.3993668557113039]","[0.5,0.6006331442886961]",135.057,137.7528,0,d,0,1.1575,,-0.090658615,0.352456116,0.443114731,137.7557,137.7557,0,37,37,37,1,-0.100633144,-0.100633144,shape_difference4,1,,TRUE,,intensity,0.1,0.05,0.7,0.3,0.82,20,400,1E-11,3.5,0.01,0.5,0.1,,,,,,,,,,,,,,,,,,,,,,,,,,,,,,,,,,,,,,,,,,,,,,,,,,,,,,,,,,,,,,,,,,,,,,,,,,,,,,,,,
,,,,,059774,001,2025-03-18_22h04.37.229,Utility_discrimination_2024_2cat,2024.2.4,MacIntel,30.03003003,,,,,,,,2,"[0.5,0.5]","[0.707,0.707]",s,"[0.6243517438122936,0.5]","[0.3756482561877064,0.5]",137.7568,140.7538,0,s,0,1.4506,,-0.090658615,0.352456116,0.443114731,140.757,140.7571,0,38,38,38,1,0.124351744,0.124351744,shape_difference0,1,,TRUE,,intensity,0.1,0.05,0.7,0.3,0.82,20,400,1E-11,3.5,0.01,0.5,0.1,,,,,,,,,,,,,,,,,,,,,,,,,,,,,,,,,,,,,,,,,,,,,,,,,,,,,,,,,,,,,,,,,,,,,,,,,,,,,,,,,
,,,,,059774,001,2025-03-18_22h04.37.229,Utility_discrimination_2024_2cat,2024.2.4,MacIntel,30.03003003,,,,,,,,3,"[0.5,0.5]","[0.383,0.924]",d,"[0.5879166828752915,0.5879166828752915]","[0.4120833171247084,0.4120833171247084]",140.7581,144.7196,1,d,1,2.4002,,-0.145692786,0.440847104,0.58653989,144.7225,144.7225,0,39,39,39,1,0.124351744,0.124351744,shape_difference2,1,,TRUE,,intensity,0.1,0.05,0.7,0.3,0.82,20,400,1E-11,3.5,0.01,0.5,0.1,,,,,,,,,,,,,,,,,,,,,,,,,,,,,,,,,,,,,,,,,,,,,,,,,,,,,,,,,,,,,,,,,,,,,,,,,,,,,,,,,
,,,,,059774,001,2025-03-18_22h04.37.229,Utility_discrimination_2024_2cat,2024.2.4,MacIntel,30.03003003,,,,,,,,2,"[0.5,0.5]","[0.707,0.707]",d,"[0.5293482627472587,0.5708036417192349]","[0.47065173725274134,0.429196358280765]",144.7242,147.1538,1,d,1,0.883,,-0.099810016,0.302017827,0.401827843,147.1572,147.1572,0,40,40,40,1,0.076627318,0.076627318,shape_difference3,1,,TRUE,,intensity,0.1,0.05,0.7,0.3,0.82,20,400,1E-11,3.5,0.01,0.5,0.1,,,,,,,,,,,,,,,,,,,,,,,,,,,,,,,,,,,,,,,,,,,,,,,,,,,,,,,,,,,,,,,,,,,,,,,,,,,,,,,,,
,,,,,059774,001,2025-03-18_22h04.37.229,Utility_discrimination_2024_2cat,2024.2.4,MacIntel,30.03003003,,,,,,,,1,"[0.5,0.5]","[0.924,0.383]",d,"[0.5699227452146015,0.5699227452146015]","[0.43007725478539854,0.43007725478539854]",147.1582,149.5537,1,d,1,0.8547,,-0.67113939,-0.036541485,0.634597904,149.5568,149.5568,0,41,41,41,1,0.09890063,0.09890063,shape_difference2,1,,TRUE,,intensity,0.1,0.05,0.7,0.3,0.82,20,400,1E-11,3.5,0.01,0.5,0.1,,,,,,,,,,,,,,,,,,,,,,,,,,,,,,,,,,,,,,,,,,,,,,,,,,,,,,,,,,,,,,,,,,,,,,,,,,,,,,,,,
,,,,,059774,001,2025-03-18_22h04.37.229,Utility_discrimination_2024_2cat,2024.2.4,MacIntel,30.03003003,,,,,,,,0,"[0.5,0.5]","[1,0]",d,"[0.21340159250515794,0.3812043397505146]","[0.786598407494842,0.6187956602494854]",149.5577,151.9873,1,d,1,0.8659,,0.008070822,0.430403835,0.422333013,151.9905,151.9905,0,42,42,42,1,-0.310171437,-0.310171437,shape_difference1,1,,TRUE,,intensity,0.1,0.05,0.7,0.3,0.82,20,400,1E-11,3.5,0.01,0.5,0.1,,,,,,,,,,,,,,,,,,,,,,,,,,,,,,,,,,,,,,,,,,,,,,,,,,,,,,,,,,,,,,,,,,,,,,,,,,,,,,,,,
,,,,,059774,001,2025-03-18_22h04.37.229,Utility_discrimination_2024_2cat,2024.2.4,MacIntel,30.03003003,,,,,,,,4,"[0.5,0.5]","[0,1]",d,"[0.6806970180940667,0.5]","[0.3193029819059333,0.5]",151.9916,154.3539,1,d,1,0.8031,,-0.210955896,0.396014126,0.606970022,154.3577,154.3577,0,43,43,43,1,0.180697018,0.180697018,shape_difference0,1,,TRUE,,intensity,0.1,0.05,0.7,0.3,0.82,20,400,1E-11,3.5,0.01,0.5,0.1,,,,,,,,,,,,,,,,,,,,,,,,,,,,,,,,,,,,,,,,,,,,,,,,,,,,,,,,,,,,,,,,,,,,,,,,,,,,,,,,,
,,,,,059774,001,2025-03-18_22h04.37.229,Utility_discrimination_2024_2cat,2024.2.4,MacIntel,30.03003003,,,,,,,,0,"[0.5,0.5]","[1,0]",d,"[0.5,0.5068159362039097]","[0.5,0.4931840637960903]",154.3587,156.653,1,s,1,0.7333,,0.004441546,0.382823497,0.37838195,156.6574,156.6575,0,44,44,44,1,0.006815936,0.006815936,shape_difference4,1,,TRUE,,intensity,0.1,0.05,0.7,0.3,0.82,20,400,1E-11,3.5,0.01,0.5,0.1,,,,,,,,,,,,,,,,,,,,,,,,,,,,,,,,,,,,,,,,,,,,,,,,,,,,,,,,,,,,,,,,,,,,,,,,,,,,,,,,,
,,,,,059774,001,2025-03-18_22h04.37.229,Utility_discrimination_2024_2cat,2024.2.4,MacIntel,30.03003003,,,,,,,,2,"[0.5,0.5]","[0.707,0.707]",s,"[0.6636995454382429,0.5]","[0.33630045456175706,0.5]",156.6584,159.3208,1,d,1,1.1283,,-0.147620511,0.278358432,0.425978943,159.3231,159.3231,0,45,45,45,1,0.163699545,0.163699545,shape_difference0,1,,TRUE,,intensity,0.1,0.05,0.7,0.3,0.82,20,400,1E-11,3.5,0.01,0.5,0.1,,,,,,,,,,,,,,,,,,,,,,,,,,,,,,,,,,,,,,,,,,,,,,,,,,,,,,,,,,,,,,,,,,,,,,,,,,,,,,,,,
,,,,,059774,001,2025-03-18_22h04.37.229,Utility_discrimination_2024_2cat,2024.2.4,MacIntel,30.03003003,,,,,,,,1,"[0.5,0.5]","[0.924,0.383]",d,"[0.557668204323247,0.557668204323247]","[0.44233179567675296,0.44233179567675296]",159.3241,161.6872,1,d,1,0.8149,,-0.689998991,-0.095065821,0.594933171,161.6907,161.6907,0,46,46,46,1,0.081567474,0.081567474,shape_difference2,1,,TRUE,,intensity,0.1,0.05,0.7,0.3,0.82,20,400,1E-11,3.5,0.01,0.5,0.1,,,,,,,,,,,,,,,,,,,,,,,,,,,,,,,,,,,,,,,,,,,,,,,,,,,,,,,,,,,,,,,,,,,,,,,,,,,,,,,,,
,,,,,059774,001,2025-03-18_22h04.37.229,Utility_discrimination_2024_2cat,2024.2.4,MacIntel,30.03003003,,,,,,,,3,"[0.5,0.5]","[0.383,0.924]",d,"[0.18173126270184758,0.3680769194965451]","[0.8182687372981524,0.6319230805034549]",161.6926,164.3538,0,d,0,1.1143,,-0.157117002,0.369228108,0.52634511,164.3574,164.3574,0,47,47,47,1,-0.344446685,-0.344446685,shape_difference1,1,,TRUE,,intensity,0.1,0.05,0.7,0.3,0.82,20,400,1E-11,3.5,0.01,0.5,0.1,,,,,,,,,,,,,,,,,,,,,,,,,,,,,,,,,,,,,,,,,,,,,,,,,,,,,,,,,,,,,,,,,,,,,,,,,,,,,,,,,
,,,,,059774,001,2025-03-18_22h04.37.229,Utility_discrimination_2024_2cat,2024.2.4,MacIntel,30.03003003,,,,,,,,4,"[0.5,0.5]","[0,1]",s,"[0.5181381442535128,0.5437588649875871]","[0.4818618557464872,0.4562411350124129]",164.3585,166.5872,1,s,1,0.6827,,-0.231705985,0.327007879,0.558713863,166.59,166.5901,0,48,48,48,1,0.047358079,0.047358079,shape_difference3,1,,TRUE,,intensity,0.1,0.05,0.7,0.3,0.82,20,400,1E-11,3.5,0.01,0.5,0.1,,,,,,,,,,,,,,,,,,,,,,,,,,,,,,,,,,,,,,,,,,,,,,,,,,,,,,,,,,,,,,,,,,,,,,,,,,,,,,,,,
,,,,,059774,001,2025-03-18_22h04.37.229,Utility_discrimination_2024_2cat,2024.2.4,MacIntel,30.03003003,,,,,,,,4,"[0.5,0.5]","[0,1]",s,"[0.5,0.47414439477056336]","[0.5,0.5258556052294366]",166.5912,169.0532,0,s,0,0.9184,,-0.140359659,0.47965475,0.620014409,169.0555,169.0555,0,49,49,49,1,-0.025855605,-0.025855605,shape_difference4,1,,TRUE,,intensity,0.1,0.05,0.7,0.3,0.82,20,400,1E-11,3.5,0.01,0.5,0.1,,,,,,,,,,,,,,,,,,,,,,,,,,,,,,,,,,,,,,,,,,,,,,,,,,,,,,,,,,,,,,,,,,,,,,,,,,,,,,,,,
,,,,,059774,001,2025-03-18_22h04.37.229,Utility_discrimination_2024_2cat,2024.2.4,MacIntel,30.03003003,,,,,,,,3,"[0.5,0.5]","[0.383,0.924]",d,"[0.5,0.5940778802783413]","[0.5,0.4059221197216587]",169.0567,171.354,1,s,1,0.7338,,-0.168389717,0.306322352,0.474712069,171.3582,171.3582,0,50,50,50,1,0.09407788,0.09407788,shape_difference4,1,,TRUE,,intensity,0.1,0.05,0.7,0.3,0.82,20,400,1E-11,3.5,0.01,0.5,0.1,,,,,,,,,,,,,,,,,,,,,,,,,,,,,,,,,,,,,,,,,,,,,,,,,,,,,,,,,,,,,,,,,,,,,,,,,,,,,,,,,
,,,,,059774,001,2025-03-18_22h04.37.229,Utility_discrimination_2024_2cat,2024.2.4,MacIntel,30.03003003,,,,,,,,0,"[0.5,0.5]","[1,0]",s,"[0.5077348960126155,0.5186606890748215]","[0.4922651039873846,0.48133931092517845]",171.3591,173.9197,0,s,0,1.0006,,0.00165167,0.343370219,0.34171855,173.9232,173.9232,0,51,51,51,1,0.020195551,0.020195551,shape_difference3,1,,TRUE,,intensity,0.1,0.05,0.7,0.3,0.82,20,400,1E-11,3.5,0.01,0.5,0.1,,,,,,,,,,,,,,,,,,,,,,,,,,,,,,,,,,,,,,,,,,,,,,,,,,,,,,,,,,,,,,,,,,,,,,,,,,,,,,,,,
,,,,,059774,001,2025-03-18_22h04.37.229,Utility_discrimination_2024_2cat,2024.2.4,MacIntel,30.03003003,,,,,,,,1,"[0.5,0.5]","[0.924,0.383]",d,"[0.6488957390783853,0.5]","[0.35110426092161473,0.5]",173.9242,176.3872,0,s,0,0.9167,,-0.440355685,0.041964506,0.482320191,176.3904,176.3904,0,52,52,52,1,0.148895739,0.148895739,shape_difference0,1,,TRUE,,intensity,0.1,0.05,0.7,0.3,0.82,20,400,1E-11,3.5,0.01,0.5,0.1,,,,,,,,,,,,,,,,,,,,,,,,,,,,,,,,,,,,,,,,,,,,,,,,,,,,,,,,,,,,,,,,,,,,,,,,,,,,,,,,,
,,,,,059774,001,2025-03-18_22h04.37.229,Utility_discrimination_2024_2cat,2024.2.4,MacIntel,30.03003003,,,,,,,,2,"[0.5,0.5]","[0.707,0.707]",d,"[0.2949135539018759,0.4149912241822711]","[0.7050864460981241,0.5850087758177289]",176.3914,178.8539,1,s,1,0.9187,,-0.182423137,0.248987787,0.431410924,178.857,178.8571,0,53,53,53,1,-0.221955028,-0.221955028,shape_difference1,1,,TRUE,,intensity,0.1,0.05,0.7,0.3,0.82,20,400,1E-11,3.5,0.01,0.5,0.1,,,,,,,,,,,,,,,,,,,,,,,,,,,,,,,,,,,,,,,,,,,,,,,,,,,,,,,,,,,,,,,,,,,,,,,,,,,,,,,,,
,,,,,059774,001,2025-03-18_22h04.37.229,Utility_discrimination_2024_2cat,2024.2.4,MacIntel,30.03003003,,,,,,,,4,"[0.5,0.5]","[0,1]",s,"[0.5472174466097881,0.5472174466097881]","[0.4527825533902119,0.4527825533902119]",178.8582,181.2864,1,s,1,0.8681,,-0.15360182,0.408502065,0.562103885,181.2894,181.2894,0,54,54,54,1,0.066785639,0.066785639,shape_difference2,1,,TRUE,,intensity,0.1,0.05,0.7,0.3,0.82,20,400,1E-11,3.5,0.01,0.5,0.1,,,,,,,,,,,,,,,,,,,,,,,,,,,,,,,,,,,,,,,,,,,,,,,,,,,,,,,,,,,,,,,,,,,,,,,,,,,,,,,,,
,,,,,059774,001,2025-03-18_22h04.37.229,Utility_discrimination_2024_2cat,2024.2.4,MacIntel,30.03003003,,,,,,,,1,"[0.5,0.5]","[0.924,0.383]",s,"[0.5,0.560308128960834]","[0.5,0.43969187103916596]",181.2904,183.8532,1,s,1,1.0177,,-0.454272147,-0.014128339,0.440143808,183.8554,183.8554,0,55,55,55,1,0.060308129,0.060308129,shape_difference4,1,,TRUE,,intensity,0.1,0.05,0.7,0.3,0.82,20,400,1E-11,3.5,0.01,0.5,0.1,,,,,,,,,,,,,,,,,,,,,,,,,,,,,,,,,,,,,,,,,,,,,,,,,,,,,,,,,,,,,,,,,,,,,,,,,,,,,,,,,
,,,,,059774,001,2025-03-18_22h04.37.229,Utility_discrimination_2024_2cat,2024.2.4,MacIntel,30.03003003,,,,,,,,3,"[0.5,0.5]","[0.383,0.924]",s,"[0.27511425827762465,0.4067843732904007]","[0.7248857417223753,0.5932156267095993]",183.8571,186.1206,1,s,1,0.7004,,-0.092627023,0.418111729,0.510738753,186.1247,186.1247,0,56,56,56,1,-0.243382837,-0.243382837,shape_difference1,1,,TRUE,,intensity,0.1,0.05,0.7,0.3,0.82,20,400,1E-11,3.5,0.01,0.5,0.1,,,,,,,,,,,,,,,,,,,,,,,,,,,,,,,,,,,,,,,,,,,,,,,,,,,,,,,,,,,,,,,,,,,,,,,,,,,,,,,,,
,,,,,059774,001,2025-03-18_22h04.37.229,Utility_discrimination_2024_2cat,2024.2.4,MacIntel,30.03003003,,,,,,,,0,"[0.5,0.5]","[1,0]",s,"[0.5323720415987032,0.5780986068856444]","[0.46762795840129673,0.4219013931143556]",186.1257,188.3538,1,d,1,0.6829,,0.018322373,0.393069041,0.374746668,188.3572,188.3572,0,57,57,57,1,0.084522302,0.084522302,shape_difference3,1,,TRUE,,intensity,0.1,0.05,0.7,0.3,0.82,20,400,1E-11,3.5,0.01,0.5,0.1,,,,,,,,,,,,,,,,,,,,,,,,,,,,,,,,,,,,,,,,,,,,,,,,,,,,,,,,,,,,,,,,,,,,,,,,,,,,,,,,,
,,,,,059774,001,2025-03-18_22h04.37.229,Utility_discrimination_2024_2cat,2024.2.4,MacIntel,30.03003003,,,,,,,,2,"[0.5,0.5]","[0.707,0.707]",d,"[0.6804090762358342,0.5]","[0.31959092376416576,0.5]",188.3581,191.1206,1,s,1,1.201,,-0.215370371,0.208591518,0.423961888,191.1229,191.1229,0,58,58,58,1,0.180409076,0.180409076,shape_difference0,1,,TRUE,,intensity,0.1,0.05,0.7,0.3,0.82,20,400,1E-11,3.5,0.01,0.5,0.1,,,,,,,,,,,,,,,,,,,,,,,,,,,,,,,,,,,,,,,,,,,,,,,,,,,,,,,,,,,,,,,,,,,,,,,,,,,,,,,,,
,,,,,059774,001,2025-03-18_22h04.37.229,Utility_discrimination_2024_2cat,2024.2.4,MacIntel,30.03003003,,,,,,,,2,"[0.5,0.5]","[0.707,0.707]",s,"[0.5378965081612094,0.5378965081612094]","[0.4621034918387906,0.4621034918387906]",191.1241,193.7538,1,s,1,1.0829,,-0.252671645,0.190164887,0.442836532,193.7565,193.7565,0,59,59,59,1,0.05360185,0.05360185,shape_difference2,1,,TRUE,,intensity,0.1,0.05,0.7,0.3,0.82,20,400,1E-11,3.5,0.01,0.5,0.1,,,,,,,,,,,,,,,,,,,,,,,,,,,,,,,,,,,,,,,,,,,,,,,,,,,,,,,,,,,,,,,,,,,,,,,,,,,,,,,,,
,,,,,059774,001,2025-03-18_22h04.37.229,Utility_discrimination_2024_2cat,2024.2.4,MacIntel,30.03003003,,,,,,,,1,"[0.5,0.5]","[0.924,0.383]",s,"[0.529185947049994,0.529185947049994]","[0.470814052950006,0.470814052950006]",193.7583,195.787,1,s,1,0.4937,,-0.464107102,-0.054633173,0.409473929,195.7899,195.7899,0,60,60,60,1,0.041281396,0.041281396,shape_difference2,1,,TRUE,,intensity,0.1,0.05,0.7,0.3,0.82,20,400,1E-11,3.5,0.01,0.5,0.1,,,,,,,,,,,,,,,,,,,,,,,,,,,,,,,,,,,,,,,,,,,,,,,,,,,,,,,,,,,,,,,,,,,,,,,,,,,,,,,,,
,,,,,059774,001,2025-03-18_22h04.37.229,Utility_discrimination_2024_2cat,2024.2.4,MacIntel,30.03003003,,,,,,,,3,"[0.5,0.5]","[0.383,0.924]",s,"[0.2575277045872634,0.39949470871961246]","[0.7424722954127366,0.6005052912803875]",195.7909,198.1206,1,d,1,0.7691,,-0.096056159,0.354753888,0.450810047,198.1242,198.1242,0,61,61,61,1,-0.262415904,-0.262415904,shape_difference1,1,,TRUE,,intensity,0.1,0.05,0.7,0.3,0.82,20,400,1E-11,3.5,0.01,0.5,0.1,,,,,,,,,,,,,,,,,,,,,,,,,,,,,,,,,,,,,,,,,,,,,,,,,,,,,,,,,,,,,,,,,,,,,,,,,,,,,,,,,
,,,,,059774,001,2025-03-18_22h04.37.229,Utility_discrimination_2024_2cat,2024.2.4,MacIntel,30.03003003,,,,,,,,0,"[0.5,0.5]","[1,0]",d,"[0.5238777201483946,0.5576057791569624]","[0.47612227985160543,0.4423942208430376]",198.1252,200.6539,1,s,1,0.967,,0.014609671,0.361964455,0.347354784,200.6569,200.6569,0,62,62,62,1,0.062343917,0.062343917,shape_difference3,1,,TRUE,,intensity,0.1,0.05,0.7,0.3,0.82,20,400,1E-11,3.5,0.01,0.5,0.1,,,,,,,,,,,,,,,,,,,,,,,,,,,,,,,,,,,,,,,,,,,,,,,,,,,,,,,,,,,,,,,,,,,,,,,,,,,,,,,,,
,,,,,059774,001,2025-03-18_22h04.37.229,Utility_discrimination_2024_2cat,2024.2.4,MacIntel,30.03003003,,,,,,,,4,"[0.5,0.5]","[0,1]",s,"[0.6675540423031023,0.5]","[0.33244595769689766,0.5]",200.6579,203.4872,1,d,1,1.2663,,-0.162430563,0.338202987,0.50063355,203.4908,203.4908,0,63,63,63,1,0.167554042,0.167554042,shape_difference0,1,,TRUE,,intensity,0.1,0.05,0.7,0.3,0.82,20,400,1E-11,3.5,0.01,0.5,0.1,,,,,,,,,,,,,,,,,,,,,,,,,,,,,,,,,,,,,,,,,,,,,,,,,,,,,,,,,,,,,,,,,,,,,,,,,,,,,,,,,
,,,,,059774,001,2025-03-18_22h04.37.229,Utility_discrimination_2024_2cat,2024.2.4,MacIntel,30.03003003,,,,,,,,1,"[0.5,0.5]","[0.924,0.383]",d,"[0.5,0.5319184160662758]","[0.5,0.46808158393372423]",203.4918,205.5541,1,d,1,0.499,,-0.47553286,-0.10002081,0.375512049,205.5578,205.5579,0,64,64,64,1,0.031918416,0.031918416,shape_difference4,1,,TRUE,,intensity,0.1,0.05,0.7,0.3,0.82,20,400,1E-11,3.5,0.01,0.5,0.1,,,,,,,,,,,,,,,,,,,,,,,,,,,,,,,,,,,,,,,,,,,,,,,,,,,,,,,,,,,,,,,,,,,,,,,,,,,,,,,,,
,,,,,059774,001,2025-03-18_22h04.37.229,Utility_discrimination_2024_2cat,2024.2.4,MacIntel,30.03003003,,,,,,,,2,"[0.5,0.5]","[0.707,0.707]",d,"[0.2384570565809752,0.3915898838425471]","[0.7615429434190248,0.6084101161574529]",205.5589,207.8538,1,s,1,0.7465,,-0.304046216,0.17829556,0.482341776,207.8556,207.8556,0,65,65,65,1,-0.283055134,-0.283055134,shape_difference1,1,,TRUE,,intensity,0.1,0.05,0.7,0.3,0.82,20,400,1E-11,3.5,0.01,0.5,0.1,,,,,,,,,,,,,,,,,,,,,,,,,,,,,,,,,,,,,,,,,,,,,,,,,,,,,,,,,,,,,,,,,,,,,,,,,,,,,,,,,
,,,,,059774,001,2025-03-18_22h04.37.229,Utility_discrimination_2024_2cat,2024.2.4,MacIntel,30.03003003,,,,,,,,3,"[0.5,0.5]","[0.383,0.924]",s,"[0.518709905518458,0.518709905518458]","[0.4812900944815421,0.4812900944815421]",207.8563,210.8862,0,s,0,1.481,,-0.098609672,0.286358085,0.384967757,210.8887,210.8887,0,66,66,66,1,0.026463798,0.026463798,shape_difference2,1,,TRUE,,intensity,0.1,0.05,0.7,0.3,0.82,20,400,1E-11,3.5,0.01,0.5,0.1,,,,,,,,,,,,,,,,,,,,,,,,,,,,,,,,,,,,,,,,,,,,,,,,,,,,,,,,,,,,,,,,,,,,,,,,,,,,,,,,,
,,,,,059774,001,2025-03-18_22h04.37.229,Utility_discrimination_2024_2cat,2024.2.4,MacIntel,30.03003003,,,,,,,,4,"[0.5,0.5]","[0,1]",d,"[0.5166768255941714,0.540233386028758]","[0.4833231744058286,0.4597666139712419]",210.8903,212.9539,1,s,1,0.512,,-0.171531771,0.279388239,0.45092001,212.9575,212.9576,0,67,67,67,1,0.043542626,0.043542626,shape_difference3,1,,TRUE,,intensity,0.1,0.05,0.7,0.3,0.82,20,400,1E-11,3.5,0.01,0.5,0.1,,,,,,,,,,,,,,,,,,,,,,,,,,,,,,,,,,,,,,,,,,,,,,,,,,,,,,,,,,,,,,,,,,,,,,,,,,,,,,,,,
,,,,,059774,001,2025-03-18_22h04.37.229,Utility_discrimination_2024_2cat,2024.2.4,MacIntel,30.03003003,,,,,,,,0,"[0.5,0.5]","[1,0]",s,"[0.5,0.5034640063654094]","[0.5,0.4965359936345905]",212.9586,215.1539,0,s,0,0.6509,,0.011815714,0.320445128,0.308629414,215.1575,215.1576,0,68,68,68,1,0.003464006,0.003464006,shape_difference4,1,,TRUE,,intensity,0.1,0.05,0.7,0.3,0.82,20,400,1E-11,3.5,0.01,0.5,0.1,,,,,,,,,,,,,,,,,,,,,,,,,,,,,,,,,,,,,,,,,,,,,,,,,,,,,,,,,,,,,,,,,,,,,,,,,,,,,,,,,
,,,,,059774,001,2025-03-18_22h04.37.229,Utility_discrimination_2024_2cat,2024.2.4,MacIntel,30.03003003,,,,,,,,0,"[0.5,0.5]","[1,0]",d,"[0.6564136857868703,0.5]","[0.34358631421312963,0.5]",215.1585,217.6206,1,s,1,0.9095,,0.009656141,0.291989368,0.282333227,217.6239,217.6239,0,69,69,69,1,0.156413686,0.156413686,shape_difference0,1,,TRUE,,intensity,0.1,0.05,0.7,0.3,0.82,20,400,1E-11,3.5,0.01,0.5,0.1,,,,,,,,,,,,,,,,,,,,,,,,,,,,,,,,,,,,,,,,,,,,,,,,,,,,,,,,,,,,,,,,,,,,,,,,,,,,,,,,,
,,,,,059774,001,2025-03-18_22h04.37.229,Utility_discrimination_2024_2cat,2024.2.4,MacIntel,30.03003003,,,,,,,,2,"[0.5,0.5]","[0.707,0.707]",s,"[0.6463052832016786,0.5]","[0.35369471679832143,0.5]",217.6248,219.9871,0,s,0,0.822,,-0.086793546,0.203622264,0.29041581,219.9893,219.9893,0,70,70,70,1,0.146305283,0.146305283,shape_difference0,1,,TRUE,,intensity,0.1,0.05,0.7,0.3,0.82,20,400,1E-11,3.5,0.01,0.5,0.1,,,,,,,,,,,,,,,,,,,,,,,,,,,,,,,,,,,,,,,,,,,,,,,,,,,,,,,,,,,,,,,,,,,,,,,,,,,,,,,,,
,,,,,059774,001,2025-03-18_22h04.37.229,Utility_discrimination_2024_2cat,2024.2.4,MacIntel,30.03003003,,,,,,,,4,"[0.5,0.5]","[0,1]",d,"[0.5455813993802545,0.5455813993802545]","[0.4544186006197455,0.4544186006197455]",219.9903,222.3206,1,s,1,0.7805,,-0.095229126,0.391495119,0.486724245,222.3245,222.3245,0,71,71,71,1,0.064471569,0.064471569,shape_difference2,1,,TRUE,,intensity,0.1,0.05,0.7,0.3,0.82,20,400,1E-11,3.5,0.01,0.5,0.1,,,,,,,,,,,,,,,,,,,,,,,,,,,,,,,,,,,,,,,,,,,,,,,,,,,,,,,,,,,,,,,,,,,,,,,,,,,,,,,,,
,,,,,059774,001,2025-03-18_22h04.37.229,Utility_discrimination_2024_2cat,2024.2.4,MacIntel,30.03003003,,,,,,,,1,"[0.5,0.5]","[0.924,0.383]",s,"[0.5,0.5726572805199893]","[0.5,0.4273427194800107]",222.3256,224.653,1,s,1,0.7675,,-0.483838642,-0.117408882,0.36642976,224.6574,224.6575,0,72,72,72,1,0.072657281,0.072657281,shape_difference4,1,,TRUE,,intensity,0.1,0.05,0.7,0.3,0.82,20,400,1E-11,3.5,0.01,0.5,0.1,,,,,,,,,,,,,,,,,,,,,,,,,,,,,,,,,,,,,,,,,,,,,,,,,,,,,,,,,,,,,,,,,,,,,,,,,,,,,,,,,
,,,,,059774,001,2025-03-18_22h04.37.229,Utility_discrimination_2024_2cat,2024.2.4,MacIntel,30.03003003,,,,,,,,3,"[0.5,0.5]","[0.383,0.924]",s,"[0.21887666798711009,0.38347377038859654]","[0.7811233320128899,0.6165262296114035]",224.6586,226.9872,1,d,1,0.7677,,-0.114167979,0.245393553,0.359561532,226.9901,226.9902,0,73,73,73,1,-0.30424603,-0.30424603,shape_difference1,1,,TRUE,,intensity,0.1,0.05,0.7,0.3,0.82,20,400,1E-11,3.5,0.01,0.5,0.1,,,,,,,,,,,,,,,,,,,,,,,,,,,,,,,,,,,,,,,,,,,,,,,,,,,,,,,,,,,,,,,,,,,,,,,,,,,,,,,,,
,,,,,059774,001,2025-03-18_22h04.37.229,Utility_discrimination_2024_2cat,2024.2.4,MacIntel,30.03003003,,,,,,,,4,"[0.5,0.5]","[0,1]",d,"[0.5098232256831976,0.5236988525620746]","[0.4901767743168024,0.4763011474379254]",226.9913,229.6206,1,s,1,1.0666,,-0.098150784,0.325062461,0.423213245,229.6236,229.6237,0,74,74,74,1,0.025648109,0.025648109,shape_difference3,1,,TRUE,,intensity,0.1,0.05,0.7,0.3,0.82,20,400,1E-11,3.5,0.01,0.5,0.1,,,,,,,,,,,,,,,,,,,,,,,,,,,,,,,,,,,,,,,,,,,,,,,,,,,,,,,,,,,,,,,,,,,,,,,,,,,,,,,,,
,,,,,059774,001,2025-03-18_22h04.37.229,Utility_discrimination_2024_2cat,2024.2.4,MacIntel,30.03003003,,,,,,,,0,"[0.5,0.5]","[1,0]",s,"[0.5,0.5514689648254816]","[0.5,0.4485310351745184]",229.6255,232.5537,1,d,1,1.3946,,0.020220345,0.337123909,0.316903564,232.557,232.557,0,75,75,75,1,0.051468965,0.051468965,shape_difference4,1,,TRUE,,intensity,0.1,0.05,0.7,0.3,0.82,20,400,1E-11,3.5,0.01,0.5,0.1,,,,,,,,,,,,,,,,,,,,,,,,,,,,,,,,,,,,,,,,,,,,,,,,,,,,,,,,,,,,,,,,,,,,,,,,,,,,,,,,,
,,,,,059774,001,2025-03-18_22h04.37.229,Utility_discrimination_2024_2cat,2024.2.4,MacIntel,30.03003003,,,,,,,,1,"[0.5,0.5]","[0.924,0.383]",d,"[0.6688049060994927,0.5]","[0.3311950939005072,0.5]",232.558,234.7537,1,d,1,0.6559,,-0.490053118,-0.139737668,0.35031545,234.7558,234.7559,0,76,76,76,1,0.168804906,0.168804906,shape_difference0,1,,TRUE,,intensity,0.1,0.05,0.7,0.3,0.82,20,400,1E-11,3.5,0.01,0.5,0.1,,,,,,,,,,,,,,,,,,,,,,,,,,,,,,,,,,,,,,,,,,,,,,,,,,,,,,,,,,,,,,,,,,,,,,,,,,,,,,,,,
,,,,,059774,001,2025-03-18_22h04.37.229,Utility_discrimination_2024_2cat,2024.2.4,MacIntel,30.03003003,,,,,,,,3,"[0.5,0.5]","[0.383,0.924]",d,"[0.20571339773797243,0.378017566378402]","[0.7942866022620276,0.621982433621598]",234.757,237.2539,1,s,1,0.9339,,-0.133021795,0.196440453,0.329462248,237.2567,237.2567,0,77,77,77,1,-0.318491994,-0.318491994,shape_difference1,1,,TRUE,,intensity,0.1,0.05,0.7,0.3,0.82,20,400,1E-11,3.5,0.01,0.5,0.1,,,,,,,,,,,,,,,,,,,,,,,,,,,,,,,,,,,,,,,,,,,,,,,,,,,,,,,,,,,,,,,,,,,,,,,,,,,,,,,,,
,,,,,059774,001,2025-03-18_22h04.37.229,Utility_discrimination_2024_2cat,2024.2.4,MacIntel,30.03003003,,,,,,,,2,"[0.5,0.5]","[0.707,0.707]",s,"[0.5024097531180891,0.5058136080446848]","[0.49759024688191095,0.49418639195531516]",237.2578,240.2871,0,s,0,1.4831,,-0.089763423,0.191042412,0.280805835,240.2905,240.2905,0,78,78,78,1,0.006291784,0.006291784,shape_difference3,1,,TRUE,,intensity,0.1,0.05,0.7,0.3,0.82,20,400,1E-11,3.5,0.01,0.5,0.1,,,,,,,,,,,,,,,,,,,,,,,,,,,,,,,,,,,,,,,,,,,,,,,,,,,,,,,,,,,,,,,,,,,,,,,,,,,,,,,,,
,,,,,059774,001,2025-03-18_22h04.37.229,Utility_discrimination_2024_2cat,2024.2.4,MacIntel,30.03003003,,,,,,,,2,"[0.5,0.5]","[0.707,0.707]",d,"[0.5392145071662063,0.5392145071662063]","[0.4607854928337936,0.4607854928337936]",240.2916,242.5871,1,d,1,0.7494,,-0.092144773,0.180381085,0.272525858,242.5891,242.5891,0,79,79,79,1,0.055466064,0.055466064,shape_difference2,1,,TRUE,,intensity,0.1,0.05,0.7,0.3,0.82,20,400,1E-11,3.5,0.01,0.5,0.1,,,,,,,,,,,,,,,,,,,,,,,,,,,,,,,,,,,,,,,,,,,,,,,,,,,,,,,,,,,,,,,,,,,,,,,,,,,,,,,,,
,,,,,059774,001,2025-03-18_22h04.37.229,Utility_discrimination_2024_2cat,2024.2.4,MacIntel,30.03003003,,,,,,,,3,"[0.5,0.5]","[0.383,0.924]",d,"[0.5332635590786411,0.5332635590786411]","[0.46673644092135896,0.46673644092135896]",242.5901,244.7862,1,d,1,0.6481,,-0.090715487,0.285115274,0.37583076,244.7882,244.7882,0,80,80,80,1,0.047048881,0.047048881,shape_difference2,1,,TRUE,,intensity,0.1,0.05,0.7,0.3,0.82,20,400,1E-11,3.5,0.01,0.5,0.1,,,,,,,,,,,,,,,,,,,,,,,,,,,,,,,,,,,,,,,,,,,,,,,,,,,,,,,,,,,,,,,,,,,,,,,,,,,,,,,,,
,,,,,059774,001,2025-03-18_22h04.37.229,Utility_discrimination_2024_2cat,2024.2.4,MacIntel,30.03003003,,,,,,,,0,"[0.5,0.5]","[1,0]",d,"[0.520482654769528,0.5494150731254411]","[0.4795173452304719,0.45058492687455887]",244.7891,246.9874,1,d,1,0.6479,,0.017046991,0.298104187,0.281057196,246.9902,246.9903,0,81,81,81,1,0.053479516,0.053479516,shape_difference3,1,,TRUE,,intensity,0.1,0.05,0.7,0.3,0.82,20,400,1E-11,3.5,0.01,0.5,0.1,,,,,,,,,,,,,,,,,,,,,,,,,,,,,,,,,,,,,,,,,,,,,,,,,,,,,,,,,,,,,,,,,,,,,,,,,,,,,,,,,
,,,,,059774,001,2025-03-18_22h04.37.229,Utility_discrimination_2024_2cat,2024.2.4,MacIntel,30.03003003,,,,,,,,1,"[0.5,0.5]","[0.924,0.383]",d,"[0.6600871421815228,0.5]","[0.33991285781847724,0.5]",246.9913,249.2206,1,d,1,0.6673,,-0.494844826,-0.169624763,0.325220063,249.2237,249.2237,0,82,82,82,1,0.160087142,0.160087142,shape_difference0,1,,TRUE,,intensity,0.1,0.05,0.7,0.3,0.82,20,400,1E-11,3.5,0.01,0.5,0.1,,,,,,,,,,,,,,,,,,,,,,,,,,,,,,,,,,,,,,,,,,,,,,,,,,,,,,,,,,,,,,,,,,,,,,,,,,,,,,,,,
,,,,,059774,001,2025-03-18_22h04.37.229,Utility_discrimination_2024_2cat,2024.2.4,MacIntel,30.03003003,,,,,,,,4,"[0.5,0.5]","[0,1]",d,"[0.1944884510638734,0.37336480168556657]","[0.8055115489361266,0.6266351983144334]",249.2248,251.787,1,s,1,1.0193,,-0.103162876,0.265255246,0.368418122,251.79,251.79,0,83,83,83,1,-0.330640204,-0.330640204,shape_difference1,1,,TRUE,,intensity,0.1,0.05,0.7,0.3,0.82,20,400,1E-11,3.5,0.01,0.5,0.1,,,,,,,,,,,,,,,,,,,,,,,,,,,,,,,,,,,,,,,,,,,,,,,,,,,,,,,,,,,,,,,,,,,,,,,,,,,,,,,,,
,,,,,059774,001,2025-03-18_22h04.37.229,Utility_discrimination_2024_2cat,2024.2.4,MacIntel,30.03003003,,,,,,,,0,"[0.5,0.5]","[1,0]",s,"[0.5,0.5329870436100649]","[0.5,0.4670129563899351]",251.7909,253.8538,1,d,1,0.525,,0.014592626,0.286698233,0.272105607,253.8557,253.8558,0,84,84,84,1,0.032987044,0.032987044,shape_difference4,1,,TRUE,,intensity,0.1,0.05,0.7,0.3,0.82,20,400,1E-11,3.5,0.01,0.5,0.1,,,,,,,,,,,,,,,,,,,,,,,,,,,,,,,,,,,,,,,,,,,,,,,,,,,,,,,,,,,,,,,,,,,,,,,,,,,,,,,,,
,,,,,059774,001,2025-03-18_22h04.37.229,Utility_discrimination_2024_2cat,2024.2.4,MacIntel,30.03003003,,,,,,,,2,"[0.5,0.5]","[0.707,0.707]",d,"[0.6522052530908582,0.5]","[0.3477947469091418,0.5]",253.8569,256.5872,0,s,0,1.1674,,-0.09507569,0.169942429,0.265018119,256.5897,256.5897,0,85,85,85,1,0.152205253,0.152205253,shape_difference0,1,,TRUE,,intensity,0.1,0.05,0.7,0.3,0.82,20,400,1E-11,3.5,0.01,0.5,0.1,,,,,,,,,,,,,,,,,,,,,,,,,,,,,,,,,,,,,,,,,,,,,,,,,,,,,,,,,,,,,,,,,,,,,,,,,,,,,,,,,
,,,,,059774,001,2025-03-18_22h04.37.229,Utility_discrimination_2024_2cat,2024.2.4,MacIntel,30.03003003,,,,,,,,3,"[0.5,0.5]","[0.383,0.924]",d,"[0.5268376218820476,0.5268376218820476]","[0.47316237811795236,0.47316237811795236]",256.5916,259.1529,0,d,0,1.0165,,-0.092650612,0.234443032,0.327093644,259.1561,259.1562,0,86,86,86,1,0.037959861,0.037959861,shape_difference2,1,,TRUE,,intensity,0.1,0.05,0.7,0.3,0.82,20,400,1E-11,3.5,0.01,0.5,0.1,,,,,,,,,,,,,,,,,,,,,,,,,,,,,,,,,,,,,,,,,,,,,,,,,,,,,,,,,,,,,,,,,,,,,,,,,,,,,,,,,
,,,,,059774,001,2025-03-18_22h04.37.229,Utility_discrimination_2024_2cat,2024.2.4,MacIntel,30.03003003,,,,,,,,4,"[0.5,0.5]","[0,1]",s,"[0.515068194041487,0.5363525099068771]","[0.48493180595851304,0.4636474900931229]",259.1573,261.4872,1,s,1,0.7814,,-0.125049808,0.216001247,0.341051055,261.4902,261.4904,0,87,87,87,1,0.039342543,0.039342543,shape_difference3,1,,TRUE,,intensity,0.1,0.05,0.7,0.3,0.82,20,400,1E-11,3.5,0.01,0.5,0.1,,,,,,,,,,,,,,,,,,,,,,,,,,,,,,,,,,,,,,,,,,,,,,,,,,,,,,,,,,,,,,,,,,,,,,,,,,,,,,,,,
,,,,,059774,001,2025-03-18_22h04.37.229,Utility_discrimination_2024_2cat,2024.2.4,MacIntel,30.03003003,,,,,,,,1,"[0.5,0.5]","[0.924,0.383]",s,"[0.5,0.5142033224368774]","[0.5,0.4857966775631226]",261.4914,263.9204,0,s,0,0.8915,,-0.498654869,-0.202265544,0.296389325,263.9224,263.9224,0,88,88,88,1,0.014203322,0.014203322,shape_difference4,1,,TRUE,,intensity,0.1,0.05,0.7,0.3,0.82,20,400,1E-11,3.5,0.01,0.5,0.1,,,,,,,,,,,,,,,,,,,,,,,,,,,,,,,,,,,,,,,,,,,,,,,,,,,,,,,,,,,,,,,,,,,,,,,,,,,,,,,,,
,,,,,059774,001,2025-03-18_22h04.37.229,Utility_discrimination_2024_2cat,2024.2.4,MacIntel,30.03003003,,,,,,,,3,"[0.5,0.5]","[0.383,0.924]",d,"[0.18453533997673388,0.3692392155964167]","[0.8154646600232661,0.6307607844035833]",263.9235,266.4867,1,s,1,1.0175,,-0.094725708,0.194841386,0.289567094,266.4895,266.4895,0,89,89,89,1,-0.34141197,-0.34141197,shape_difference1,1,,TRUE,,intensity,0.1,0.05,0.7,0.3,0.82,20,400,1E-11,3.5,0.01,0.5,0.1,,,,,,,,,,,,,,,,,,,,,,,,,,,,,,,,,,,,,,,,,,,,,,,,,,,,,,,,,,,,,,,,,,,,,,,,,,,,,,,,,
,,,,,059774,001,2025-03-18_22h04.37.229,Utility_discrimination_2024_2cat,2024.2.4,MacIntel,30.03003003,,,,,,,,4,"[0.5,0.5]","[0,1]",s,"[0.5096540038883169,0.5232905994590206]","[0.49034599611168306,0.47670940054097943]",266.4914,268.7537,1,s,1,0.715,,-0.089546562,0.298801826,0.388348387,268.7574,268.7574,0,90,90,90,1,0.025206276,0.025206276,shape_difference3,1,,TRUE,,intensity,0.1,0.05,0.7,0.3,0.82,20,400,1E-11,3.5,0.01,0.5,0.1,,,,,,,,,,,,,,,,,,,,,,,,,,,,,,,,,,,,,,,,,,,,,,,,,,,,,,,,,,,,,,,,,,,,,,,,,,,,,,,,,
,,,,,059774,001,2025-03-18_22h04.37.229,Utility_discrimination_2024_2cat,2024.2.4,MacIntel,30.03003003,,,,,,,,1,"[0.5,0.5]","[0.924,0.383]",s,"[0.5,0.5592993987445751]","[0.5,0.4407006012554248]",268.7585,271.2207,1,d,1,0.8999,,-0.515446496,-0.212459674,0.302986822,271.2237,271.2237,0,91,91,91,1,0.059299399,0.059299399,shape_difference4,1,,TRUE,,intensity,0.1,0.05,0.7,0.3,0.82,20,400,1E-11,3.5,0.01,0.5,0.1,,,,,,,,,,,,,,,,,,,,,,,,,,,,,,,,,,,,,,,,,,,,,,,,,,,,,,,,,,,,,,,,,,,,,,,,,,,,,,,,,
,,,,,059774,001,2025-03-18_22h04.37.229,Utility_discrimination_2024_2cat,2024.2.4,MacIntel,30.03003003,,,,,,,,2,"[0.5,0.5]","[0.707,0.707]",d,"[0.1753370909921032,0.36542652148265753]","[0.8246629090078967,0.6345734785173425]",271.2248,273.5204,1,d,1,0.7593,,-0.082615817,0.1889467,0.271562517,273.5225,273.5225,0,92,92,92,1,-0.351366785,-0.351366785,shape_difference1,1,,TRUE,,intensity,0.1,0.05,0.7,0.3,0.82,20,400,1E-11,3.5,0.01,0.5,0.1,,,,,,,,,,,,,,,,,,,,,,,,,,,,,,,,,,,,,,,,,,,,,,,,,,,,,,,,,,,,,,,,,,,,,,,,,,,,,,,,,
,,,,,059774,001,2025-03-18_22h04.37.229,Utility_discrimination_2024_2cat,2024.2.4,MacIntel,30.03003003,,,,,,,,0,"[0.5,0.5]","[1,0]",d,"[0.5423427786578423,0.5423427786578423]","[0.4576572213421577,0.4576572213421577]",273.5236,276.6864,1,s,1,1.6157,,0.049386449,0.359878638,0.310492189,276.6887,276.6887,0,93,93,93,1,0.059890776,0.059890776,shape_difference2,1,,TRUE,,intensity,0.1,0.05,0.7,0.3,0.82,20,400,1E-11,3.5,0.01,0.5,0.1,,,,,,,,,,,,,,,,,,,,,,,,,,,,,,,,,,,,,,,,,,,,,,,,,,,,,,,,,,,,,,,,,,,,,,,,,,,,,,,,,
,,,,,059774,001,2025-03-18_22h04.37.229,Utility_discrimination_2024_2cat,2024.2.4,MacIntel,30.03003003,,,,,,,,0,"[0.5,0.5]","[1,0]",s,"[0.6862842414154471,0.5]","[0.31371575858455286,0.5]",276.6909,279.7871,1,s,1,1.5437,,0.040570839,0.328204895,0.287634056,279.7898,279.7899,0,94,94,94,1,0.186284241,0.186284241,shape_difference0,1,,TRUE,,intensity,0.1,0.05,0.7,0.3,0.82,20,400,1E-11,3.5,0.01,0.5,0.1,,,,,,,,,,,,,,,,,,,,,,,,,,,,,,,,,,,,,,,,,,,,,,,,,,,,,,,,,,,,,,,,,,,,,,,,,,,,,,,,,
,,,,,059774,001,2025-03-18_22h04.37.229,Utility_discrimination_2024_2cat,2024.2.4,MacIntel,30.03003003,,,,,,,,4,"[0.5,0.5]","[0,1]",s,"[0.678220287915886,0.5]","[0.32177971208411404,0.5]",279.7907,282.153,1,d,1,0.8025,,-0.091692311,0.253284359,0.34497667,282.1559,282.156,0,95,95,95,1,0.178220288,0.178220288,shape_difference0,1,,TRUE,,intensity,0.1,0.05,0.7,0.3,0.82,20,400,1E-11,3.5,0.01,0.5,0.1,,,,,,,,,,,,,,,,,,,,,,,,,,,,,,,,,,,,,,,,,,,,,,,,,,,,,,,,,,,,,,,,,,,,,,,,,,,,,,,,,
,,,,,059774,001,2025-03-18_22h04.37.229,Utility_discrimination_2024_2cat,2024.2.4,MacIntel,30.03003003,,,,,,,,1,"[0.5,0.5]","[0.924,0.383]",d,"[0.5,0.5447897322349305]","[0.5,0.45521026776506945]",282.1571,284.7863,1,s,1,1.0673,,-0.550872164,-0.222347275,0.328524889,284.7889,284.7889,0,96,96,96,1,0.044789732,0.044789732,shape_difference4,1,,TRUE,,intensity,0.1,0.05,0.7,0.3,0.82,20,400,1E-11,3.5,0.01,0.5,0.1,,,,,,,,,,,,,,,,,,,,,,,,,,,,,,,,,,,,,,,,,,,,,,,,,,,,,,,,,,,,,,,,,,,,,,,,,,,,,,,,,
,,,,,059774,001,2025-03-18_22h04.37.229,Utility_discrimination_2024_2cat,2024.2.4,MacIntel,30.03003003,,,,,,,,3,"[0.5,0.5]","[0.383,0.924]",s,"[0.165256806359508,0.3612482216836489]","[0.834743193640492,0.6387517783163511]",284.7908,287.0872,1,d,1,0.7451,,-0.09657929,0.176502966,0.273082256,287.0908,287.0908,0,97,97,97,1,-0.362276184,-0.362276184,shape_difference1,1,,TRUE,,intensity,0.1,0.05,0.7,0.3,0.82,20,400,1E-11,3.5,0.01,0.5,0.1,,,,,,,,,,,,,,,,,,,,,,,,,,,,,,,,,,,,,,,,,,,,,,,,,,,,,,,,,,,,,,,,,,,,,,,,,,,,,,,,,
,,,,,059774,001,2025-03-18_22h04.37.229,Utility_discrimination_2024_2cat,2024.2.4,MacIntel,30.03003003,,,,,,,,2,"[0.5,0.5]","[0.707,0.707]",d,"[0.5037537705802113,0.5090560940368544]","[0.49624622941978874,0.4909439059631457]",287.0918,289.4537,1,d,1,0.8245,,-0.085234284,0.179326446,0.264560731,289.4565,289.4565,0,98,98,98,1,0.009800968,0.009800968,shape_difference3,1,,TRUE,,intensity,0.1,0.05,0.7,0.3,0.82,20,400,1E-11,3.5,0.01,0.5,0.1,,,,,,,,,,,,,,,,,,,,,,,,,,,,,,,,,,,,,,,,,,,,,,,,,,,,,,,,,,,,,,,,,,,,,,,,,,,,,,,,,
,,,,,059774,001,2025-03-18_22h04.37.229,Utility_discrimination_2024_2cat,2024.2.4,MacIntel,30.03003003,,,,,,,,4,"[0.5,0.5]","[0,1]",d,"[0.5374639269240147,0.5374639269240147]","[0.4625360730759853,0.4625360730759853]",289.4576,291.7204,1,d,1,0.725,,-0.093877525,0.206891914,0.300769439,291.7223,291.7224,0,99,99,99,1,0.052989996,0.052989996,shape_difference2,1,,TRUE,,intensity,0.1,0.05,0.7,0.3,0.82,20,400,1E-11,3.5,0.01,0.5,0.1,,,,,,,,,,,,,,,,,,,,,,,,,,,,,,,,,,,,,,,,,,,,,,,,,,,,,,,,,,,,,,,,,,,,,,,,,,,,,,,,,
,,,,,059774,001,2025-03-18_22h04.37.229,Utility_discrimination_2024_2cat,2024.2.4,MacIntel,30.03003003,,,,,,,,0,"[0.5,0.5]","[1,0]",d,"[0.5,0.5308911221079725]","[0.5,0.4691088778920275]",291.7233,294.1861,0,d,0,0.9218,,0.033855079,0.297574381,0.263719301,294.188,294.188,0,100,100,100,1,0.030891122,0.030891122,shape_difference4,1,,TRUE,,intensity,0.1,0.05,0.7,0.3,0.82,20,400,1E-11,3.5,0.01,0.5,0.1,,,,,,,,,,,,,,,,,,,,,,,,,,,,,,,,,,,,,,,,,,,,,,,,,,,,,,,,,,,,,,,,,,,,,,,,,,,,,,,,,
,,,,,059774,001,2025-03-18_22h04.37.229,Utility_discrimination_2024_2cat,2024.2.4,MacIntel,30.03003003,,,,,,,,3,"[0.5,0.5]","[0.383,0.924]",s,"[0.671503124203204,0.5]","[0.328496875796796,0.5]",294.1897,296.4873,0,s,0,0.7617,,-0.098310565,0.154031647,0.252342212,296.4906,296.4906,0,101,101,101,1,0.171503124,0.171503124,shape_difference0,1,,TRUE,,intensity,0.1,0.05,0.7,0.3,0.82,20,400,1E-11,3.5,0.01,0.5,0.1,,,,,,,,,,,,,,,,,,,,,,,,,,,,,,,,,,,,,,,,,,,,,,,,,,,,,,,,,,,,,,,,,,,,,,,,,,,,,,,,,
,,,,,059774,001,2025-03-18_22h04.37.229,Utility_discrimination_2024_2cat,2024.2.4,MacIntel,30.03003003,,,,,,,,1,"[0.5,0.5]","[0.924,0.383]",d,"[0.49846826573660796,0.4963046410982396]","[0.501531734263392,0.5036953589017604]",296.4916,299.4861,0,s,0,1.4504,,-0.577117964,-0.234797014,0.34232095,299.4897,299.4897,0,102,102,102,1,-0.003999306,-0.003999306,shape_difference3,1,,TRUE,,intensity,0.1,0.05,0.7,0.3,0.82,20,400,1E-11,3.5,0.01,0.5,0.1,,,,,,,,,,,,,,,,,,,,,,,,,,,,,,,,,,,,,,,,,,,,,,,,,,,,,,,,,,,,,,,,,,,,,,,,,,,,,,,,,
,,,,,059774,001,2025-03-18_22h04.37.229,Utility_discrimination_2024_2cat,2024.2.4,MacIntel,30.03003003,,,,,,,,2,"[0.5,0.5]","[0.707,0.707]",d,"[0.15386824877013255,0.3565276399122952]","[0.8461317512298674,0.6434723600877048]",299.4907,303.0204,1,s,1,1.9814,,-0.087334813,0.168275172,0.255609985,303.0225,303.0225,0,103,103,103,1,-0.374601462,-0.374601462,shape_difference1,1,,TRUE,,intensity,0.1,0.05,0.7,0.3,0.82,20,400,1E-11,3.5,0.01,0.5,0.1,,,,,,,,,,,,,,,,,,,,,,,,,,,,,,,,,,,,,,,,,,,,,,,,,,,,,,,,,,,,,,,,,,,,,,,,,,,,,,,,,
,,,,,059774,001,2025-03-18_22h04.37.229,Utility_discrimination_2024_2cat,2024.2.4,MacIntel,30.03003003,,,,,,,,3,"[0.5,0.5]","[0.383,0.924]",s,"[0.5327983039222058,0.5327983039222058]","[0.4672016960777941,0.4672016960777941]",303.0237,305.3203,0,d,0,0.7333,,-0.090574407,0.19552614,0.286100548,305.3235,305.3235,0,104,104,104,1,0.046390812,0.046390812,shape_difference2,1,,TRUE,,intensity,0.1,0.05,0.7,0.3,0.82,20,400,1E-11,3.5,0.01,0.5,0.1,,,,,,,,,,,,,,,,,,,,,,,,,,,,,,,,,,,,,,,,,,,,,,,,,,,,,,,,,,,,,,,,,,,,,,,,,,,,,,,,,
,,,,,059774,001,2025-03-18_22h04.37.229,Utility_discrimination_2024_2cat,2024.2.4,MacIntel,30.03003003,,,,,,,,2,"[0.5,0.5]","[0.707,0.707]",s,"[0.5136686639124926,0.5329760977941074]","[0.48633133608750745,0.4670239022058927]",305.3256,307.3873,1,d,1,0.5014,,-0.077253315,0.184759728,0.262013043,307.3911,307.3911,0,105,105,105,1,0.035688418,0.035688418,shape_difference3,1,,TRUE,,intensity,0.1,0.05,0.7,0.3,0.82,20,400,1E-11,3.5,0.01,0.5,0.1,,,,,,,,,,,,,,,,,,,,,,,,,,,,,,,,,,,,,,,,,,,,,,,,,,,,,,,,,,,,,,,,,,,,,,,,,,,,,,,,,
,,,,,059774,001,2025-03-18_22h04.37.229,Utility_discrimination_2024_2cat,2024.2.4,MacIntel,30.03003003,,,,,,,,0,"[0.5,0.5]","[1,0]",d,"[0.5439742814878863,0.5439742814878863]","[0.4560257185121137,0.4560257185121137]",307.3921,309.5195,0,s,0,0.5799,,0.101916484,0.369405449,0.267488965,309.5228,309.5228,0,106,106,106,1,0.062198418,0.062198418,shape_difference2,1,,TRUE,,intensity,0.1,0.05,0.7,0.3,0.82,20,400,1E-11,3.5,0.01,0.5,0.1,,,,,,,,,,,,,,,,,,,,,,,,,,,,,,,,,,,,,,,,,,,,,,,,,,,,,,,,,,,,,,,,,,,,,,,,,,,,,,,,,
,,,,,059774,001,2025-03-18_22h04.37.229,Utility_discrimination_2024_2cat,2024.2.4,MacIntel,30.03003003,,,,,,,,1,"[0.5,0.5]","[0.924,0.383]",d,"[0.6979402329309238,0.5]","[0.3020597670690762,0.5]",309.5238,311.7529,1,d,1,0.6811,,-0.59705707,-0.250986123,0.346070947,311.755,311.755,0,107,107,107,1,0.197940233,0.197940233,shape_difference0,1,,TRUE,,intensity,0.1,0.05,0.7,0.3,0.82,20,400,1E-11,3.5,0.01,0.5,0.1,,,,,,,,,,,,,,,,,,,,,,,,,,,,,,,,,,,,,,,,,,,,,,,,,,,,,,,,,,,,,,,,,,,,,,,,,,,,,,,,,
,,,,,059774,001,2025-03-18_22h04.37.229,Utility_discrimination_2024_2cat,2024.2.4,MacIntel,30.03003003,,,,,,,,4,"[0.5,0.5]","[0,1]",d,"[0.14057285488096888,0.35101667036732803]","[0.8594271451190312,0.6489833296326719]",311.7561,314.1538,1,s,1,0.8487,,-0.085100705,0.283285611,0.368386316,314.1562,314.1562,0,108,108,108,1,-0.388990417,-0.388990417,shape_difference1,1,,TRUE,,intensity,0.1,0.05,0.7,0.3,0.82,20,400,1E-11,3.5,0.01,0.5,0.1,,,,,,,,,,,,,,,,,,,,,,,,,,,,,,,,,,,,,,,,,,,,,,,,,,,,,,,,,,,,,,,,,,,,,,,,,,,,,,,,,
,,,,,059774,001,2025-03-18_22h04.37.229,Utility_discrimination_2024_2cat,2024.2.4,MacIntel,30.03003003,,,,,,,,0,"[0.5,0.5]","[1,0]",s,"[0.5,0.5633113826513807]","[0.5,0.43668861734861936]",314.1573,316.9528,1,d,1,1.2436,,0.100191799,0.34440594,0.244214141,316.9557,316.9558,0,109,109,109,1,0.063311383,0.063311383,shape_difference4,1,,TRUE,,intensity,0.1,0.05,0.7,0.3,0.82,20,400,1E-11,3.5,0.01,0.5,0.1,,,,,,,,,,,,,,,,,,,,,,,,,,,,,,,,,,,,,,,,,,,,,,,,,,,,,,,,,,,,,,,,,,,,,,,,,,,,,,,,,
,,,,,059774,001,2025-03-18_22h04.37.229,Utility_discrimination_2024_2cat,2024.2.4,MacIntel,30.03003003,,,,,,,,2,"[0.5,0.5]","[0.707,0.707]",d,"[0.6891929487815958,0.5]","[0.31080705121840424,0.5]",316.9569,319.7204,1,s,1,1.2156,,-0.02037072,0.223330938,0.243701657,319.7237,319.7237,0,110,110,110,1,0.189192949,0.189192949,shape_difference0,1,,TRUE,,intensity,0.1,0.05,0.7,0.3,0.82,20,400,1E-11,3.5,0.01,0.5,0.1,,,,,,,,,,,,,,,,,,,,,,,,,,,,,,,,,,,,,,,,,,,,,,,,,,,,,,,,,,,,,,,,,,,,,,,,,,,,,,,,,
,,,,,059774,001,2025-03-18_22h04.37.229,Utility_discrimination_2024_2cat,2024.2.4,MacIntel,30.03003003,,,,,,,,4,"[0.5,0.5]","[0,1]",s,"[0.5619435392536009,0.5619435392536009]","[0.43805646074639915,0.43805646074639915]",319.7247,321.9205,1,s,1,0.6481,,-0.087445159,0.237316542,0.324761701,321.9235,321.9235,0,111,111,111,1,0.087614624,0.087614624,shape_difference2,1,,TRUE,,intensity,0.1,0.05,0.7,0.3,0.82,20,400,1E-11,3.5,0.01,0.5,0.1,,,,,,,,,,,,,,,,,,,,,,,,,,,,,,,,,,,,,,,,,,,,,,,,,,,,,,,,,,,,,,,,,,,,,,,,,,,,,,,,,
,,,,,059774,001,2025-03-18_22h04.37.229,Utility_discrimination_2024_2cat,2024.2.4,MacIntel,30.03003003,,,,,,,,3,"[0.5,0.5]","[0.383,0.924]",s,"[0.5,0.5515358529872856]","[0.5,0.4484641470127144]",321.9247,323.8872,1,s,1,0.4148,,-0.092166765,0.179555727,0.271722493,323.8904,323.8904,0,112,112,112,1,0.051535853,0.051535853,shape_difference4,1,,TRUE,,intensity,0.1,0.05,0.7,0.3,0.82,20,400,1E-11,3.5,0.01,0.5,0.1,,,,,,,,,,,,,,,,,,,,,,,,,,,,,,,,,,,,,,,,,,,,,,,,,,,,,,,,,,,,,,,,,,,,,,,,,,,,,,,,,
,,,,,059774,001,2025-03-18_22h04.37.229,Utility_discrimination_2024_2cat,2024.2.4,MacIntel,30.03003003,,,,,,,,1,"[0.5,0.5]","[0.924,0.383]",s,"[0.5088933864914827,0.5214555851648304]","[0.49110661350851725,0.4785444148351696]",323.8915,325.7537,1,s,1,0.3184,,-0.632216632,-0.272639263,0.359577369,325.756,325.756,0,113,113,113,1,0.02322033,0.02322033,shape_difference3,1,,TRUE,,intensity,0.1,0.05,0.7,0.3,0.82,20,400,1E-11,3.5,0.01,0.5,0.1,,,,,,,,,,,,,,,,,,,,,,,,,,,,,,,,,,,,,,,,,,,,,,,,,,,,,,,,,,,,,,,,,,,,,,,,,,,,,,,,,
,,,,,059774,001,2025-03-18_22h04.37.229,Utility_discrimination_2024_2cat,2024.2.4,MacIntel,30.03003003,,,,,,,,3,"[0.5,0.5]","[0.383,0.924]",s,"[0.12627872994813683,0.34509172464300475]","[0.8737212700518632,0.6549082753569953]",325.7579,327.9539,1,s,1,0.6336,,-0.09352083,0.160294809,0.25381564,327.9573,327.9574,0,114,114,114,1,-0.404460249,-0.404460249,shape_difference1,1,,TRUE,,intensity,0.1,0.05,0.7,0.3,0.82,20,400,1E-11,3.5,0.01,0.5,0.1,,,,,,,,,,,,,,,,,,,,,,,,,,,,,,,,,,,,,,,,,,,,,,,,,,,,,,,,,,,,,,,,,,,,,,,,,,,,,,,,,
,,,,,059774,001,2025-03-18_22h04.37.229,Utility_discrimination_2024_2cat,2024.2.4,MacIntel,30.03003003,,,,,,,,2,"[0.5,0.5]","[0.707,0.707]",s,"[0.5036325537157094,0.5087636543950795]","[0.49636744628429064,0.49123634560492047]",327.9584,330.2195,1,d,1,0.7215,,-0.03473003,0.198197674,0.232927704,330.2224,330.2224,0,115,115,115,1,0.009484474,0.009484474,shape_difference3,1,,TRUE,,intensity,0.1,0.05,0.7,0.3,0.82,20,400,1E-11,3.5,0.01,0.5,0.1,,,,,,,,,,,,,,,,,,,,,,,,,,,,,,,,,,,,,,,,,,,,,,,,,,,,,,,,,,,,,,,,,,,,,,,,,,,,,,,,,
,,,,,059774,001,2025-03-18_22h04.37.229,Utility_discrimination_2024_2cat,2024.2.4,MacIntel,30.03003003,,,,,,,,0,"[0.5,0.5]","[1,0]",d,"[0.5570750543597713,0.5570750543597713]","[0.44292494564022866,0.44292494564022866]",330.2235,332.2873,1,d,1,0.5012,,0.083448506,0.312240173,0.228791667,332.2901,332.2901,0,116,116,116,1,0.080728507,0.080728507,shape_difference2,1,,TRUE,,intensity,0.1,0.05,0.7,0.3,0.82,20,400,1E-11,3.5,0.01,0.5,0.1,,,,,,,,,,,,,,,,,,,,,,,,,,,,,,,,,,,,,,,,,,,,,,,,,,,,,,,,,,,,,,,,,,,,,,,,,,,,,,,,,
,,,,,059774,001,2025-03-18_22h04.37.229,Utility_discrimination_2024_2cat,2024.2.4,MacIntel,30.03003003,,,,,,,,4,"[0.5,0.5]","[0,1]",d,"[0.6821774730208133,0.5]","[0.31782252697918667,0.5]",332.2913,334.3537,1,d,1,0.5152,,-0.089219838,0.193811894,0.283031732,334.3557,334.3558,0,117,117,117,1,0.182177473,0.182177473,shape_difference0,1,,TRUE,,intensity,0.1,0.05,0.7,0.3,0.82,20,400,1E-11,3.5,0.01,0.5,0.1,,,,,,,,,,,,,,,,,,,,,,,,,,,,,,,,,,,,,,,,,,,,,,,,,,,,,,,,,,,,,,,,,,,,,,,,,,,,,,,,,
,,,,,059774,001,2025-03-18_22h04.37.229,Utility_discrimination_2024_2cat,2024.2.4,MacIntel,30.03003003,,,,,,,,1,"[0.5,0.5]","[0.924,0.383]",d,"[0.5,0.5408695708728288]","[0.5,0.45913042912717117]",334.3569,336.5538,0,d,0,0.6335,,-0.661245632,-0.300351077,0.360894556,336.5566,336.5567,0,118,118,118,1,0.040869571,0.040869571,shape_difference4,1,,TRUE,,intensity,0.1,0.05,0.7,0.3,0.82,20,400,1E-11,3.5,0.01,0.5,0.1,,,,,,,,,,,,,,,,,,,,,,,,,,,,,,,,,,,,,,,,,,,,,,,,,,,,,,,,,,,,,,,,,,,,,,,,,,,,,,,,,
,,,,,059774,001,2025-03-18_22h04.37.229,Utility_discrimination_2024_2cat,2024.2.4,MacIntel,30.03003003,,,,,,,,2,"[0.5,0.5]","[0.707,0.707]",s,"[0.11531831866545678,0.34054861044249995]","[0.8846816813345433,0.6594513895575]",336.5585,338.787,1,s,1,0.6907,,-0.045818196,0.19227264,0.238090836,338.7898,338.7898,0,119,119,119,1,-0.416322166,-0.416322166,shape_difference1,1,,TRUE,,intensity,0.1,0.05,0.7,0.3,0.82,20,400,1E-11,3.5,0.01,0.5,0.1,,,,,,,,,,,,,,,,,,,,,,,,,,,,,,,,,,,,,,,,,,,,,,,,,,,,,,,,,,,,,,,,,,,,,,,,,,,,,,,,,
,,,,,059774,001,2025-03-18_22h04.37.229,Utility_discrimination_2024_2cat,2024.2.4,MacIntel,30.03003003,,,,,,,,0,"[0.5,0.5]","[1,0]",s,"[0.5530277211293321,0.5530277211293321]","[0.446972278870668,0.446972278870668]",338.7909,340.787,1,d,1,0.4598,,0.068914715,0.295547428,0.226632712,340.7899,340.7899,0,120,120,120,1,0.075003849,0.075003849,shape_difference2,1,,TRUE,,intensity,0.1,0.05,0.7,0.3,0.82,20,400,1E-11,3.5,0.01,0.5,0.1,,,,,,,,,,,,,,,,,,,,,,,,,,,,,,,,,,,,,,,,,,,,,,,,,,,,,,,,,,,,,,,,,,,,,,,,,,,,,,,,,
,,,,,059774,001,2025-03-18_22h04.37.229,Utility_discrimination_2024_2cat,2024.2.4,MacIntel,30.03003003,,,,,,,,3,"[0.5,0.5]","[0.383,0.924]",d,"[0.6764527576217461,0.5]","[0.32354724237825394,0.5]",340.7909,343.053,1,s,1,0.7004,,-0.094713451,0.13630942,0.231022871,343.0559,343.0559,0,121,121,121,1,0.176452758,0.176452758,shape_difference0,1,,TRUE,,intensity,0.1,0.05,0.7,0.3,0.82,20,400,1E-11,3.5,0.01,0.5,0.1,,,,,,,,,,,,,,,,,,,,,,,,,,,,,,,,,,,,,,,,,,,,,,,,,,,,,,,,,,,,,,,,,,,,,,,,,,,,,,,,,
,,,,,059774,001,2025-03-18_22h04.37.229,Utility_discrimination_2024_2cat,2024.2.4,MacIntel,30.03003003,,,,,,,,4,"[0.5,0.5]","[0,1]",s,"[0.4987418486684376,0.49696466885022555]","[0.5012581513315624,0.5030353311497745]",343.057,345.1538,1,s,1,0.5376,,-0.081470464,0.254621469,0.336091934,345.1561,345.1562,0,122,122,122,1,-0.00328499,-0.00328499,shape_difference3,1,,TRUE,,intensity,0.1,0.05,0.7,0.3,0.82,20,400,1E-11,3.5,0.01,0.5,0.1,,,,,,,,,,,,,,,,,,,,,,,,,,,,,,,,,,,,,,,,,,,,,,,,,,,,,,,,,,,,,,,,,,,,,,,,,,,,,,,,,
,,,,,059774,001,2025-03-18_22h04.37.229,Utility_discrimination_2024_2cat,2024.2.4,MacIntel,30.03003003,,,,,,,,1,"[0.5,0.5]","[0.924,0.383]",s,"[0.5,0.564762722915205]","[0.5,0.435237277084795]",345.1574,347.153,1,d,1,0.4345,,-0.682594081,-0.305764124,0.376829958,347.1563,347.1563,0,123,123,123,1,0.064762723,0.064762723,shape_difference4,1,,TRUE,,intensity,0.1,0.05,0.7,0.3,0.82,20,400,1E-11,3.5,0.01,0.5,0.1,,,,,,,,,,,,,,,,,,,,,,,,,,,,,,,,,,,,,,,,,,,,,,,,,,,,,,,,,,,,,,,,,,,,,,,,,,,,,,,,,
,,,,,059774,001,2025-03-18_22h04.37.229,Utility_discrimination_2024_2cat,2024.2.4,MacIntel,30.03003003,,,,,,,,2,"[0.5,0.5]","[0.707,0.707]",d,"[0.10566425389880385,0.3365469797004782]","[0.8943357461011961,0.6634530202995218]",347.1575,349.9529,1,s,1,1.2322,,-0.054503357,0.186025095,0.240528452,349.9564,349.9564,0,124,124,124,1,-0.426770288,-0.426770288,shape_difference1,1,,TRUE,,intensity,0.1,0.05,0.7,0.3,0.82,20,400,1E-11,3.5,0.01,0.5,0.1,,,,,,,,,,,,,,,,,,,,,,,,,,,,,,,,,,,,,,,,,,,,,,,,,,,,,,,,,,,,,,,,,,,,,,,,,,,,,,,,,
,,,,,059774,001,2025-03-18_22h04.37.229,Utility_discrimination_2024_2cat,2024.2.4,MacIntel,30.03003003,,,,,,,,3,"[0.5,0.5]","[0.383,0.924]",s,"[0.5495928469846835,0.5495928469846835]","[0.4504071530153166,0.4504071530153166]",349.9575,352.9203,1,d,1,1.4179,,-0.095803826,0.10564133,0.201445156,352.9222,352.9222,0,125,125,125,1,0.07014547,0.07014547,shape_difference2,1,,TRUE,,intensity,0.1,0.05,0.7,0.3,0.82,20,400,1E-11,3.5,0.01,0.5,0.1,,,,,,,,,,,,,,,,,,,,,,,,,,,,,,,,,,,,,,,,,,,,,,,,,,,,,,,,,,,,,,,,,,,,,,,,,,,,,,,,,
,,,,,059774,001,2025-03-18_22h04.37.229,Utility_discrimination_2024_2cat,2024.2.4,MacIntel,30.03003003,,,,,,,,1,"[0.5,0.5]","[0.924,0.383]",d,"[0.49584124847007477,0.4899668762045668]","[0.5041587515299252,0.5100331237954332]",352.9234,354.987,1,d,1,0.5242,,-0.69853378,-0.31173491,0.38679887,354.9893,354.9893,0,126,126,126,1,-0.010858359,-0.010858359,shape_difference3,1,,TRUE,,intensity,0.1,0.05,0.7,0.3,0.82,20,400,1E-11,3.5,0.01,0.5,0.1,,,,,,,,,,,,,,,,,,,,,,,,,,,,,,,,,,,,,,,,,,,,,,,,,,,,,,,,,,,,,,,,,,,,,,,,,,,,,,,,,
,,,,,059774,001,2025-03-18_22h04.37.229,Utility_discrimination_2024_2cat,2024.2.4,MacIntel,30.03003003,,,,,,,,4,"[0.5,0.5]","[0,1]",d,"[0.09687532033005453,0.3329039477125659]","[0.9031246796699455,0.6670960522874341]",354.9904,357.3539,1,s,1,0.8013,,-0.084166677,0.204303952,0.288470628,357.3569,357.3569,0,127,127,127,1,-0.436282121,-0.436282121,shape_difference1,1,,TRUE,,intensity,0.1,0.05,0.7,0.3,0.82,20,400,1E-11,3.5,0.01,0.5,0.1,,,,,,,,,,,,,,,,,,,,,,,,,,,,,,,,,,,,,,,,,,,,,,,,,,,,,,,,,,,,,,,,,,,,,,,,,,,,,,,,,
,,,,,059774,001,2025-03-18_22h04.37.229,Utility_discrimination_2024_2cat,2024.2.4,MacIntel,30.03003003,,,,,,,,0,"[0.5,0.5]","[1,0]",s,"[0.5,0.5556484660005083]","[0.5,0.44435153399949173]",357.359,359.5864,1,s,1,0.669,,0.057582422,0.288855683,0.231273261,359.59,359.5901,0,128,128,128,1,0.055648466,0.055648466,shape_difference4,1,,TRUE,,intensity,0.1,0.05,0.7,0.3,0.82,20,400,1E-11,3.5,0.01,0.5,0.1,,,,,,,,,,,,,,,,,,,,,,,,,,,,,,,,,,,,,,,,,,,,,,,,,,,,,,,,,,,,,,,,,,,,,,,,,,,,,,,,,
,,,,,059774,001,2025-03-18_22h04.37.229,Utility_discrimination_2024_2cat,2024.2.4,MacIntel,30.03003003,,,,,,,,1,"[0.5,0.5]","[0.924,0.383]",s,"[0.6716896360209332,0.5]","[0.3283103639790667,0.5]",359.5912,361.7196,1,d,1,0.5834,,-0.723928222,-0.318622495,0.405305727,361.723,361.7231,0,129,129,129,1,0.171689636,0.171689636,shape_difference0,1,,TRUE,,intensity,0.1,0.05,0.7,0.3,0.82,20,400,1E-11,3.5,0.01,0.5,0.1,,,,,,,,,,,,,,,,,,,,,,,,,,,,,,,,,,,,,,,,,,,,,,,,,,,,,,,,,,,,,,,,,,,,,,,,,,,,,,,,,
,,,,,059774,001,2025-03-18_22h04.37.229,Utility_discrimination_2024_2cat,2024.2.4,MacIntel,30.03003003,,,,,,,,4,"[0.5,0.5]","[0,1]",d,"[0.08858037295887028,0.3294656740727785]","[0.9114196270411297,0.6705343259272215]",361.7242,363.9539,1,s,1,0.6667,,-0.086233803,0.186700416,0.272934218,363.9566,363.9567,0,130,130,130,1,-0.445259337,-0.445259337,shape_difference1,1,,TRUE,,intensity,0.1,0.05,0.7,0.3,0.82,20,400,1E-11,3.5,0.01,0.5,0.1,,,,,,,,,,,,,,,,,,,,,,,,,,,,,,,,,,,,,,,,,,,,,,,,,,,,,,,,,,,,,,,,,,,,,,,,,,,,,,,,,
,,,,,059774,001,2025-03-18_22h04.37.229,Utility_discrimination_2024_2cat,2024.2.4,MacIntel,30.03003003,,,,,,,,2,"[0.5,0.5]","[0.707,0.707]",s,"[0.5,0.5473787687935385]","[0.5,0.4526212312064615]",363.9578,366.1872,1,s,1,0.6662,,-0.06139587,0.179188852,0.240584723,366.1901,366.1901,0,131,131,131,1,0.047378769,0.047378769,shape_difference4,1,,TRUE,,intensity,0.1,0.05,0.7,0.3,0.82,20,400,1E-11,3.5,0.01,0.5,0.1,,,,,,,,,,,,,,,,,,,,,,,,,,,,,,,,,,,,,,,,,,,,,,,,,,,,,,,,,,,,,,,,,,,,,,,,,,,,,,,,,
,,,,,059774,001,2025-03-18_22h04.37.229,Utility_discrimination_2024_2cat,2024.2.4,MacIntel,30.03003003,,,,,,,,0,"[0.5,0.5]","[1,0]",s,"[0.54660813518243,0.54660813518243]","[0.45339186481757,0.45339186481757]",366.1919,368.753,1,d,1,1.0012,,0.048619675,0.281734271,0.233114596,368.7565,368.7565,0,132,132,132,1,0.065923812,0.065923812,shape_difference2,1,,TRUE,,intensity,0.1,0.05,0.7,0.3,0.82,20,400,1E-11,3.5,0.01,0.5,0.1,,,,,,,,,,,,,,,,,,,,,,,,,,,,,,,,,,,,,,,,,,,,,,,,,,,,,,,,,,,,,,,,,,,,,,,,,,,,,,,,,
,,,,,059774,001,2025-03-18_22h04.37.229,Utility_discrimination_2024_2cat,2024.2.4,MacIntel,30.03003003,,,,,,,,3,"[0.5,0.5]","[0.383,0.924]",d,"[0.667638131328917,0.5]","[0.332361868671083,0.5]",368.7576,371.2873,1,s,1,0.9668,,-0.096839138,0.095813317,0.192652455,371.2911,371.2912,0,133,133,133,1,0.167638131,0.167638131,shape_difference0,1,,TRUE,,intensity,0.1,0.05,0.7,0.3,0.82,20,400,1E-11,3.5,0.01,0.5,0.1,,,,,,,,,,,,,,,,,,,,,,,,,,,,,,,,,,,,,,,,,,,,,,,,,,,,,,,,,,,,,,,,,,,,,,,,,,,,,,,,,
,,,,,059774,001,2025-03-18_22h04.37.229,Utility_discrimination_2024_2cat,2024.2.4,MacIntel,30.03003003,,,,,,,,1,"[0.5,0.5]","[0.924,0.383]",s,"[0.4935012137127977,0.4843214659807444]","[0.5064987862872022,0.5156785340192557]",371.2923,373.453,0,s,0,0.6143,,-0.744747895,-0.32689043,0.417857465,373.4561,373.4561,0,134,134,134,1,-0.01696811,-0.01696811,shape_difference3,1,,TRUE,,intensity,0.1,0.05,0.7,0.3,0.82,20,400,1E-11,3.5,0.01,0.5,0.1,,,,,,,,,,,,,,,,,,,,,,,,,,,,,,,,,,,,,,,,,,,,,,,,,,,,,,,,,,,,,,,,,,,,,,,,,,,,,,,,,
,,,,,059774,001,2025-03-18_22h04.37.229,Utility_discrimination_2024_2cat,2024.2.4,MacIntel,30.03003003,,,,,,,,4,"[0.5,0.5]","[0,1]",d,"[0.0804544228552121,0.3260974501661756]","[0.9195455771447879,0.6739025498338245]",373.4572,375.5197,1,d,1,0.5125,,-0.088114019,0.174038221,0.26215224,375.5225,375.5225,0,135,135,135,1,-0.454053655,-0.454053655,shape_difference1,1,,TRUE,,intensity,0.1,0.05,0.7,0.3,0.82,20,400,1E-11,3.5,0.01,0.5,0.1,,,,,,,,,,,,,,,,,,,,,,,,,,,,,,,,,,,,,,,,,,,,,,,,,,,,,,,,,,,,,,,,,,,,,,,,,,,,,,,,,
,,,,,059774,001,2025-03-18_22h04.37.229,Utility_discrimination_2024_2cat,2024.2.4,MacIntel,30.03003003,,,,,,,,3,"[0.5,0.5]","[0.383,0.924]",d,"[0.5,0.5389700318979209]","[0.5,0.46102996810207914]",375.5243,377.8871,1,s,1,0.8155,,-0.092165094,0.143113882,0.235278976,377.8905,377.8906,0,136,136,136,1,0.038970032,0.038970032,shape_difference4,1,,TRUE,,intensity,0.1,0.05,0.7,0.3,0.82,20,400,1E-11,3.5,0.01,0.5,0.1,,,,,,,,,,,,,,,,,,,,,,,,,,,,,,,,,,,,,,,,,,,,,,,,,,,,,,,,,,,,,,,,,,,,,,,,,,,,,,,,,
,,,,,059774,001,2025-03-18_22h04.37.229,Utility_discrimination_2024_2cat,2024.2.4,MacIntel,30.03003003,,,,,,,,2,"[0.5,0.5]","[0.707,0.707]",s,"[0.5033706783558188,0.5081318715424977]","[0.4966293216441811,0.4918681284575022]",377.8917,380.153,1,s,1,0.7008,,-0.066931038,0.171456181,0.238387219,380.1561,380.1561,0,137,137,137,1,0.008800727,0.008800727,shape_difference3,1,,TRUE,,intensity,0.1,0.05,0.7,0.3,0.82,20,400,1E-11,3.5,0.01,0.5,0.1,,,,,,,,,,,,,,,,,,,,,,,,,,,,,,,,,,,,,,,,,,,,,,,,,,,,,,,,,,,,,,,,,,,,,,,,,,,,,,,,,
,,,,,059774,001,2025-03-18_22h04.37.229,Utility_discrimination_2024_2cat,2024.2.4,MacIntel,30.03003003,,,,,,,,0,"[0.5,0.5]","[1,0]",s,"[0.5439446310320877,0.5439446310320877]","[0.45605536896791227,0.45605536896791227]",380.1573,382.3872,1,s,1,0.6846,,0.04143984,0.273878047,0.232438207,382.3896,382.3896,0,138,138,138,1,0.06215648,0.06215648,shape_difference2,1,,TRUE,,intensity,0.1,0.05,0.7,0.3,0.82,20,400,1E-11,3.5,0.01,0.5,0.1,,,,,,,,,,,,,,,,,,,,,,,,,,,,,,,,,,,,,,,,,,,,,,,,,,,,,,,,,,,,,,,,,,,,,,,,,,,,,,,,,
,,,,,059774,001,2025-03-18_22h04.37.229,Utility_discrimination_2024_2cat,2024.2.4,MacIntel,30.03003003,,,,,,,,3,"[0.5,0.5]","[0.383,0.924]",s,"[0.664104589680268,0.5]","[0.33589541031973197,0.5]",382.3915,384.7539,1,d,1,0.8018,,-0.093101824,0.116671929,0.209773753,384.7578,384.7578,0,139,139,139,1,0.16410459,0.16410459,shape_difference0,1,,TRUE,,intensity,0.1,0.05,0.7,0.3,0.82,20,400,1E-11,3.5,0.01,0.5,0.1,,,,,,,,,,,,,,,,,,,,,,,,,,,,,,,,,,,,,,,,,,,,,,,,,,,,,,,,,,,,,,,,,,,,,,,,,,,,,,,,,
,,,,,059774,001,2025-03-18_22h04.37.229,Utility_discrimination_2024_2cat,2024.2.4,MacIntel,30.03003003,,,,,,,,1,"[0.5,0.5]","[0.924,0.383]",d,"[0.49881241659941405,0.49713491628683704]","[0.501187583400586,0.502865083713163]",384.759,387.8203,0,s,0,1.5147,,-0.773170636,-0.336987008,0.436183628,387.823,387.8231,0,140,140,140,1,-0.00310074,-0.00310074,shape_difference3,1,,TRUE,,intensity,0.1,0.05,0.7,0.3,0.82,20,400,1E-11,3.5,0.01,0.5,0.1,,,,,,,,,,,,,,,,,,,,,,,,,,,,,,,,,,,,,,,,,,,,,,,,,,,,,,,,,,,,,,,,,,,,,,,,,,,,,,,,,
,,,,,059774,001,2025-03-18_22h04.37.229,Utility_discrimination_2024_2cat,2024.2.4,MacIntel,30.03003003,,,,,,,,0,"[0.5,0.5]","[1,0]",d,"[0.06941768630487533,0.32152269897702085]","[0.9305823136951247,0.6784773010229792]",387.8241,389.7872,1,d,1,0.4008,,0.035622644,0.264934407,0.229311763,389.79,389.7901,0,141,141,141,1,-0.465998175,-0.465998175,shape_difference1,1,,TRUE,,intensity,0.1,0.05,0.7,0.3,0.82,20,400,1E-11,3.5,0.01,0.5,0.1,,,,,,,,,,,,,,,,,,,,,,,,,,,,,,,,,,,,,,,,,,,,,,,,,,,,,,,,,,,,,,,,,,,,,,,,,,,,,,,,,
,,,,,059774,001,2025-03-18_22h04.37.229,Utility_discrimination_2024_2cat,2024.2.4,MacIntel,30.03003003,,,,,,,,4,"[0.5,0.5]","[0,1]",d,"[0.6609354991452804,0.5]","[0.3390645008547196,0.5]",389.7919,392.2537,1,d,1,0.9204,,-0.08962443,0.158806551,0.248430981,392.2566,392.2567,0,142,142,142,1,0.160935499,0.160935499,shape_difference0,1,,TRUE,,intensity,0.1,0.05,0.7,0.3,0.82,20,400,1E-11,3.5,0.01,0.5,0.1,,,,,,,,,,,,,,,,,,,,,,,,,,,,,,,,,,,,,,,,,,,,,,,,,,,,,,,,,,,,,,,,,,,,,,,,,,,,,,,,,
,,,,,059774,001,2025-03-18_22h04.37.229,Utility_discrimination_2024_2cat,2024.2.4,MacIntel,30.03003003,,,,,,,,2,"[0.5,0.5]","[0.707,0.707]",d,"[0.5,0.5298427193418987]","[0.5,0.47015728065810125]",392.2577,394.8871,1,s,1,1.0884,,-0.071423755,0.162457931,0.233881686,394.8892,394.8893,0,143,143,143,1,0.029842719,0.029842719,shape_difference4,1,,TRUE,,intensity,0.1,0.05,0.7,0.3,0.82,20,400,1E-11,3.5,0.01,0.5,0.1,,,,,,,,,,,,,,,,,,,,,,,,,,,,,,,,,,,,,,,,,,,,,,,,,,,,,,,,,,,,,,,,,,,,,,,,,,,,,,,,,
,,,,,059774,001,2025-03-18_22h04.37.229,Utility_discrimination_2024_2cat,2024.2.4,MacIntel,30.03003003,,,,,,,,4,"[0.5,0.5]","[0,1]",s,"[0.5414972869707982,0.5414972869707982]","[0.45850271302920176,0.45850271302920176]",394.8903,397.287,1,d,1,0.858,,-0.090855246,0.139972977,0.230828223,397.2891,397.2892,0,144,144,144,1,0.05869489,0.05869489,shape_difference2,1,,TRUE,,intensity,0.1,0.05,0.7,0.3,0.82,20,400,1E-11,3.5,0.01,0.5,0.1,,,,,,,,,,,,,,,,,,,,,,,,,,,,,,,,,,,,,,,,,,,,,,,,,,,,,,,,,,,,,,,,,,,,,,,,,,,,,,,,,
,,,,,059774,001,2025-03-18_22h04.37.229,Utility_discrimination_2024_2cat,2024.2.4,MacIntel,30.03003003,,,,,,,,2,"[0.5,0.5]","[0.707,0.707]",d,"[0.5,0.519685583283993]","[0.5,0.48031441671600705]",397.2912,399.9538,1,s,1,1.1001,,-0.075105034,0.151738333,0.226843368,399.9577,399.9577,0,145,145,145,1,0.019685583,0.019685583,shape_difference4,1,,TRUE,,intensity,0.1,0.05,0.7,0.3,0.82,20,400,1E-11,3.5,0.01,0.5,0.1,,,,,,,,,,,,,,,,,,,,,,,,,,,,,,,,,,,,,,,,,,,,,,,,,,,,,,,,,,,,,,,,,,,,,,,,,,,,,,,,,
,,,,,059774,001,2025-03-18_22h04.37.229,Utility_discrimination_2024_2cat,2024.2.4,MacIntel,30.03003003,,,,,,,,0,"[0.5,0.5]","[1,0]",s,"[0.5391780339965392,0.5391780339965392]","[0.46082196600346087,0.46082196600346087]",399.9588,403.2873,0,d,0,1.7781,,0.030862254,0.254480872,0.223618618,403.29,403.29,0,146,146,146,1,0.055414475,0.055414475,shape_difference2,1,,TRUE,,intensity,0.1,0.05,0.7,0.3,0.82,20,400,1E-11,3.5,0.01,0.5,0.1,,,,,,,,,,,,,,,,,,,,,,,,,,,,,,,,,,,,,,,,,,,,,,,,,,,,,,,,,,,,,,,,,,,,,,,,,,,,,,,,,
,,,,,059774,001,2025-03-18_22h04.37.229,Utility_discrimination_2024_2cat,2024.2.4,MacIntel,30.03003003,,,,,,,,3,"[0.5,0.5]","[0.383,0.924]",s,"[0.6580058812335252,0.5]","[0.34199411876647473,0.5]",403.2912,405.8873,1,s,1,1.0334,,-0.089373243,0.166444203,0.255817446,405.8907,405.8907,0,147,147,147,1,0.158005881,0.158005881,shape_difference0,1,,TRUE,,intensity,0.1,0.05,0.7,0.3,0.82,20,400,1E-11,3.5,0.01,0.5,0.1,,,,,,,,,,,,,,,,,,,,,,,,,,,,,,,,,,,,,,,,,,,,,,,,,,,,,,,,,,,,,,,,,,,,,,,,,,,,,,,,,
,,,,,059774,001,2025-03-18_22h04.37.229,Utility_discrimination_2024_2cat,2024.2.4,MacIntel,30.03003003,,,,,,,,1,"[0.5,0.5]","[0.924,0.383]",s,"[0.5116827525040551,0.5281850217069111]","[0.48831724749594485,0.47181497829308894]",405.8919,408.1205,1,s,1,0.6819,,-0.792824507,-0.350932434,0.441892073,408.1237,408.1237,0,148,148,148,1,0.03050327,0.03050327,shape_difference3,1,,TRUE,,intensity,0.1,0.05,0.7,0.3,0.82,20,400,1E-11,3.5,0.01,0.5,0.1,,,,,,,,,,,,,,,,,,,,,,,,,,,,,,,,,,,,,,,,,,,,,,,,,,,,,,,,,,,,,,,,,,,,,,,,,,,,,,,,,
,,,,,059774,001,2025-03-18_22h04.37.229,Utility_discrimination_2024_2cat,2024.2.4,MacIntel,30.03003003,,,,,,,,2,"[0.5,0.5]","[0.707,0.707]",s,"[0.0558255633518831,0.31588873459282596]","[0.9441744366481168,0.684111265407174]",408.1248,410.287,1,s,1,0.6252,,-0.020410855,0.179998603,0.200409458,410.2888,410.2888,0,149,149,149,1,-0.480708265,-0.480708265,shape_difference1,1,,TRUE,,intensity,0.1,0.05,0.7,0.3,0.82,20,400,1E-11,3.5,0.01,0.5,0.1,,,,,,,,,,,,,,,,,,,,,,,,,,,,,,,,,,,,,,,,,,,,,,,,,,,,,,,,,,,,,,,,,,,,,,,,,,,,,,,,,
,,,,,059774,001,2025-03-18_22h04.37.229,Utility_discrimination_2024_2cat,2024.2.4,MacIntel,30.03003003,,,,,,,,4,"[0.5,0.5]","[0,1]",s,"[0.549574576305061,0.549574576305061]","[0.450425423694939,0.450425423694939]",410.2898,412.3872,1,d,1,0.5338,,-0.091874408,0.116142989,0.208017397,412.3902,412.3902,0,150,150,150,1,0.070119627,0.070119627,shape_difference2,1,,TRUE,,intensity,0.1,0.05,0.7,0.3,0.82,20,400,1E-11,3.5,0.01,0.5,0.1,,,,,,,,,,,,,,,,,,,,,,,,,,,,,,,,,,,,,,,,,,,,,,,,,,,,,,,,,,,,,,,,,,,,,,,,,,,,,,,,,
,,,,,059774,001,2025-03-18_22h04.37.229,Utility_discrimination_2024_2cat,2024.2.4,MacIntel,30.03003003,,,,,,,,0,"[0.5,0.5]","[1,0]",d,"[0.5,0.5081539412938355]","[0.5,0.4918460587061645]",412.392,415.0872,1,s,1,1.1479,,0.026932685,0.241996812,0.215064127,415.0904,415.0904,0,151,151,151,1,0.008153941,0.008153941,shape_difference4,1,,TRUE,,intensity,0.1,0.05,0.7,0.3,0.82,20,400,1E-11,3.5,0.01,0.5,0.1,,,,,,,,,,,,,,,,,,,,,,,,,,,,,,,,,,,,,,,,,,,,,,,,,,,,,,,,,,,,,,,,,,,,,,,,,,,,,,,,,
,,,,,059774,001,2025-03-18_22h04.37.229,Utility_discrimination_2024_2cat,2024.2.4,MacIntel,30.03003003,,,,,,,,1,"[0.5,0.5]","[0.924,0.383]",s,"[0.655210823660353,0.5]","[0.344789176339647,0.5]",415.0915,417.5539,0,s,0,0.9119,,-0.816852612,-0.370749143,0.446103469,417.5565,417.5566,0,152,152,152,1,0.155210824,0.155210824,shape_difference0,1,,TRUE,,intensity,0.1,0.05,0.7,0.3,0.82,20,400,1E-11,3.5,0.01,0.5,0.1,,,,,,,,,,,,,,,,,,,,,,,,,,,,,,,,,,,,,,,,,,,,,,,,,,,,,,,,,,,,,,,,,,,,,,,,,,,,,,,,,
,,,,,059774,001,2025-03-18_22h04.37.229,Utility_discrimination_2024_2cat,2024.2.4,MacIntel,30.03003003,,,,,,,,3,"[0.5,0.5]","[0.383,0.924]",d,"[0.03855564719864729,0.30873031696653885]","[0.9614443528013528,0.6912696830334611]",417.5577,419.9204,1,s,1,0.7982,,-0.090580629,0.147870143,0.238450772,419.9222,419.9222,0,153,153,153,1,-0.49939865,-0.49939865,shape_difference1,1,,TRUE,,intensity,0.1,0.05,0.7,0.3,0.82,20,400,1E-11,3.5,0.01,0.5,0.1,,,,,,,,,,,,,,,,,,,,,,,,,,,,,,,,,,,,,,,,,,,,,,,,,,,,,,,,,,,,,,,,,,,,,,,,,,,,,,,,,
,,,,,059774,001,2025-03-18_22h04.37.229,Utility_discrimination_2024_2cat,2024.2.4,MacIntel,30.03003003,,,,,,,,4,"[0.5,0.5]","[0,1]",s,"[0.5076697697991703,0.5185035699593561]","[0.49233023020082967,0.48149643004064396]",419.9237,422.2536,0,s,0,0.7941,,-0.092733874,0.098428791,0.191162665,422.2566,422.2567,0,154,154,154,1,0.020025509,0.020025509,shape_difference3,1,,TRUE,,intensity,0.1,0.05,0.7,0.3,0.82,20,400,1E-11,3.5,0.01,0.5,0.1,,,,,,,,,,,,,,,,,,,,,,,,,,,,,,,,,,,,,,,,,,,,,,,,,,,,,,,,,,,,,,,,,,,,,,,,,,,,,,,,,
,,,,,059774,001,2025-03-18_22h04.37.229,Utility_discrimination_2024_2cat,2024.2.4,MacIntel,30.03003003,,,,,,,,3,"[0.5,0.5]","[0.383,0.924]",d,"[0.5,0.49702546931744535]","[0.5,0.5029745306825546]",422.2577,424.5538,1,s,1,0.7561,,-0.086073603,0.1817864,0.267860004,424.5558,424.5558,0,155,155,155,1,-0.002974531,-0.002974531,shape_difference4,1,,TRUE,,intensity,0.1,0.05,0.7,0.3,0.82,20,400,1E-11,3.5,0.01,0.5,0.1,,,,,,,,,,,,,,,,,,,,,,,,,,,,,,,,,,,,,,,,,,,,,,,,,,,,,,,,,,,,,,,,,,,,,,,,,,,,,,,,,
,,,,,059774,001,2025-03-18_22h04.37.229,Utility_discrimination_2024_2cat,2024.2.4,MacIntel,30.03003003,,,,,,,,0,"[0.5,0.5]","[1,0]",s,"[0.5174981681441337,0.5422149017367612]","[0.48250183185586626,0.45778509826323877]",424.5568,426.7869,1,d,1,0.6667,,0.085700731,0.274933527,0.189232796,426.7882,426.7883,0,156,156,156,1,0.045687123,0.045687123,shape_difference3,1,,TRUE,,intensity,0.1,0.05,0.7,0.3,0.82,20,400,1E-11,3.5,0.01,0.5,0.1,,,,,,,,,,,,,,,,,,,,,,,,,,,,,,,,,,,,,,,,,,,,,,,,,,,,,,,,,,,,,,,,,,,,,,,,,,,,,,,,,
,,,,,059774,001,2025-03-18_22h04.37.229,Utility_discrimination_2024_2cat,2024.2.4,MacIntel,30.03003003,,,,,,,,2,"[0.5,0.5]","[0.707,0.707]",d,"[0.6678275228620933,0.5]","[0.3321724771379067,0.5]",426.7893,429.6538,1,s,1,1.3001,,-0.032624138,0.173570392,0.20619453,429.657,429.657,0,157,157,157,1,0.167827523,0.167827523,shape_difference0,1,,TRUE,,intensity,0.1,0.05,0.7,0.3,0.82,20,400,1E-11,3.5,0.01,0.5,0.1,,,,,,,,,,,,,,,,,,,,,,,,,,,,,,,,,,,,,,,,,,,,,,,,,,,,,,,,,,,,,,,,,,,,,,,,,,,,,,,,,
,,,,,059774,001,2025-03-18_22h04.37.229,Utility_discrimination_2024_2cat,2024.2.4,MacIntel,30.03003003,,,,,,,,1,"[0.5,0.5]","[0.924,0.383]",s,"[0.5473834837327555,0.5473834837327555]","[0.4526165162672445,0.4526165162672445]",429.658,431.987,1,d,1,0.7797,,-0.84176976,-0.399607016,0.442162744,431.9895,431.9895,0,158,158,158,1,0.067020486,0.067020486,shape_difference2,1,,TRUE,,intensity,0.1,0.05,0.7,0.3,0.82,20,400,1E-11,3.5,0.01,0.5,0.1,,,,,,,,,,,,,,,,,,,,,,,,,,,,,,,,,,,,,,,,,,,,,,,,,,,,,,,,,,,,,,,,,,,,,,,,,,,,,,,,,
,,,,,059774,001,2025-03-18_22h04.37.229,Utility_discrimination_2024_2cat,2024.2.4,MacIntel,30.03003003,,,,,,,,0,"[0.5,0.5]","[1,0]",d,"[0.012606772256833987,0.29797445213676127]","[0.9873932277431661,0.7020255478632387]",431.9907,438.4537,0,d,0,4.9199,,0.072859085,0.267415152,0.194556067,438.4556,438.4557,0,159,159,159,1,-0.527481848,-0.527481848,shape_difference1,1,,TRUE,,intensity,0.1,0.05,0.7,0.3,0.82,20,400,1E-11,3.5,0.01,0.5,0.1,,,,,,,,,,,,,,,,,,,,,,,,,,,,,,,,,,,,,,,,,,,,,,,,,,,,,,,,,,,,,,,,,,,,,,,,,,,,,,,,,
,,,,,059774,001,2025-03-18_22h04.37.229,Utility_discrimination_2024_2cat,2024.2.4,MacIntel,30.03003003,,,,,,,,2,"[0.5,0.5]","[0.707,0.707]",s,"[0.6652537125721153,0.5]","[0.3347462874278847,0.5]",438.4567,440.8201,1,s,1,0.8139,,-0.042547789,0.166188281,0.20873607,440.8218,440.8218,0,160,160,160,1,0.165253713,0.165253713,shape_difference0,1,,TRUE,,intensity,0.1,0.05,0.7,0.3,0.82,20,400,1E-11,3.5,0.01,0.5,0.1,,,,,,,,,,,,,,,,,,,,,,,,,,,,,,,,,,,,,,,,,,,,,,,,,,,,,,,,,,,,,,,,,,,,,,,,,,,,,,,,,
,,,,,059774,001,2025-03-18_22h04.37.229,Utility_discrimination_2024_2cat,2024.2.4,MacIntel,30.03003003,,,,,,,,3,"[0.5,0.5]","[0.383,0.924]",s,"[0.5454682282252376,0.5454682282252376]","[0.4545317717747625,0.4545317717747625]",440.8231,442.8536,1,s,1,0.4867,,-0.087839087,0.16800133,0.255840417,442.8561,442.8561,0,161,161,161,1,0.064311497,0.064311497,shape_difference2,1,,TRUE,,intensity,0.1,0.05,0.7,0.3,0.82,20,400,1E-11,3.5,0.01,0.5,0.1,,,,,,,,,,,,,,,,,,,,,,,,,,,,,,,,,,,,,,,,,,,,,,,,,,,,,,,,,,,,,,,,,,,,,,,,,,,,,,,,,
,,,,,059774,001,2025-03-18_22h04.37.229,Utility_discrimination_2024_2cat,2024.2.4,MacIntel,30.03003003,,,,,,,,1,"[0.5,0.5]","[0.924,0.383]",s,"[0.5144195885300857,0.5347877279420347]","[0.4855804114699142,0.46521227205796534]",442.8572,444.8206,1,d,1,0.4002,,-0.637419371,-0.337048679,0.300370691,444.823,444.823,0,162,162,162,1,0.037649056,0.037649056,shape_difference3,1,,TRUE,,intensity,0.1,0.05,0.7,0.3,0.82,20,400,1E-11,3.5,0.01,0.5,0.1,,,,,,,,,,,,,,,,,,,,,,,,,,,,,,,,,,,,,,,,,,,,,,,,,,,,,,,,,,,,,,,,,,,,,,,,,,,,,,,,,
,,,,,059774,001,2025-03-18_22h04.37.229,Utility_discrimination_2024_2cat,2024.2.4,MacIntel,30.03003003,,,,,,,,4,"[0.5,0.5]","[0,1]",d,"[0.08082304322699035,0.3262502441081573]","[0.9191769567730097,0.6737497558918427]",444.8241,446.8203,0,d,0,0.452,,-0.093474064,0.094884439,0.188358503,446.8224,446.8224,0,163,163,163,1,-0.453654715,-0.453654715,shape_difference1,1,,TRUE,,intensity,0.1,0.05,0.7,0.3,0.82,20,400,1E-11,3.5,0.01,0.5,0.1,,,,,,,,,,,,,,,,,,,,,,,,,,,,,,,,,,,,,,,,,,,,,,,,,,,,,,,,,,,,,,,,,,,,,,,,,,,,,,,,,
,,,,,059774,001,2025-03-18_22h04.37.229,Utility_discrimination_2024_2cat,2024.2.4,MacIntel,30.03003003,,,,,,,,0,"[0.5,0.5]","[1,0]",s,"[0.5,0.4900360112819115]","[0.5,0.5099639887180885]",446.8242,448.4869,1,d,1,0.1187,,0.062337978,0.258729063,0.196391085,448.489,448.4897,0,164,164,164,1,-0.009963989,-0.009963989,shape_difference4,1,,TRUE,,intensity,0.1,0.05,0.7,0.3,0.82,20,400,1E-11,3.5,0.01,0.5,0.1,,,,,,,,,,,,,,,,,,,,,,,,,,,,,,,,,,,,,,,,,,,,,,,,,,,,,,,,,,,,,,,,,,,,,,,,,,,,,,,,,
,,,,,059774,001,2025-03-18_22h04.37.229,Utility_discrimination_2024_2cat,2024.2.4,MacIntel,30.03003003,,,,,,,,1,"[0.5,0.5]","[0.924,0.383]",d,"[0.6629943193694714,0.5]","[0.33700568063052855,0.5]",448.4908,450.9205,0,s,0,0.8814,,-0.579111292,-0.321262817,0.257848475,450.924,450.924,0,165,165,165,1,0.162994319,0.162994319,shape_difference0,1,,TRUE,,intensity,0.1,0.05,0.7,0.3,0.82,20,400,1E-11,3.5,0.01,0.5,0.1,,,,,,,,,,,,,,,,,,,,,,,,,,,,,,,,,,,,,,,,,,,,,,,,,,,,,,,,,,,,,,,,,,,,,,,,,,,,,,,,,
,,,,,059774,001,2025-03-18_22h04.37.229,Utility_discrimination_2024_2cat,2024.2.4,MacIntel,30.03003003,,,,,,,,2,"[0.5,0.5]","[0.707,0.707]",d,"[0.09703229437657118,0.33296901379461774]","[0.9029677056234289,0.6670309862053823]",450.9251,453.0539,1,d,1,0.5793,,-0.050683592,0.157541537,0.208225129,453.0565,453.0566,0,166,166,166,1,-0.436112236,-0.436112236,shape_difference1,1,,TRUE,,intensity,0.1,0.05,0.7,0.3,0.82,20,400,1E-11,3.5,0.01,0.5,0.1,,,,,,,,,,,,,,,,,,,,,,,,,,,,,,,,,,,,,,,,,,,,,,,,,,,,,,,,,,,,,,,,,,,,,,,,,,,,,,,,,
,,,,,059774,001,2025-03-18_22h04.37.229,Utility_discrimination_2024_2cat,2024.2.4,MacIntel,30.03003003,,,,,,,,3,"[0.5,0.5]","[0.383,0.924]",d,"[0.5437553600774467,0.5437553600774467]","[0.45624463992255326,0.45624463992255326]",453.0577,455.3536,1,s,1,0.7577,,-0.089245447,0.151320258,0.240565704,455.3558,455.3558,0,167,167,167,1,0.06188877,0.06188877,shape_difference2,1,,TRUE,,intensity,0.1,0.05,0.7,0.3,0.82,20,400,1E-11,3.5,0.01,0.5,0.1,,,,,,,,,,,,,,,,,,,,,,,,,,,,,,,,,,,,,,,,,,,,,,,,,,,,,,,,,,,,,,,,,,,,,,,,,,,,,,,,,
,,,,,059774,001,2025-03-18_22h04.37.229,Utility_discrimination_2024_2cat,2024.2.4,MacIntel,30.03003003,,,,,,,,4,"[0.5,0.5]","[0,1]",s,"[0.5110550099758862,0.526670572370023]","[0.48894499002411385,0.473329427629977]",455.3576,457.6204,1,s,1,0.7154,,-0.094127038,0.091259481,0.185386519,457.6241,457.6241,0,168,168,168,1,0.028864256,0.028864256,shape_difference3,1,,TRUE,,intensity,0.1,0.05,0.7,0.3,0.82,20,400,1E-11,3.5,0.01,0.5,0.1,,,,,,,,,,,,,,,,,,,,,,,,,,,,,,,,,,,,,,,,,,,,,,,,,,,,,,,,,,,,,,,,,,,,,,,,,,,,,,,,,
,,,,,059774,001,2025-03-18_22h04.37.229,Utility_discrimination_2024_2cat,2024.2.4,MacIntel,30.03003003,,,,,,,,4,"[0.5,0.5]","[0,1]",s,"[0.5,0.48434342454076357]","[0.5,0.5156565754592364]",457.6254,459.7864,0,s,0,0.6165,,-0.091413699,0.099561816,0.190975515,459.7888,459.7888,0,169,169,169,1,-0.015656575,-0.015656575,shape_difference4,1,,TRUE,,intensity,0.1,0.05,0.7,0.3,0.82,20,400,1E-11,3.5,0.01,0.5,0.1,,,,,,,,,,,,,,,,,,,,,,,,,,,,,,,,,,,,,,,,,,,,,,,,,,,,,,,,,,,,,,,,,,,,,,,,,,,,,,,,,
,,,,,059774,001,2025-03-18_22h04.37.229,Utility_discrimination_2024_2cat,2024.2.4,MacIntel,30.03003003,,,,,,,,1,"[0.5,0.5]","[0.924,0.383]",d,"[0.5,0.5080685497363518]","[0.5,0.49193145026364815]",459.79,461.7537,1,s,1,0.4227,,-0.583348264,-0.32821542,0.255132844,461.7557,461.7557,0,170,170,170,1,0.00806855,0.00806855,shape_difference4,1,,TRUE,,intensity,0.1,0.05,0.7,0.3,0.82,20,400,1E-11,3.5,0.01,0.5,0.1,,,,,,,,,,,,,,,,,,,,,,,,,,,,,,,,,,,,,,,,,,,,,,,,,,,,,,,,,,,,,,,,,,,,,,,,,,,,,,,,,
,,,,,059774,001,2025-03-18_22h04.37.229,Utility_discrimination_2024_2cat,2024.2.4,MacIntel,30.03003003,,,,,,,,2,"[0.5,0.5]","[0.707,0.707]",s,"[0.09245718340861936,0.33107262039556407]","[0.9075428165913806,0.6689273796044359]",461.7574,463.6539,1,d,1,0.3336,,-0.0574068,0.147249804,0.204656604,463.6576,463.6576,0,171,171,171,1,-0.441063654,-0.441063654,shape_difference1,1,,TRUE,,intensity,0.1,0.05,0.7,0.3,0.82,20,400,1E-11,3.5,0.01,0.5,0.1,,,,,,,,,,,,,,,,,,,,,,,,,,,,,,,,,,,,,,,,,,,,,,,,,,,,,,,,,,,,,,,,,,,,,,,,,,,,,,,,,
,,,,,059774,001,2025-03-18_22h04.37.229,Utility_discrimination_2024_2cat,2024.2.4,MacIntel,30.03003003,,,,,,,,0,"[0.5,0.5]","[1,0]",d,"[0.5421835593220099,0.5421835593220099]","[0.4578164406779901,0.4578164406779901]",463.6587,466.3203,1,d,1,1.1132,,0.10346022,0.280909086,0.177448866,466.3226,466.3226,0,172,172,172,1,0.059665572,0.059665572,shape_difference2,1,,TRUE,,intensity,0.1,0.05,0.7,0.3,0.82,20,400,1E-11,3.5,0.01,0.5,0.1,,,,,,,,,,,,,,,,,,,,,,,,,,,,,,,,,,,,,,,,,,,,,,,,,,,,,,,,,,,,,,,,,,,,,,,,,,,,,,,,,
,,,,,059774,001,2025-03-18_22h04.37.229,Utility_discrimination_2024_2cat,2024.2.4,MacIntel,30.03003003,,,,,,,,3,"[0.5,0.5]","[0.383,0.924]",d,"[0.6723090501963057,0.5]","[0.3276909498036943,0.5]",466.3237,468.3871,1,d,1,0.5196,,-0.090375736,0.130604661,0.220980397,468.3893,468.3894,0,173,173,173,1,0.17230905,0.17230905,shape_difference0,1,,TRUE,,intensity,0.1,0.05,0.7,0.3,0.82,20,400,1E-11,3.5,0.01,0.5,0.1,,,,,,,,,,,,,,,,,,,,,,,,,,,,,,,,,,,,,,,,,,,,,,,,,,,,,,,,,,,,,,,,,,,,,,,,,,,,,,,,,
,,,,,059774,001,2025-03-18_22h04.37.229,Utility_discrimination_2024_2cat,2024.2.4,MacIntel,30.03003003,,,,,,,,4,"[0.5,0.5]","[0,1]",d,"[0.5072912817056923,0.5175904550810958]","[0.4927087182943077,0.48240954491890425]",468.3905,470.4539,0,s,0,0.4996,,-0.092186837,0.096443336,0.188630172,470.4577,470.4577,0,174,174,174,1,0.019037289,0.019037289,shape_difference3,1,,TRUE,,intensity,0.1,0.05,0.7,0.3,0.82,20,400,1E-11,3.5,0.01,0.5,0.1,,,,,,,,,,,,,,,,,,,,,,,,,,,,,,,,,,,,,,,,,,,,,,,,,,,,,,,,,,,,,,,,,,,,,,,,,,,,,,,,,
,,,,,059774,001,2025-03-18_22h04.37.229,Utility_discrimination_2024_2cat,2024.2.4,MacIntel,30.03003003,,,,,,,,1,"[0.5,0.5]","[0.924,0.383]",d,"[0.5,0.4972784429605227]","[0.5,0.5027215570394773]",470.4588,472.4196,1,s,1,0.4136,,-0.586852803,-0.336586596,0.250266207,472.4228,472.4229,0,175,175,175,1,-0.002721557,-0.002721557,shape_difference4,1,,TRUE,,intensity,0.1,0.05,0.7,0.3,0.82,20,400,1E-11,3.5,0.01,0.5,0.1,,,,,,,,,,,,,,,,,,,,,,,,,,,,,,,,,,,,,,,,,,,,,,,,,,,,,,,,,,,,,,,,,,,,,,,,,,,,,,,,,
,,,,,059774,001,2025-03-18_22h04.37.229,Utility_discrimination_2024_2cat,2024.2.4,MacIntel,30.03003003,,,,,,,,0,"[0.5,0.5]","[1,0]",s,"[0.08809881150346871,0.3292660658071737]","[0.9119011884965313,0.6707339341928262]",472.424,474.4206,1,d,1,0.4338,,0.102816592,0.274974972,0.17215838,474.4236,474.4236,0,176,176,176,1,-0.445780507,-0.445780507,shape_difference1,1,,TRUE,,intensity,0.1,0.05,0.7,0.3,0.82,20,400,1E-11,3.5,0.01,0.5,0.1,,,,,,,,,,,,,,,,,,,,,,,,,,,,,,,,,,,,,,,,,,,,,,,,,,,,,,,,,,,,,,,,,,,,,,,,,,,,,,,,,
,,,,,059774,001,2025-03-18_22h04.37.229,Utility_discrimination_2024_2cat,2024.2.4,MacIntel,30.03003003,,,,,,,,3,"[0.5,0.5]","[0.383,0.924]",d,"[0.6695644036184234,0.5]","[0.3304355963815766,0.5]",474.4247,476.7536,1,d,1,0.791,,-0.08617283,0.16893249,0.255105321,476.7558,476.7558,0,177,177,177,1,0.169564404,0.169564404,shape_difference0,1,,TRUE,,intensity,0.1,0.05,0.7,0.3,0.82,20,400,1E-11,3.5,0.01,0.5,0.1,,,,,,,,,,,,,,,,,,,,,,,,,,,,,,,,,,,,,,,,,,,,,,,,,,,,,,,,,,,,,,,,,,,,,,,,,,,,,,,,,
,,,,,059774,001,2025-03-18_22h04.37.229,Utility_discrimination_2024_2cat,2024.2.4,MacIntel,30.03003003,,,,,,,,2,"[0.5,0.5]","[0.707,0.707]",d,"[0.5166023884672866,0.5400538040307384]","[0.4833976115327134,0.45994619596926156]",476.7576,478.7536,1,s,1,0.449,,-0.063001566,0.134839812,0.197841379,478.7565,478.7566,0,178,178,178,1,0.043348273,0.043348273,shape_difference3,1,,TRUE,,intensity,0.1,0.05,0.7,0.3,0.82,20,400,1E-11,3.5,0.01,0.5,0.1,,,,,,,,,,,,,,,,,,,,,,,,,,,,,,,,,,,,,,,,,,,,,,,,,,,,,,,,,,,,,,,,,,,,,,,,,,,,,,,,,
,,,,,059774,001,2025-03-18_22h04.37.229,Utility_discrimination_2024_2cat,2024.2.4,MacIntel,30.03003003,,,,,,,,4,"[0.5,0.5]","[0,1]",s,"[0.5407003513380797,0.5407003513380797]","[0.45929964866192036,0.45929964866192036]",478.7576,480.7538,1,d,1,0.4454,,-0.092835302,0.093300825,0.186136127,480.7576,480.7576,0,179,179,179,1,0.057567682,0.057567682,shape_difference2,1,,TRUE,,intensity,0.1,0.05,0.7,0.3,0.82,20,400,1E-11,3.5,0.01,0.5,0.1,,,,,,,,,,,,,,,,,,,,,,,,,,,,,,,,,,,,,,,,,,,,,,,,,,,,,,,,,,,,,,,,,,,,,,,,,,,,,,,,,
,,,,,059774,001,2025-03-18_22h04.37.229,Utility_discrimination_2024_2cat,2024.2.4,MacIntel,30.03003003,,,,,,,,1,"[0.5,0.5]","[0.924,0.383]",d,"[0.5,0.49041664741306334]","[0.5,0.5095833525869367]",480.7587,483.1871,1,s,1,0.8823,,-0.589793269,-0.346873729,0.24291954,483.1894,483.1895,0,180,180,180,1,-0.009583353,-0.009583353,shape_difference4,1,,TRUE,,intensity,0.1,0.05,0.7,0.3,0.82,20,400,1E-11,3.5,0.01,0.5,0.1,,,,,,,,,,,,,,,,,,,,,,,,,,,,,,,,,,,,,,,,,,,,,,,,,,,,,,,,,,,,,,,,,,,,,,,,,,,,,,,,,
,,,,,059774,001,2025-03-18_22h04.37.229,Utility_discrimination_2024_2cat,2024.2.4,MacIntel,30.03003003,,,,,,,,3,"[0.5,0.5]","[0.383,0.924]",s,"[0.08381632646383641,0.327490966488798]","[0.9161836735361636,0.6725090335112021]",483.1905,485.3871,1,s,1,0.6486,,-0.087851494,0.153811091,0.241662585,485.3894,485.3894,0,181,181,181,1,-0.450415231,-0.450415231,shape_difference1,1,,TRUE,,intensity,0.1,0.05,0.7,0.3,0.82,20,400,1E-11,3.5,0.01,0.5,0.1,,,,,,,,,,,,,,,,,,,,,,,,,,,,,,,,,,,,,,,,,,,,,,,,,,,,,,,,,,,,,,,,,,,,,,,,,,,,,,,,,
,,,,,059774,001,2025-03-18_22h04.37.229,Utility_discrimination_2024_2cat,2024.2.4,MacIntel,30.03003003,,,,,,,,0,"[0.5,0.5]","[1,0]",s,"[0.5137629625519021,0.5332035963393149]","[0.4862370374480978,0.4667964036606851]",485.3914,487.9872,1,d,1,1.0338,,0.102147041,0.268261701,0.16611466,487.991,487.991,0,182,182,182,1,0.035934628,0.035934628,shape_difference3,1,,TRUE,,intensity,0.1,0.05,0.7,0.3,0.82,20,400,1E-11,3.5,0.01,0.5,0.1,,,,,,,,,,,,,,,,,,,,,,,,,,,,,,,,,,,,,,,,,,,,,,,,,,,,,,,,,,,,,,,,,,,,,,,,,,,,,,,,,
,,,,,059774,001,2025-03-18_22h04.37.229,Utility_discrimination_2024_2cat,2024.2.4,MacIntel,30.03003003,,,,,,,,2,"[0.5,0.5]","[0.707,0.707]",d,"[0.6672601208091393,0.5]","[0.3327398791908607,0.5]",487.9921,490.187,1,d,1,0.6519,,-0.067685696,0.119714993,0.187400689,490.189,490.189,0,183,183,183,1,0.167260121,0.167260121,shape_difference0,1,,TRUE,,intensity,0.1,0.05,0.7,0.3,0.82,20,400,1E-11,3.5,0.01,0.5,0.1,,,,,,,,,,,,,,,,,,,,,,,,,,,,,,,,,,,,,,,,,,,,,,,,,,,,,,,,,,,,,,,,,,,,,,,,,,,,,,,,,
,,,,,059774,001,2025-03-18_22h04.37.229,Utility_discrimination_2024_2cat,2024.2.4,MacIntel,30.03003003,,,,,,,,0,"[0.5,0.5]","[1,0]",d,"[0.5392595563759031,0.5392595563759031]","[0.46074044362409694,0.46074044362409694]",490.1899,492.6204,1,s,1,0.8827,,0.101433768,0.260526583,0.159092815,492.6226,492.6226,0,184,184,184,1,0.055529783,0.055529783,shape_difference2,1,,TRUE,,intensity,0.1,0.05,0.7,0.3,0.82,20,400,1E-11,3.5,0.01,0.5,0.1,,,,,,,,,,,,,,,,,,,,,,,,,,,,,,,,,,,,,,,,,,,,,,,,,,,,,,,,,,,,,,,,,,,,,,,,,,,,,,,,,
,,,,,059774,001,2025-03-18_22h04.37.229,Utility_discrimination_2024_2cat,2024.2.4,MacIntel,30.03003003,,,,,,,,3,"[0.5,0.5]","[0.383,0.924]",s,"[0.665301090293157,0.5]","[0.334698909706843,0.5]",492.6236,495.0537,1,d,1,0.8817,,-0.089196502,0.135184018,0.22438052,495.0572,495.0572,0,185,185,185,1,0.16530109,0.16530109,shape_difference0,1,,TRUE,,intensity,0.1,0.05,0.7,0.3,0.82,20,400,1E-11,3.5,0.01,0.5,0.1,,,,,,,,,,,,,,,,,,,,,,,,,,,,,,,,,,,,,,,,,,,,,,,,,,,,,,,,,,,,,,,,,,,,,,,,,,,,,,,,,
,,,,,059774,001,2025-03-18_22h04.37.229,Utility_discrimination_2024_2cat,2024.2.4,MacIntel,30.03003003,,,,,,,,4,"[0.5,0.5]","[0,1]",d,"[0.5106137890145884,0.5256061124007303]","[0.4893862109854116,0.4743938875992697]",495.0582,497.7206,0,s,0,1.1003,,-0.093387356,0.09003494,0.183422295,497.7241,497.7241,0,186,186,186,1,0.027712243,0.027712243,shape_difference3,1,,TRUE,,intensity,0.1,0.05,0.7,0.3,0.82,20,400,1E-11,3.5,0.01,0.5,0.1,,,,,,,,,,,,,,,,,,,,,,,,,,,,,,,,,,,,,,,,,,,,,,,,,,,,,,,,,,,,,,,,,,,,,,,,,,,,,,,,,
,,,,,059774,001,2025-03-18_22h04.37.229,Utility_discrimination_2024_2cat,2024.2.4,MacIntel,30.03003003,,,,,,,,2,"[0.5,0.5]","[0.707,0.707]",d,"[0.5,0.48481330590876726]","[0.5,0.5151866940912327]",497.7252,502.8204,0,d,0,3.549,,-0.07162813,0.101115413,0.172743543,502.8238,502.8238,0,187,187,187,1,-0.015186694,-0.015186694,shape_difference4,1,,TRUE,,intensity,0.1,0.05,0.7,0.3,0.82,20,400,1E-11,3.5,0.01,0.5,0.1,,,,,,,,,,,,,,,,,,,,,,,,,,,,,,,,,,,,,,,,,,,,,,,,,,,,,,,,,,,,,,,,,,,,,,,,,,,,,,,,,
,,,,,059774,001,2025-03-18_22h04.37.229,Utility_discrimination_2024_2cat,2024.2.4,MacIntel,30.03003003,,,,,,,,1,"[0.5,0.5]","[0.924,0.383]",s,"[0.5378192613263553,0.5378192613263553]","[0.4621807386736447,0.4621807386736447]",502.8248,520.2037,1,d,1,15.8353,,-0.593573767,-0.358213396,0.235360371,520.2063,520.2063,0,188,188,188,1,0.05349259,0.05349259,shape_difference2,1,,TRUE,,intensity,0.1,0.05,0.7,0.3,0.82,20,400,1E-11,3.5,0.01,0.5,0.1,,,,,,,,,,,,,,,,,,,,,,,,,,,,,,,,,,,,,,,,,,,,,,,,,,,,,,,,,,,,,,,,,,,,,,,,,,,,,,,,,
,,,,,059774,001,2025-03-18_22h04.37.229,Utility_discrimination_2024_2cat,2024.2.4,MacIntel,30.03003003,,,,,,,,0,"[0.5,0.5]","[1,0]",d,"[0.07880565065627859,0.32541403052094664]","[0.9211943493437214,0.6745859694790534]",520.2081,522.5359,1,s,1,0.8011,,0.100659023,0.25148352,0.150824497,522.5382,522.5383,0,189,189,189,1,-0.45583804,-0.45583804,shape_difference1,1,,TRUE,,intensity,0.1,0.05,0.7,0.3,0.82,20,400,1E-11,3.5,0.01,0.5,0.1,,,,,,,,,,,,,,,,,,,,,,,,,,,,,,,,,,,,,,,,,,,,,,,,,,,,,,,,,,,,,,,,,,,,,,,,,,,,,,,,,
,,,,,059774,001,2025-03-18_22h04.37.229,Utility_discrimination_2024_2cat,2024.2.4,MacIntel,30.03003003,,,,,,,,2,"[0.5,0.5]","[0.707,0.707]",s,"[0.6636104746877948,0.5]","[0.33638952531220523,0.5]",522.5394,524.7026,1,d,1,0.6356,,-0.074961403,0.098841823,0.173803226,524.7057,524.7058,0,190,190,190,1,0.163610475,0.163610475,shape_difference0,1,,TRUE,,intensity,0.1,0.05,0.7,0.3,0.82,20,400,1E-11,3.5,0.01,0.5,0.1,,,,,,,,,,,,,,,,,,,,,,,,,,,,,,,,,,,,,,,,,,,,,,,,,,,,,,,,,,,,,,,,,,,,,,,,,,,,,,,,,
