Consent.started,Consent.stopped,key_resp.keys,key_resp.rt,key_resp.duration,participant,session,date,expName,psychopyVersion,OS,frameRate,SetupExperiment.started,SetupExperiment.stopped,DiscrimInstructions_Pre.started,DiscrimInstructions_Pre.stopped,KeyboardResponse.keys,KeyboardResponse.rt,KeyboardResponse.duration,feature_index,feature_center,feature_vector,correct_answer,coord1,coord2,DiscriminationTrial.started,DiscriminationTrial.stopped,PreTest.response,Resp_s_or_d.keys,Resp_s_or_d.corr,Resp_s_or_d.rt,Resp_s_or_d.duration,PreTest.CI_lower,PreTest.CI_upper,PreTest.CI_width,CrashPretest_2.started,CrashPretest_2.stopped,PreTest.thisRepN,PreTest.thisTrialN,PreTest.thisN,PreTest.thisIndex,PreTest.ran,PreTest.intensity,intensity,PreTest.label,PreTest.nReps,PreTest.method,PreTest.autoLog,PreTest.seed,PreTest.varName,PreTest.startVal,PreTest.minVal,PreTest.maxVal,PreTest.startValSd,PreTest.pThreshold,PreTest.nTrials,PreTest.maxTrials,PreTest.stopInterval,PreTest.beta,PreTest.delta,PreTest.gamma,PreTest.grain,WelcomeToCategorizationTask.started,WelcomeToCategorizationTask.stopped,PressAnyKey3.keys,PressAnyKey3.rt,PressAnyKey3.duration,shape_coordinates,category_center,category_sigma,subspace_center,subspace_vector1,subspace_vector2,CategorizationTrial.started,CategorizationTrial.stopped,Respond_1or2.keys,Respond_1or2.rt,Respond_1or2.duration,Feedback.started,Feedback.stopped,xcoord,ycoord,shape_coord,numeric_response_minus1,correctness,truecategory,mixture_index,respAifA,respBifA,respAifB,respBifB,trial_number,D,muAx,muAy,muBx,muBy,sigmaA,sigmaB,priorA,priorB,TrialLoop.thisRepN,TrialLoop.thisTrialN,TrialLoop.thisN,TrialLoop.thisIndex,TrialLoop.ran,DiscriminationInstructions_Post.started,DiscriminationInstructions_Post.stopped,key_resp_2.keys,key_resp_2.rt,key_resp_2.duration,PostTest.response,PostTest.CI_lower,PostTest.CI_upper,PostTest.CI_width,CrashPosttest.started,CrashPosttest.stopped,PostTest.thisRepN,PostTest.thisTrialN,PostTest.thisN,PostTest.thisIndex,PostTest.ran,PostTest.intensity,PostTest.label,PostTest.nReps,PostTest.method,PostTest.autoLog,PostTest.seed,PostTest.varName,PostTest.startVal,PostTest.minVal,PostTest.maxVal,PostTest.startValSd,PostTest.pThreshold,PostTest.nTrials,PostTest.maxTrials,PostTest.stopInterval,PostTest.beta,PostTest.delta,PostTest.gamma,PostTest.grain,Thanks.started,Thanks.stopped
0.0012,22.4343,y,22.2553,,166849,001,2025-03-19_19h23.08.912,Utility_discrimination_2024_2cat,2024.2.4,Win32,59.52380952,,,,,,,,,,,,,,,,,,,,,,,,,,,,,,,,,,,,,,,,,,,,,,,,,,,,,,,,,,,,,,,,,,,,,,,,,,,,,,,,,,,,,,,,,,,,,,,,,,,,,,,,,,,,,,,,,,,,,,,,,,,,,,,,,,,
,,,,,166849,001,2025-03-19_19h23.08.912,Utility_discrimination_2024_2cat,2024.2.4,Win32,59.52380952,22.4345,22.4346,,,,,,,,,,,,,,,,,,,,,,,,,,,,,,,,,,,,,,,,,,,,,,,,,,,,,,,,,,,,,,,,,,,,,,,,,,,,,,,,,,,,,,,,,,,,,,,,,,,,,,,,,,,,,,,,,,,,,,,,,,,,,,,,,
,,,,,166849,001,2025-03-19_19h23.08.912,Utility_discrimination_2024_2cat,2024.2.4,Win32,59.52380952,,,22.4347,34.7239,space,12.2418,,,,,,,,,,,,,,,,,,,,,,,,,,,,,,,,,,,,,,,,,,,,,,,,,,,,,,,,,,,,,,,,,,,,,,,,,,,,,,,,,,,,,,,,,,,,,,,,,,,,,,,,,,,,,,,,,,,,,,,,,,,,,
,,,,,166849,001,2025-03-19_19h23.08.912,Utility_discrimination_2024_2cat,2024.2.4,Win32,59.52380952,,,,,,,,1,"[0.5,0.5]","[0.924,0.383]",,"[0.6185239449756466,0.5]","[0.3814760550243534,0.5]",34.778,38.2506,0,s,0,1.9381,,-0.447967632,0.547967632,0.995935263,38.2561,38.2563,0,0,0,0,1,0.118523945,0.118523945,shape_difference2,1,,TRUE,,intensity,0.1,0.05,0.7,0.3,0.82,20,400,1E-11,3.5,0.01,0.5,0.1,,,,,,,,,,,,,,,,,,,,,,,,,,,,,,,,,,,,,,,,,,,,,,,,,,,,,,,,,,,,,,,,,,,,,,,,,,,,,,,,,
,,,,,166849,001,2025-03-19_19h23.08.912,Utility_discrimination_2024_2cat,2024.2.4,Win32,59.52380952,,,,,,,,4,"[0.5,0.5]","[0,1]",d,"[0.6095161251574974,0.5453946709256726]","[0.3904838748425025,0.4546053290743273]",38.2585,40.887,1,s,1,1.0951,,-0.447967632,0.547967632,0.995935263,40.8898,40.8899,0,1,1,1,1,0.118523945,0.118523945,shape_difference1,1,,TRUE,,intensity,0.1,0.05,0.7,0.3,0.82,20,400,1E-11,3.5,0.01,0.5,0.1,,,,,,,,,,,,,,,,,,,,,,,,,,,,,,,,,,,,,,,,,,,,,,,,,,,,,,,,,,,,,,,,,,,,,,,,,,,,,,,,,
,,,,,166849,001,2025-03-19_19h23.08.912,Utility_discrimination_2024_2cat,2024.2.4,Win32,59.52380952,,,,,,,,0,"[0.5,0.5]","[1,0]",s,"[0.5,0.6185239449756466]","[0.5,0.3814760550243534]",40.892,43.3725,1,d,1,0.9407,,-0.447967632,0.547967632,0.995935263,43.3761,43.3761,0,2,2,2,1,0.118523945,0.118523945,shape_difference4,1,,TRUE,,intensity,0.1,0.05,0.7,0.3,0.82,20,400,1E-11,3.5,0.01,0.5,0.1,,,,,,,,,,,,,,,,,,,,,,,,,,,,,,,,,,,,,,,,,,,,,,,,,,,,,,,,,,,,,,,,,,,,,,,,,,,,,,,,,
,,,,,166849,001,2025-03-19_19h23.08.912,Utility_discrimination_2024_2cat,2024.2.4,Win32,59.52380952,,,,,,,,3,"[0.5,0.5]","[0.383,0.924]",d,"[0.6185239449756466,0.5]","[0.3814760550243534,0.5]",43.3776,46.3587,1,s,1,1.4403,,-0.447967632,0.547967632,0.995935263,46.3623,46.3623,0,3,3,3,1,0.118523945,0.118523945,shape_difference0,1,,TRUE,,intensity,0.1,0.05,0.7,0.3,0.82,20,400,1E-11,3.5,0.01,0.5,0.1,,,,,,,,,,,,,,,,,,,,,,,,,,,,,,,,,,,,,,,,,,,,,,,,,,,,,,,,,,,,,,,,,,,,,,,,,,,,,,,,,
,,,,,166849,001,2025-03-19_19h23.08.912,Utility_discrimination_2024_2cat,2024.2.4,Win32,59.52380952,,,,,,,,0,"[0.5,0.5]","[1,0]",s,"[0.5453946709256726,0.6095161251574974]","[0.4546053290743273,0.3904838748425025]",46.3645,48.857,1,s,1,0.9528,,-0.479157219,0.478510979,0.957668197,48.861,48.8611,0,4,4,4,1,0.118523945,0.118523945,shape_difference3,1,,TRUE,,intensity,0.1,0.05,0.7,0.3,0.82,20,400,1E-11,3.5,0.01,0.5,0.1,,,,,,,,,,,,,,,,,,,,,,,,,,,,,,,,,,,,,,,,,,,,,,,,,,,,,,,,,,,,,,,,,,,,,,,,,,,,,,,,,
,,,,,166849,001,2025-03-19_19h23.08.912,Utility_discrimination_2024_2cat,2024.2.4,Win32,59.52380952,,,,,,,,4,"[0.5,0.5]","[0,1]",s,"[0.5370015867235566,0.5]","[0.4629984132764434,0.5]",48.8631,50.9475,0,s,0,0.5577,,-0.479157219,0.478510979,0.957668197,50.9541,50.9542,0,5,5,5,1,0.037001587,0.037001587,shape_difference0,1,,TRUE,,intensity,0.1,0.05,0.7,0.3,0.82,20,400,1E-11,3.5,0.01,0.5,0.1,,,,,,,,,,,,,,,,,,,,,,,,,,,,,,,,,,,,,,,,,,,,,,,,,,,,,,,,,,,,,,,,,,,,,,,,,,,,,,,,,
,,,,,166849,001,2025-03-19_19h23.08.912,Utility_discrimination_2024_2cat,2024.2.4,Win32,59.52380952,,,,,,,,1,"[0.5,0.5]","[0.924,0.383]",d,"[0.5,0.5370015867235566]","[0.5,0.4629984132764434]",50.9567,53.5171,1,s,1,1.024,,-0.479157219,0.478510979,0.957668197,53.5195,53.5195,0,6,6,6,1,0.037001587,0.037001587,shape_difference4,1,,TRUE,,intensity,0.1,0.05,0.7,0.3,0.82,20,400,1E-11,3.5,0.01,0.5,0.1,,,,,,,,,,,,,,,,,,,,,,,,,,,,,,,,,,,,,,,,,,,,,,,,,,,,,,,,,,,,,,,,,,,,,,,,,,,,,,,,,
,,,,,166849,001,2025-03-19_19h23.08.912,Utility_discrimination_2024_2cat,2024.2.4,Win32,59.52380952,,,,,,,,3,"[0.5,0.5]","[0.383,0.924]",s,"[0.5341894661325662,0.5141716077151222]","[0.46581053386743376,0.48582839228487784]",53.5206,55.6862,0,s,0,0.6243,,-0.479157219,0.478510979,0.957668197,55.6902,55.6902,0,7,7,7,1,0.037001587,0.037001587,shape_difference1,1,,TRUE,,intensity,0.1,0.05,0.7,0.3,0.82,20,400,1E-11,3.5,0.01,0.5,0.1,,,,,,,,,,,,,,,,,,,,,,,,,,,,,,,,,,,,,,,,,,,,,,,,,,,,,,,,,,,,,,,,,,,,,,,,,,,,,,,,,
,,,,,166849,001,2025-03-19_19h23.08.912,Utility_discrimination_2024_2cat,2024.2.4,Win32,59.52380952,,,,,,,,2,"[0.5,0.5]","[0.707,0.707]",d,"[0.5141716077151222,0.5341894661325662]","[0.48582839228487784,0.46581053386743376]",55.6914,57.9706,0,s,0,0.7397,,0.008797352,0.664308158,0.655510806,57.9731,57.9731,0,8,8,8,1,0.037001587,0.037001587,shape_difference3,1,,TRUE,,intensity,0.1,0.05,0.7,0.3,0.82,20,400,1E-11,3.5,0.01,0.5,0.1,,,,,,,,,,,,,,,,,,,,,,,,,,,,,,,,,,,,,,,,,,,,,,,,,,,,,,,,,,,,,,,,,,,,,,,,,,,,,,,,,
,,,,,166849,001,2025-03-19_19h23.08.912,Utility_discrimination_2024_2cat,2024.2.4,Win32,59.52380952,,,,,,,,4,"[0.5,0.5]","[0,1]",d,"[0.7295760208722043,0.7295760208722043]","[0.2704239791277957,0.2704239791277957]",57.9742,60.3582,1,d,1,0.8416,,-0.510435314,0.404710629,0.915145943,60.3618,60.3618,0,9,9,9,1,0.324718559,0.324718559,shape_difference2,1,,TRUE,,intensity,0.1,0.05,0.7,0.3,0.82,20,400,1E-11,3.5,0.01,0.5,0.1,,,,,,,,,,,,,,,,,,,,,,,,,,,,,,,,,,,,,,,,,,,,,,,,,,,,,,,,,,,,,,,,,,,,,,,,,,,,,,,,,
,,,,,166849,001,2025-03-19_19h23.08.912,Utility_discrimination_2024_2cat,2024.2.4,Win32,59.52380952,,,,,,,,0,"[0.5,0.5]","[1,0]",d,"[0.5,0.4627317496680746]","[0.5,0.5372682503319254]",60.3635,62.544,0,s,0,0.6412,,-0.090065158,0.591798206,0.681863364,62.5467,62.5467,0,10,10,10,1,-0.03726825,-0.03726825,shape_difference4,1,,TRUE,,intensity,0.1,0.05,0.7,0.3,0.82,20,400,1E-11,3.5,0.01,0.5,0.1,,,,,,,,,,,,,,,,,,,,,,,,,,,,,,,,,,,,,,,,,,,,,,,,,,,,,,,,,,,,,,,,,,,,,,,,,,,,,,,,,
,,,,,166849,001,2025-03-19_19h23.08.912,Utility_discrimination_2024_2cat,2024.2.4,Win32,59.52380952,,,,,,,,1,"[0.5,0.5]","[0.924,0.383]",d,"[0.7256621725789216,0.5]","[0.2743378274210784,0.5]",62.5479,64.6293,1,d,1,0.5408,,-0.090065158,0.591798206,0.681863364,64.6339,64.6339,0,11,11,11,1,0.225662173,0.225662173,shape_difference0,1,,TRUE,,intensity,0.1,0.05,0.7,0.3,0.82,20,400,1E-11,3.5,0.01,0.5,0.1,,,,,,,,,,,,,,,,,,,,,,,,,,,,,,,,,,,,,,,,,,,,,,,,,,,,,,,,,,,,,,,,,,,,,,,,,,,,,,,,,
,,,,,166849,001,2025-03-19_19h23.08.912,Utility_discrimination_2024_2cat,2024.2.4,Win32,59.52380952,,,,,,,,2,"[0.5,0.5]","[0.707,0.707]",d,"[0.7085118474629236,0.586428612097727]","[0.2914881525370764,0.413571387902273]",64.6355,67.2602,0,d,0,1.0911,,-0.003741292,0.604569979,0.608311271,67.2628,67.2628,0,12,12,12,1,0.225662173,0.225662173,shape_difference1,1,,TRUE,,intensity,0.1,0.05,0.7,0.3,0.82,20,400,1E-11,3.5,0.01,0.5,0.1,,,,,,,,,,,,,,,,,,,,,,,,,,,,,,,,,,,,,,,,,,,,,,,,,,,,,,,,,,,,,,,,,,,,,,,,,,,,,,,,,
,,,,,166849,001,2025-03-19_19h23.08.912,Utility_discrimination_2024_2cat,2024.2.4,Win32,59.52380952,,,,,,,,3,"[0.5,0.5]","[0.383,0.924]",s,"[0.6942958639235853,0.6942958639235853]","[0.30570413607641467,0.30570413607641467]",67.2643,68.8069,1,s,1,0.0131,,-0.090065158,0.591798206,0.681863364,68.8101,68.8101,0,13,13,13,1,0.274817346,0.274817346,shape_difference2,1,,TRUE,,intensity,0.1,0.05,0.7,0.3,0.82,20,400,1E-11,3.5,0.01,0.5,0.1,,,,,,,,,,,,,,,,,,,,,,,,,,,,,,,,,,,,,,,,,,,,,,,,,,,,,,,,,,,,,,,,,,,,,,,,,,,,,,,,,
,,,,,166849,001,2025-03-19_19h23.08.912,Utility_discrimination_2024_2cat,2024.2.4,Win32,59.52380952,,,,,,,,1,"[0.5,0.5]","[0.924,0.383]",s,"[0.586428612097727,0.7085118474629236]","[0.413571387902273,0.2914881525370764]",68.8115,70.4854,1,s,1,0.1388,,0.100128431,0.691751185,0.591622754,70.4883,70.4883,0,14,14,14,1,0.225662173,0.225662173,shape_difference3,1,,TRUE,,intensity,0.1,0.05,0.7,0.3,0.82,20,400,1E-11,3.5,0.01,0.5,0.1,,,,,,,,,,,,,,,,,,,,,,,,,,,,,,,,,,,,,,,,,,,,,,,,,,,,,,,,,,,,,,,,,,,,,,,,,,,,,,,,,
,,,,,166849,001,2025-03-19_19h23.08.912,Utility_discrimination_2024_2cat,2024.2.4,Win32,59.52380952,,,,,,,,4,"[0.5,0.5]","[0,1]",s,"[0.8466998224093067,0.6437078268211737]","[0.1533001775906932,0.35629217317882633]",70.4894,72.1011,1,s,1,0.0698,,-0.118157943,0.566731222,0.684889165,72.1036,72.1036,0,15,15,15,1,0.375216258,0.375216258,shape_difference1,1,,TRUE,,intensity,0.1,0.05,0.7,0.3,0.82,20,400,1E-11,3.5,0.01,0.5,0.1,,,,,,,,,,,,,,,,,,,,,,,,,,,,,,,,,,,,,,,,,,,,,,,,,,,,,,,,,,,,,,,,,,,,,,,,,,,,,,,,,
,,,,,166849,001,2025-03-19_19h23.08.912,Utility_discrimination_2024_2cat,2024.2.4,Win32,59.52380952,,,,,,,,3,"[0.5,0.5]","[0.383,0.924]",s,"[0.5,0.6844698465378827]","[0.5,0.3155301534621173]",72.1047,73.7891,0,d,0,0.1468,,-0.09936101,0.537490534,0.636851544,73.7935,73.7936,0,16,16,16,1,0.184469847,0.184469847,shape_difference4,1,,TRUE,,intensity,0.1,0.05,0.7,0.3,0.82,20,400,1E-11,3.5,0.01,0.5,0.1,,,,,,,,,,,,,,,,,,,,,,,,,,,,,,,,,,,,,,,,,,,,,,,,,,,,,,,,,,,,,,,,,,,,,,,,,,,,,,,,,
,,,,,166849,001,2025-03-19_19h23.08.912,Utility_discrimination_2024_2cat,2024.2.4,Win32,59.52380952,,,,,,,,2,"[0.5,0.5]","[0.707,0.707]",s,"[0.5657699535565752,0.658672159494192]","[0.4342300464434248,0.341327840505808]",73.7954,75.4697,0,d,0,0.1387,,-0.026700702,0.552121039,0.578821741,75.4737,75.4738,0,17,17,17,1,0.171723116,0.171723116,shape_difference3,1,,TRUE,,intensity,0.1,0.05,0.7,0.3,0.82,20,400,1E-11,3.5,0.01,0.5,0.1,,,,,,,,,,,,,,,,,,,,,,,,,,,,,,,,,,,,,,,,,,,,,,,,,,,,,,,,,,,,,,,,,,,,,,,,,,,,,,,,,
,,,,,166849,001,2025-03-19_19h23.08.912,Utility_discrimination_2024_2cat,2024.2.4,Win32,59.52380952,,,,,,,,0,"[0.5,0.5]","[1,0]",s,"[0.6669698042543574,0.6669698042543574]","[0.33303019574564263,0.33303019574564263]",75.4749,77.0901,0,d,0,0.0879,,-0.09936101,0.537490534,0.636851544,77.094,77.094,0,18,18,18,1,0.236166626,0.236166626,shape_difference2,1,,TRUE,,intensity,0.1,0.05,0.7,0.3,0.82,20,400,1E-11,3.5,0.01,0.5,0.1,,,,,,,,,,,,,,,,,,,,,,,,,,,,,,,,,,,,,,,,,,,,,,,,,,,,,,,,,,,,,,,,,,,,,,,,,,,,,,,,,
,,,,,166849,001,2025-03-19_19h23.08.912,Utility_discrimination_2024_2cat,2024.2.4,Win32,59.52380952,,,,,,,,2,"[0.5,0.5]","[0.707,0.707]",s,"[0.6717231163357056,0.5]","[0.3282768836642944,0.5]",77.0952,78.7105,1,s,1,0.076,,0.105213017,0.641946211,0.536733194,78.7152,78.7152,0,19,19,19,1,0.171723116,0.171723116,shape_difference0,1,,TRUE,,intensity,0.1,0.05,0.7,0.3,0.82,20,400,1E-11,3.5,0.01,0.5,0.1,,,,,,,,,,,,,,,,,,,,,,,,,,,,,,,,,,,,,,,,,,,,,,,,,,,,,,,,,,,,,,,,,,,,,,,,,,,,,,,,,
,,,,,166849,001,2025-03-19_19h23.08.912,Utility_discrimination_2024_2cat,2024.2.4,Win32,59.52380952,,,,,,,,4,"[0.5,0.5]","[0,1]",s,"[0.7354120339163437,0.7354120339163437]","[0.2645879660836563,0.2645879660836563]",78.7174,80.4468,1,s,1,0.1968,,0.074504002,0.684517101,0.610013099,80.4496,80.4496,0,20,20,20,1,0.332973174,0.332973174,shape_difference2,1,,TRUE,,intensity,0.1,0.05,0.7,0.3,0.82,20,400,1E-11,3.5,0.01,0.5,0.1,,,,,,,,,,,,,,,,,,,,,,,,,,,,,,,,,,,,,,,,,,,,,,,,,,,,,,,,,,,,,,,,,,,,,,,,,,,,,,,,,
,,,,,166849,001,2025-03-19_19h23.08.912,Utility_discrimination_2024_2cat,2024.2.4,Win32,59.52380952,,,,,,,,3,"[0.5,0.5]","[0.383,0.924]",s,"[0.5,0.8628706272262292]","[0.5,0.1371293727737708]",80.4509,82.2654,0,s,0,0.2743,,0.064206312,0.666780888,0.602574576,82.2686,82.2686,0,21,21,21,1,0.362870627,0.362870627,shape_difference4,1,,TRUE,,intensity,0.1,0.05,0.7,0.3,0.82,20,400,1E-11,3.5,0.01,0.5,0.1,,,,,,,,,,,,,,,,,,,,,,,,,,,,,,,,,,,,,,,,,,,,,,,,,,,,,,,,,,,,,,,,,,,,,,,,,,,,,,,,,
,,,,,166849,001,2025-03-19_19h23.08.912,Utility_discrimination_2024_2cat,2024.2.4,Win32,59.52380952,,,,,,,,1,"[0.5,0.5]","[0.924,0.383]",d,"[0.6302313832364322,0.8141874624294083]","[0.36976861676356776,0.18581253757059168]",82.2699,83.8617,1,d,1,0.0518,,0.07990875,0.64259131,0.56268256,83.8654,83.8654,0,22,22,22,1,0.340029721,0.340029721,shape_difference3,1,,TRUE,,intensity,0.1,0.05,0.7,0.3,0.82,20,400,1E-11,3.5,0.01,0.5,0.1,,,,,,,,,,,,,,,,,,,,,,,,,,,,,,,,,,,,,,,,,,,,,,,,,,,,,,,,,,,,,,,,,,,,,,,,,,,,,,,,,
,,,,,166849,001,2025-03-19_19h23.08.912,Utility_discrimination_2024_2cat,2024.2.4,Win32,59.52380952,,,,,,,,0,"[0.5,0.5]","[1,0]",d,"[0.8099004102361802,0.6284543908230055]","[0.19009958976381974,0.37154560917699453]",83.8664,85.4447,1,d,1,0.0328,,-0.120490743,0.470685176,0.591175919,85.4479,85.4479,0,23,23,23,1,0.335390054,0.335390054,shape_difference1,1,,TRUE,,intensity,0.1,0.05,0.7,0.3,0.82,20,400,1E-11,3.5,0.01,0.5,0.1,,,,,,,,,,,,,,,,,,,,,,,,,,,,,,,,,,,,,,,,,,,,,,,,,,,,,,,,,,,,,,,,,,,,,,,,,,,,,,,,,
,,,,,166849,001,2025-03-19_19h23.08.912,Utility_discrimination_2024_2cat,2024.2.4,Win32,59.52380952,,,,,,,,3,"[0.5,0.5]","[0.383,0.924]",d,"[0.6306116159745301,0.5]","[0.3693883840254699,0.5]",85.4494,86.9995,0,s,0,0.02,,0.046106493,0.612747238,0.566640745,87.0027,87.0027,0,24,24,24,1,0.130611616,0.130611616,shape_difference0,1,,TRUE,,intensity,0.1,0.05,0.7,0.3,0.82,20,400,1E-11,3.5,0.01,0.5,0.1,,,,,,,,,,,,,,,,,,,,,,,,,,,,,,,,,,,,,,,,,,,,,,,,,,,,,,,,,,,,,,,,,,,,,,,,,,,,,,,,,
,,,,,166849,001,2025-03-19_19h23.08.912,Utility_discrimination_2024_2cat,2024.2.4,Win32,59.52380952,,,,,,,,0,"[0.5,0.5]","[1,0]",d,"[0.6125110353053631,0.7714365447053668]","[0.3874889646946369,0.22856345529463312]",87.0037,88.6363,0,d,0,0.103,,0.003655665,0.572085223,0.568429559,88.6397,88.6398,0,25,25,25,1,0.293762494,0.293762494,shape_difference3,1,,TRUE,,intensity,0.1,0.05,0.7,0.3,0.82,20,400,1E-11,3.5,0.01,0.5,0.1,,,,,,,,,,,,,,,,,,,,,,,,,,,,,,,,,,,,,,,,,,,,,,,,,,,,,,,,,,,,,,,,,,,,,,,,,,,,,,,,,
,,,,,166849,001,2025-03-19_19h23.08.912,Utility_discrimination_2024_2cat,2024.2.4,Win32,59.52380952,,,,,,,,1,"[0.5,0.5]","[0.924,0.383]",s,"[0.7341681431883501,0.5]","[0.2658318568116499,0.5]",88.6421,90.1977,0,s,0,0.0134,,0.058226883,0.589904361,0.531677478,90.2009,90.2009,0,26,26,26,1,0.234168143,0.234168143,shape_difference0,1,,TRUE,,intensity,0.1,0.05,0.7,0.3,0.82,20,400,1E-11,3.5,0.01,0.5,0.1,,,,,,,,,,,,,,,,,,,,,,,,,,,,,,,,,,,,,,,,,,,,,,,,,,,,,,,,,,,,,,,,,,,,,,,,,,,,,,,,,
,,,,,166849,001,2025-03-19_19h23.08.912,Utility_discrimination_2024_2cat,2024.2.4,Win32,59.52380952,,,,,,,,4,"[0.5,0.5]","[0,1]",d,"[0.7726255931667183,0.6130038984662913]","[0.22737440683328164,0.3869961015337087]",90.202,91.8352,0,s,0,0.1018,,0.261162334,0.796264223,0.535101889,91.8376,91.8377,0,27,27,27,1,0.295049343,0.295049343,shape_difference1,1,,TRUE,,intensity,0.1,0.05,0.7,0.3,0.82,20,400,1E-11,3.5,0.01,0.5,0.1,,,,,,,,,,,,,,,,,,,,,,,,,,,,,,,,,,,,,,,,,,,,,,,,,,,,,,,,,,,,,,,,,,,,,,,,,,,,,,,,,
,,,,,166849,001,2025-03-19_19h23.08.912,Utility_discrimination_2024_2cat,2024.2.4,Win32,59.52380952,,,,,,,,2,"[0.5,0.5]","[0.707,0.707]",d,"[0.5,1.0219065520197548]","[0.5,-0.021906552019754666]",91.8392,93.4607,1,d,1,0.1019,,0.095253378,0.589319911,0.494066533,93.4642,93.4642,0,28,28,28,1,0.521906552,0.521906552,shape_difference4,1,,TRUE,,intensity,0.1,0.05,0.7,0.3,0.82,20,400,1E-11,3.5,0.01,0.5,0.1,,,,,,,,,,,,,,,,,,,,,,,,,,,,,,,,,,,,,,,,,,,,,,,,,,,,,,,,,,,,,,,,,,,,,,,,,,,,,,,,,
,,,,,166849,001,2025-03-19_19h23.08.912,Utility_discrimination_2024_2cat,2024.2.4,Win32,59.52380952,,,,,,,,2,"[0.5,0.5]","[0.707,0.707]",d,"[0.7082283670811896,0.7082283670811896]","[0.29177163291881036,0.29177163291881036]",93.4653,95.056,1,s,1,0.0506,,0.074165964,0.541678986,0.467513022,95.0607,95.0607,0,29,29,29,1,0.294523857,0.294523857,shape_difference2,1,,TRUE,,intensity,0.1,0.05,0.7,0.3,0.82,20,400,1E-11,3.5,0.01,0.5,0.1,,,,,,,,,,,,,,,,,,,,,,,,,,,,,,,,,,,,,,,,,,,,,,,,,,,,,,,,,,,,,,,,,,,,,,,,,,,,,,,,,
,,,,,166849,001,2025-03-19_19h23.08.912,Utility_discrimination_2024_2cat,2024.2.4,Win32,59.52380952,,,,,,,,0,"[0.5,0.5]","[1,0]",s,"[0.6908219404171503,0.6908219404171503]","[0.3091780595828497,0.3091780595828497]",95.0634,96.8062,0,d,0,0.2126,,0.102594441,0.663832919,0.561238479,96.8089,96.809,0,30,30,30,1,0.269903735,0.269903735,shape_difference2,1,,TRUE,,intensity,0.1,0.05,0.7,0.3,0.82,20,400,1E-11,3.5,0.01,0.5,0.1,,,,,,,,,,,,,,,,,,,,,,,,,,,,,,,,,,,,,,,,,,,,,,,,,,,,,,,,,,,,,,,,,,,,,,,,,,,,,,,,,
,,,,,166849,001,2025-03-19_19h23.08.912,Utility_discrimination_2024_2cat,2024.2.4,Win32,59.52380952,,,,,,,,3,"[0.5,0.5]","[0.383,0.924]",s,"[0.8423958258001193,0.5]","[0.1576041741998807,0.5]",96.8103,98.3431,1,s,1,0.0009,,0.175264475,0.717042597,0.541778122,98.3478,98.348,0,31,31,31,1,0.342395826,0.342395826,shape_difference0,1,,TRUE,,intensity,0.1,0.05,0.7,0.3,0.82,20,400,1E-11,3.5,0.01,0.5,0.1,,,,,,,,,,,,,,,,,,,,,,,,,,,,,,,,,,,,,,,,,,,,,,,,,,,,,,,,,,,,,,,,,,,,,,,,,,,,,,,,,
,,,,,166849,001,2025-03-19_19h23.08.912,Utility_discrimination_2024_2cat,2024.2.4,Win32,59.52380952,,,,,,,,1,"[0.5,0.5]","[0.924,0.383]",s,"[0.6607558570285786,0.8878287516825238]","[0.33924414297142136,0.1121712483174761]",98.3499,100.0303,1,d,1,0.1383,,0.180392649,0.6906169,0.510224251,100.0346,100.0347,0,32,32,32,1,0.419728086,0.419728086,shape_difference3,1,,TRUE,,intensity,0.1,0.05,0.7,0.3,0.82,20,400,1E-11,3.5,0.01,0.5,0.1,,,,,,,,,,,,,,,,,,,,,,,,,,,,,,,,,,,,,,,,,,,,,,,,,,,,,,,,,,,,,,,,,,,,,,,,,,,,,,,,,
,,,,,166849,001,2025-03-19_19h23.08.912,Utility_discrimination_2024_2cat,2024.2.4,Win32,59.52380952,,,,,,,,4,"[0.5,0.5]","[0,1]",d,"[0.8705534571342162,0.6535952100458926]","[0.12944654286578378,0.3464047899541074]",100.0361,101.5801,0,s,0,0.0008,,0.244240962,0.761784365,0.517543403,101.5832,101.5832,0,33,33,33,1,0.40103188,0.40103188,shape_difference1,1,,TRUE,,intensity,0.1,0.05,0.7,0.3,0.82,20,400,1E-11,3.5,0.01,0.5,0.1,,,,,,,,,,,,,,,,,,,,,,,,,,,,,,,,,,,,,,,,,,,,,,,,,,,,,,,,,,,,,,,,,,,,,,,,,,,,,,,,,
,,,,,166849,001,2025-03-19_19h23.08.912,Utility_discrimination_2024_2cat,2024.2.4,Win32,59.52380952,,,,,,,,1,"[0.5,0.5]","[0.924,0.383]",d,"[0.5,0.9851729951468372]","[0.5,0.014827004853162795]",101.585,103.4552,0,d,0,0.3474,,0.283758098,0.783150624,0.499392526,103.4593,103.4593,0,34,34,34,1,0.485172995,0.485172995,shape_difference4,1,,TRUE,,intensity,0.1,0.05,0.7,0.3,0.82,20,400,1E-11,3.5,0.01,0.5,0.1,,,,,,,,,,,,,,,,,,,,,,,,,,,,,,,,,,,,,,,,,,,,,,,,,,,,,,,,,,,,,,,,,,,,,,,,,,,,,,,,,
,,,,,166849,001,2025-03-19_19h23.08.912,Utility_discrimination_2024_2cat,2024.2.4,Win32,59.52380952,,,,,,,,4,"[0.5,0.5]","[0,1]",s,"[0.9675840400583721,0.693814596690862]","[0.032415959941627936,0.306185403309138]",103.4607,105.1204,0,s,0,0.1319,,0.370390164,0.855110221,0.484720057,105.1228,105.1228,0,35,35,35,1,0.506043333,0.506043333,shape_difference1,1,,TRUE,,intensity,0.1,0.05,0.7,0.3,0.82,20,400,1E-11,3.5,0.01,0.5,0.1,,,,,,,,,,,,,,,,,,,,,,,,,,,,,,,,,,,,,,,,,,,,,,,,,,,,,,,,,,,,,,,,,,,,,,,,,,,,,,,,,
,,,,,166849,001,2025-03-19_19h23.08.912,Utility_discrimination_2024_2cat,2024.2.4,Win32,59.52380952,,,,,,,,0,"[0.5,0.5]","[1,0]",d,"[0.5,1.0920557014060706]","[0.5,-0.09205570140607056]",105.1245,106.8255,0,s,0,0.1685,,0.083732257,0.610026422,0.526294165,106.8285,106.8286,0,36,36,36,1,0.592055701,0.592055701,shape_difference4,1,,TRUE,,intensity,0.1,0.05,0.7,0.3,0.82,20,400,1E-11,3.5,0.01,0.5,0.1,,,,,,,,,,,,,,,,,,,,,,,,,,,,,,,,,,,,,,,,,,,,,,,,,,,,,,,,,,,,,,,,,,,,,,,,,,,,,,,,,
,,,,,166849,001,2025-03-19_19h23.08.912,Utility_discrimination_2024_2cat,2024.2.4,Win32,59.52380952,,,,,,,,3,"[0.5,0.5]","[0.383,0.924]",d,"[0.7982785010077436,0.5]","[0.20172149899225644,0.5]",106.8298,108.5763,1,s,1,0.203,,0.157023168,0.673546294,0.516523126,108.5789,108.5789,0,37,37,37,1,0.298278501,0.298278501,shape_difference0,1,,TRUE,,intensity,0.1,0.05,0.7,0.3,0.82,20,400,1E-11,3.5,0.01,0.5,0.1,,,,,,,,,,,,,,,,,,,,,,,,,,,,,,,,,,,,,,,,,,,,,,,,,,,,,,,,,,,,,,,,,,,,,,,,,,,,,,,,,
,,,,,166849,001,2025-03-19_19h23.08.912,Utility_discrimination_2024_2cat,2024.2.4,Win32,59.52380952,,,,,,,,2,"[0.5,0.5]","[0.707,0.707]",s,"[0.6465813974573498,0.8536324053540241]","[0.35341860254265023,0.14636759464597593]",108.5806,110.2104,1,s,1,0.0885,,0.157316247,0.658780812,0.501464565,110.2136,110.2136,0,38,38,38,1,0.382719053,0.382719053,shape_difference3,1,,TRUE,,intensity,0.1,0.05,0.7,0.3,0.82,20,400,1E-11,3.5,0.01,0.5,0.1,,,,,,,,,,,,,,,,,,,,,,,,,,,,,,,,,,,,,,,,,,,,,,,,,,,,,,,,,,,,,,,,,,,,,,,,,,,,,,,,,
,,,,,166849,001,2025-03-19_19h23.08.912,Utility_discrimination_2024_2cat,2024.2.4,Win32,59.52380952,,,,,,,,1,"[0.5,0.5]","[0.924,0.383]",s,"[0.7617710992352575,0.7617710992352575]","[0.2382289007647425,0.2382289007647425]",110.2148,111.8758,1,d,1,0.1219,,0.386973152,0.868478689,0.481505538,111.879,111.879,0,39,39,39,1,0.370256152,0.370256152,shape_difference2,1,,TRUE,,intensity,0.1,0.05,0.7,0.3,0.82,20,400,1E-11,3.5,0.01,0.5,0.1,,,,,,,,,,,,,,,,,,,,,,,,,,,,,,,,,,,,,,,,,,,,,,,,,,,,,,,,,,,,,,,,,,,,,,,,,,,,,,,,,
,,,,,166849,001,2025-03-19_19h23.08.912,Utility_discrimination_2024_2cat,2024.2.4,Win32,59.52380952,,,,,,,,2,"[0.5,0.5]","[0.707,0.707]",d,"[1.0593741906112806,0.731861812775022]","[-0.059374190611280464,0.26813818722497795]",111.8802,113.5801,1,s,1,0.1592,,0.146215625,0.598484842,0.452269217,113.5832,113.5833,0,40,40,40,1,0.605383323,0.605383323,shape_difference1,1,,TRUE,,intensity,0.1,0.05,0.7,0.3,0.82,20,400,1E-11,3.5,0.01,0.5,0.1,,,,,,,,,,,,,,,,,,,,,,,,,,,,,,,,,,,,,,,,,,,,,,,,,,,,,,,,,,,,,,,,,,,,,,,,,,,,,,,,,
,,,,,166849,001,2025-03-19_19h23.08.912,Utility_discrimination_2024_2cat,2024.2.4,Win32,59.52380952,,,,,,,,4,"[0.5,0.5]","[0,1]",s,"[0.7437959935932493,0.7437959935932493]","[0.2562040064067507,0.2562040064067507]",113.5846,115.2842,1,s,1,0.1681,,0.475998154,0.935886735,0.459888581,115.2871,115.2871,0,41,41,41,1,0.344831674,0.344831674,shape_difference2,1,,TRUE,,intensity,0.1,0.05,0.7,0.3,0.82,20,400,1E-11,3.5,0.01,0.5,0.1,,,,,,,,,,,,,,,,,,,,,,,,,,,,,,,,,,,,,,,,,,,,,,,,,,,,,,,,,,,,,,,,,,,,,,,,,,,,,,,,,
,,,,,166849,001,2025-03-19_19h23.08.912,Utility_discrimination_2024_2cat,2024.2.4,Win32,59.52380952,,,,,,,,0,"[0.5,0.5]","[1,0]",s,"[0.5,1.1895067904661603]","[0.5,-0.18950679046616026]",115.2892,116.9949,1,s,1,0.1655,,0.065232997,0.562512996,0.497279998,116.9982,116.9983,0,42,42,42,1,0.68950679,0.68950679,shape_difference4,1,,TRUE,,intensity,0.1,0.05,0.7,0.3,0.82,20,400,1E-11,3.5,0.01,0.5,0.1,,,,,,,,,,,,,,,,,,,,,,,,,,,,,,,,,,,,,,,,,,,,,,,,,,,,,,,,,,,,,,,,,,,,,,,,,,,,,,,,,
,,,,,166849,001,2025-03-19_19h23.08.912,Utility_discrimination_2024_2cat,2024.2.4,Win32,59.52380952,,,,,,,,3,"[0.5,0.5]","[0.383,0.924]",s,"[0.7700453514493248,0.5]","[0.2299546485506752,0.5]",117.0003,118.6351,1,d,1,0.1024,,0.144808895,0.620778666,0.475969771,118.6382,118.6383,0,43,43,43,1,0.270045351,0.270045351,shape_difference0,1,,TRUE,,intensity,0.1,0.05,0.7,0.3,0.82,20,400,1E-11,3.5,0.01,0.5,0.1,,,,,,,,,,,,,,,,,,,,,,,,,,,,,,,,,,,,,,,,,,,,,,,,,,,,,,,,,,,,,,,,,,,,,,,,,,,,,,,,,
,,,,,166849,001,2025-03-19_19h23.08.912,Utility_discrimination_2024_2cat,2024.2.4,Win32,59.52380952,,,,,,,,2,"[0.5,0.5]","[0.707,0.707]",d,"[0.6363448412299706,0.828936379364211]","[0.3636551587700294,0.171063620635789]",118.6396,120.2904,0,s,0,0.1114,,0.134776216,0.566818789,0.432042572,120.2935,120.2936,0,44,44,44,1,0.355991753,0.355991753,shape_difference3,1,,TRUE,,intensity,0.1,0.05,0.7,0.3,0.82,20,400,1E-11,3.5,0.01,0.5,0.1,,,,,,,,,,,,,,,,,,,,,,,,,,,,,,,,,,,,,,,,,,,,,,,,,,,,,,,,,,,,,,,,,,,,,,,,,,,,,,,,,
,,,,,166849,001,2025-03-19_19h23.08.912,Utility_discrimination_2024_2cat,2024.2.4,Win32,59.52380952,,,,,,,,3,"[0.5,0.5]","[0.383,0.924]",d,"[0.7262749673911153,0.7262749673911153]","[0.2737250326088847,0.2737250326088847]",120.2949,121.9733,1,d,1,0.142,,0.246633092,0.742306607,0.495673516,121.9754,121.9755,0,45,45,45,1,0.320049459,0.320049459,shape_difference2,1,,TRUE,,intensity,0.1,0.05,0.7,0.3,0.82,20,400,1E-11,3.5,0.01,0.5,0.1,,,,,,,,,,,,,,,,,,,,,,,,,,,,,,,,,,,,,,,,,,,,,,,,,,,,,,,,,,,,,,,,,,,,,,,,,,,,,,,,,
,,,,,166849,001,2025-03-19_19h23.08.912,Utility_discrimination_2024_2cat,2024.2.4,Win32,59.52380952,,,,,,,,4,"[0.5,0.5]","[0,1]",d,"[0.6791530604394297,0.9322126053421227]","[0.3208469395605703,0.06778739465787725]",121.9768,123.6604,0,s,0,0.145,,0.459917217,0.892587165,0.432669948,123.6636,123.6637,0,46,46,46,1,0.46776256,0.46776256,shape_difference3,1,,TRUE,,intensity,0.1,0.05,0.7,0.3,0.82,20,400,1E-11,3.5,0.01,0.5,0.1,,,,,,,,,,,,,,,,,,,,,,,,,,,,,,,,,,,,,,,,,,,,,,,,,,,,,,,,,,,,,,,,,,,,,,,,,,,,,,,,,
,,,,,166849,001,2025-03-19_19h23.08.912,Utility_discrimination_2024_2cat,2024.2.4,Win32,59.52380952,,,,,,,,1,"[0.5,0.5]","[0.924,0.383]",d,"[0.5,1.165777464579489]","[0.5,-0.16577746457948883]",123.6648,125.3459,1,s,1,0.1428,,0.367397847,0.826057196,0.458659349,125.3482,125.3482,0,47,47,47,1,0.665777465,0.665777465,shape_difference4,1,,TRUE,,intensity,0.1,0.05,0.7,0.3,0.82,20,400,1E-11,3.5,0.01,0.5,0.1,,,,,,,,,,,,,,,,,,,,,,,,,,,,,,,,,,,,,,,,,,,,,,,,,,,,,,,,,,,,,,,,,,,,,,,,,,,,,,,,,
,,,,,166849,001,2025-03-19_19h23.08.912,Utility_discrimination_2024_2cat,2024.2.4,Win32,59.52380952,,,,,,,,0,"[0.5,0.5]","[1,0]",s,"[1.0334103655938331,0.7210997511065347]","[-0.03341036559383315,0.2789002488934653]",125.3494,127.081,0,s,0,0.1869,,0.052667387,0.498739747,0.44607236,127.085,127.0851,0,48,48,48,1,0.577283945,0.577283945,shape_difference1,1,,TRUE,,intensity,0.1,0.05,0.7,0.3,0.82,20,400,1E-11,3.5,0.01,0.5,0.1,,,,,,,,,,,,,,,,,,,,,,,,,,,,,,,,,,,,,,,,,,,,,,,,,,,,,,,,,,,,,,,,,,,,,,,,,,,,,,,,,
,,,,,166849,001,2025-03-19_19h23.08.912,Utility_discrimination_2024_2cat,2024.2.4,Win32,59.52380952,,,,,,,,3,"[0.5,0.5]","[0.383,0.924]",d,"[0.7462709559626844,0.5]","[0.25372904403731555,0.5]",127.0866,128.8157,1,d,1,0.2009,,0.354045751,0.845765905,0.491720155,128.818,128.8181,0,49,49,49,1,0.246270956,0.246270956,shape_difference0,1,,TRUE,,intensity,0.1,0.05,0.7,0.3,0.82,20,400,1E-11,3.5,0.01,0.5,0.1,,,,,,,,,,,,,,,,,,,,,,,,,,,,,,,,,,,,,,,,,,,,,,,,,,,,,,,,,,,,,,,,,,,,,,,,,,,,,,,,,
,,,,,166849,001,2025-03-19_19h23.08.912,Utility_discrimination_2024_2cat,2024.2.4,Win32,59.52380952,,,,,,,,1,"[0.5,0.5]","[0.924,0.383]",d,"[0.7226574780576032,1.0371684327029382]","[0.27734252194239684,-0.037168432702938126]",128.8191,130.5555,1,d,1,0.1952,,0.462701919,0.910882061,0.448180142,130.5578,130.5578,0,50,50,50,1,0.581351118,0.581351118,shape_difference3,1,,TRUE,,intensity,0.1,0.05,0.7,0.3,0.82,20,400,1E-11,3.5,0.01,0.5,0.1,,,,,,,,,,,,,,,,,,,,,,,,,,,,,,,,,,,,,,,,,,,,,,,,,,,,,,,,,,,,,,,,,,,,,,,,,,,,,,,,,
,,,,,166849,001,2025-03-19_19h23.08.912,Utility_discrimination_2024_2cat,2024.2.4,Win32,59.52380952,,,,,,,,2,"[0.5,0.5]","[0.707,0.707]",d,"[1.1233799460560676,0.7583923369474825]","[-0.12337994605606761,0.24160766305251746]",130.5599,132.0965,1,d,1,0.0007,,0.126767478,0.521772897,0.395005419,132.1015,132.1015,0,51,51,51,1,0.674653621,0.674653621,shape_difference1,1,,TRUE,,intensity,0.1,0.05,0.7,0.3,0.82,20,400,1E-11,3.5,0.01,0.5,0.1,,,,,,,,,,,,,,,,,,,,,,,,,,,,,,,,,,,,,,,,,,,,,,,,,,,,,,,,,,,,,,,,,,,,,,,,,,,,,,,,,
,,,,,166849,001,2025-03-19_19h23.08.912,Utility_discrimination_2024_2cat,2024.2.4,Win32,59.52380952,,,,,,,,0,"[0.5,0.5]","[1,0]",d,"[0.7092033273911366,0.7092033273911366]","[0.29079667260886344,0.29079667260886344]",132.1033,133.7883,0,d,0,0.1451,,0.039653538,0.465709923,0.426056385,133.7907,133.7908,0,52,52,52,1,0.295902868,0.295902868,shape_difference2,1,,TRUE,,intensity,0.1,0.05,0.7,0.3,0.82,20,400,1E-11,3.5,0.01,0.5,0.1,,,,,,,,,,,,,,,,,,,,,,,,,,,,,,,,,,,,,,,,,,,,,,,,,,,,,,,,,,,,,,,,,,,,,,,,,,,,,,,,,
,,,,,166849,001,2025-03-19_19h23.08.912,Utility_discrimination_2024_2cat,2024.2.4,Win32,59.52380952,,,,,,,,4,"[0.5,0.5]","[0,1]",s,"[0.7233629142411587,0.5]","[0.2766370857588413,0.5]",133.7927,135.4974,0,d,0,0.1759,,0.448675243,0.862828323,0.41415308,135.5005,135.5005,0,53,53,53,1,0.223362914,0.223362914,shape_difference0,1,,TRUE,,intensity,0.1,0.05,0.7,0.3,0.82,20,400,1E-11,3.5,0.01,0.5,0.1,,,,,,,,,,,,,,,,,,,,,,,,,,,,,,,,,,,,,,,,,,,,,,,,,,,,,,,,,,,,,,,,,,,,,,,,,,,,,,,,,
,,,,,166849,001,2025-03-19_19h23.08.912,Utility_discrimination_2024_2cat,2024.2.4,Win32,59.52380952,,,,,,,,3,"[0.5,0.5]","[0.383,0.924]",s,"[0.5,1.1450733522776404]","[0.5,-0.1450733522776403]",135.5019,137.1251,0,s,0,0.0927,,0.342727258,0.795485203,0.452757945,137.1277,137.1277,0,54,54,54,1,0.645073352,0.645073352,shape_difference4,1,,TRUE,,intensity,0.1,0.05,0.7,0.3,0.82,20,400,1E-11,3.5,0.01,0.5,0.1,,,,,,,,,,,,,,,,,,,,,,,,,,,,,,,,,,,,,,,,,,,,,,,,,,,,,,,,,,,,,,,,,,,,,,,,,,,,,,,,,
,,,,,166849,001,2025-03-19_19h23.08.912,Utility_discrimination_2024_2cat,2024.2.4,Win32,59.52380952,,,,,,,,0,"[0.5,0.5]","[1,0]",d,"[0.7127460842941491,1.0132568717696966]","[0.2872539157058509,-0.013256871769696588]",137.129,138.7906,1,d,1,0.1202,,0.108837107,0.546651762,0.437814655,138.7952,138.7953,0,55,55,55,1,0.555472805,0.555472805,shape_difference3,1,,TRUE,,intensity,0.1,0.05,0.7,0.3,0.82,20,400,1E-11,3.5,0.01,0.5,0.1,,,,,,,,,,,,,,,,,,,,,,,,,,,,,,,,,,,,,,,,,,,,,,,,,,,,,,,,,,,,,,,,,,,,,,,,,,,,,,,,,
,,,,,166849,001,2025-03-19_19h23.08.912,Utility_discrimination_2024_2cat,2024.2.4,Win32,59.52380952,,,,,,,,2,"[0.5,0.5]","[0.707,0.707]",d,"[0.7779169070442251,0.5]","[0.22208309295577489,0.5]",138.7983,140.5457,0,s,0,0.208,,0.203365249,0.601278694,0.397913445,140.5482,140.5482,0,56,56,56,1,0.277916907,0.277916907,shape_difference0,1,,TRUE,,intensity,0.1,0.05,0.7,0.3,0.82,20,400,1E-11,3.5,0.01,0.5,0.1,,,,,,,,,,,,,,,,,,,,,,,,,,,,,,,,,,,,,,,,,,,,,,,,,,,,,,,,,,,,,,,,,,,,,,,,,,,,,,,,,
,,,,,166849,001,2025-03-19_19h23.08.912,Utility_discrimination_2024_2cat,2024.2.4,Win32,59.52380952,,,,,,,,1,"[0.5,0.5]","[0.924,0.383]",d,"[0.755265033171805,0.755265033171805]","[0.24473496682819496,0.24473496682819496]",140.5494,142.0909,1,d,1,0.0008,,0.450381853,0.878128332,0.427746479,142.0951,142.0953,0,57,57,57,1,0.361053795,0.361053795,shape_difference2,1,,TRUE,,intensity,0.1,0.05,0.7,0.3,0.82,20,400,1E-11,3.5,0.01,0.5,0.1,,,,,,,,,,,,,,,,,,,,,,,,,,,,,,,,,,,,,,,,,,,,,,,,,,,,,,,,,,,,,,,,,,,,,,,,,,,,,,,,,
,,,,,166849,001,2025-03-19_19h23.08.912,Utility_discrimination_2024_2cat,2024.2.4,Win32,59.52380952,,,,,,,,4,"[0.5,0.5]","[0,1]",d,"[1.1026278634971822,0.7497905538088969]","[-0.10262786349718223,0.2502094461911031]",142.0968,143.8318,1,s,1,0.1941,,0.513460823,0.905989723,0.3925289,143.8344,143.8344,0,58,58,58,1,0.652194657,0.652194657,shape_difference1,1,,TRUE,,intensity,0.1,0.05,0.7,0.3,0.82,20,400,1E-11,3.5,0.01,0.5,0.1,,,,,,,,,,,,,,,,,,,,,,,,,,,,,,,,,,,,,,,,,,,,,,,,,,,,,,,,,,,,,,,,,,,,,,,,,,,,,,,,,
,,,,,166849,001,2025-03-19_19h23.08.912,Utility_discrimination_2024_2cat,2024.2.4,Win32,59.52380952,,,,,,,,4,"[0.5,0.5]","[0,1]",s,"[0.5,1.1909301120712867]","[0.5,-0.19093011207128685]",143.8363,145.6847,1,d,1,0.3105,,0.509401404,0.880081478,0.370680073,145.6872,145.6872,0,59,59,59,1,0.690930112,0.690930112,shape_difference4,1,,TRUE,,intensity,0.1,0.05,0.7,0.3,0.82,20,400,1E-11,3.5,0.01,0.5,0.1,,,,,,,,,,,,,,,,,,,,,,,,,,,,,,,,,,,,,,,,,,,,,,,,,,,,,,,,,,,,,,,,,,,,,,,,,,,,,,,,,
,,,,,166849,001,2025-03-19_19h23.08.912,Utility_discrimination_2024_2cat,2024.2.4,Win32,59.52380952,,,,,,,,3,"[0.5,0.5]","[0.383,0.924]",d,"[0.5,1.173470824613517]","[0.5,-0.17347082461351715]",145.6884,147.3099,0,d,0,0.0828,,0.334833219,0.761925001,0.427091782,147.3138,147.3139,0,60,60,60,1,0.673470825,0.673470825,shape_difference4,1,,TRUE,,intensity,0.1,0.05,0.7,0.3,0.82,20,400,1E-11,3.5,0.01,0.5,0.1,,,,,,,,,,,,,,,,,,,,,,,,,,,,,,,,,,,,,,,,,,,,,,,,,,,,,,,,,,,,,,,,,,,,,,,,,,,,,,,,,
,,,,,166849,001,2025-03-19_19h23.08.912,Utility_discrimination_2024_2cat,2024.2.4,Win32,59.52380952,,,,,,,,2,"[0.5,0.5]","[0.707,0.707]",s,"[0.7039661020810608,0.9920748781276768]","[0.2960338979189392,0.007925121872323193]",147.3153,148.9952,1,d,1,0.1442,,0.200865378,0.564653381,0.363788003,148.9975,148.9976,0,61,61,61,1,0.532548569,0.532548569,shape_difference3,1,,TRUE,,intensity,0.1,0.05,0.7,0.3,0.82,20,400,1E-11,3.5,0.01,0.5,0.1,,,,,,,,,,,,,,,,,,,,,,,,,,,,,,,,,,,,,,,,,,,,,,,,,,,,,,,,,,,,,,,,,,,,,,,,,,,,,,,,,
,,,,,166849,001,2025-03-19_19h23.08.912,Utility_discrimination_2024_2cat,2024.2.4,Win32,59.52380952,,,,,,,,1,"[0.5,0.5]","[0.924,0.383]",d,"[0.7423566836850364,0.7423566836850364]","[0.2576433163149636,0.2576433163149636]",148.9994,150.7406,0,s,0,0.2213,,0.441640507,0.842080065,0.400439559,150.7427,150.7429,0,62,62,62,1,0.342795875,0.342795875,shape_difference2,1,,TRUE,,intensity,0.1,0.05,0.7,0.3,0.82,20,400,1E-11,3.5,0.01,0.5,0.1,,,,,,,,,,,,,,,,,,,,,,,,,,,,,,,,,,,,,,,,,,,,,,,,,,,,,,,,,,,,,,,,,,,,,,,,,,,,,,,,,
,,,,,166849,001,2025-03-19_19h23.08.912,Utility_discrimination_2024_2cat,2024.2.4,Win32,59.52380952,,,,,,,,0,"[0.5,0.5]","[1,0]",d,"[1.0839445221834985,0.7420462683942424]","[-0.08394452218349846,0.2579537316057577]",150.7439,152.4057,1,d,1,0.1209,,0.165317447,0.655801181,0.490483734,152.4095,152.4096,0,63,63,63,1,0.631974591,0.631974591,shape_difference1,1,,TRUE,,intensity,0.1,0.05,0.7,0.3,0.82,20,400,1E-11,3.5,0.01,0.5,0.1,,,,,,,,,,,,,,,,,,,,,,,,,,,,,,,,,,,,,,,,,,,,,,,,,,,,,,,,,,,,,,,,,,,,,,,,,,,,,,,,,
,,,,,166849,001,2025-03-19_19h23.08.912,Utility_discrimination_2024_2cat,2024.2.4,Win32,59.52380952,,,,,,,,2,"[0.5,0.5]","[0.707,0.707]",d,"[0.8684693643673214,0.5]","[0.13153063563267864,0.5]",152.4107,154.1941,1,s,1,0.2578,,0.215798448,0.623384934,0.407586486,154.1964,154.1965,0,64,64,64,1,0.368469364,0.368469364,shape_difference0,1,,TRUE,,intensity,0.1,0.05,0.7,0.3,0.82,20,400,1E-11,3.5,0.01,0.5,0.1,,,,,,,,,,,,,,,,,,,,,,,,,,,,,,,,,,,,,,,,,,,,,,,,,,,,,,,,,,,,,,,,,,,,,,,,,,,,,,,,,
,,,,,166849,001,2025-03-19_19h23.08.912,Utility_discrimination_2024_2cat,2024.2.4,Win32,59.52380952,,,,,,,,3,"[0.5,0.5]","[0.383,0.924]",s,"[0.7698146962326179,0.7698146962326179]","[0.2301853037673821,0.2301853037673821]",154.1988,155.9204,0,s,0,0.1787,,0.326098007,0.723620216,0.397522208,155.9254,155.9256,0,65,65,65,1,0.381633234,0.381633234,shape_difference2,1,,TRUE,,intensity,0.1,0.05,0.7,0.3,0.82,20,400,1E-11,3.5,0.01,0.5,0.1,,,,,,,,,,,,,,,,,,,,,,,,,,,,,,,,,,,,,,,,,,,,,,,,,,,,,,,,,,,,,,,,,,,,,,,,,,,,,,,,,
,,,,,166849,001,2025-03-19_19h23.08.912,Utility_discrimination_2024_2cat,2024.2.4,Win32,59.52380952,,,,,,,,4,"[0.5,0.5]","[0,1]",d,"[0.6944459145513122,0.9691071150010772]","[0.30555408544868773,0.030892884998922843]",155.9279,157.6146,0,d,0,0.1574,,0.56432015,0.961107521,0.396787371,157.6184,157.6184,0,66,66,66,1,0.507691683,0.507691683,shape_difference3,1,,TRUE,,intensity,0.1,0.05,0.7,0.3,0.82,20,400,1E-11,3.5,0.01,0.5,0.1,,,,,,,,,,,,,,,,,,,,,,,,,,,,,,,,,,,,,,,,,,,,,,,,,,,,,,,,,,,,,,,,,,,,,,,,,,,,,,,,,
,,,,,166849,001,2025-03-19_19h23.08.912,Utility_discrimination_2024_2cat,2024.2.4,Win32,59.52380952,,,,,,,,0,"[0.5,0.5]","[1,0]",s,"[0.5,1.246947175338343]","[0.5,-0.2469471753383431]",157.6195,159.3498,0,s,0,0.2045,,0.153193314,0.596370544,0.44317723,159.3534,159.3534,0,67,67,67,1,0.746947175,0.746947175,shape_difference4,1,,TRUE,,intensity,0.1,0.05,0.7,0.3,0.82,20,400,1E-11,3.5,0.01,0.5,0.1,,,,,,,,,,,,,,,,,,,,,,,,,,,,,,,,,,,,,,,,,,,,,,,,,,,,,,,,,,,,,,,,,,,,,,,,,,,,,,,,,
,,,,,166849,001,2025-03-19_19h23.08.912,Utility_discrimination_2024_2cat,2024.2.4,Win32,59.52380952,,,,,,,,1,"[0.5,0.5]","[0.924,0.383]",d,"[0.8436237476267068,0.5]","[0.15637625237329328,0.5]",159.3546,161.017,1,d,1,0.1216,,0.431706722,0.800299038,0.368592316,161.021,161.021,0,68,68,68,1,0.343623748,0.343623748,shape_difference0,1,,TRUE,,intensity,0.1,0.05,0.7,0.3,0.82,20,400,1E-11,3.5,0.01,0.5,0.1,,,,,,,,,,,,,,,,,,,,,,,,,,,,,,,,,,,,,,,,,,,,,,,,,,,,,,,,,,,,,,,,,,,,,,,,,,,,,,,,,
,,,,,166849,001,2025-03-19_19h23.08.912,Utility_discrimination_2024_2cat,2024.2.4,Win32,59.52380952,,,,,,,,1,"[0.5,0.5]","[0.924,0.383]",d,"[1.0633778489818768,0.7335213378355614]","[-0.0633778489818767,0.26647866216443855]",161.0223,162.7198,1,s,1,0.1679,,0.424577485,0.781834557,0.357257072,162.7234,162.7235,0,69,69,69,1,0.609716287,0.609716287,shape_difference1,1,,TRUE,,intensity,0.1,0.05,0.7,0.3,0.82,20,400,1E-11,3.5,0.01,0.5,0.1,,,,,,,,,,,,,,,,,,,,,,,,,,,,,,,,,,,,,,,,,,,,,,,,,,,,,,,,,,,,,,,,,,,,,,,,,,,,,,,,,
,,,,,166849,001,2025-03-19_19h23.08.912,Utility_discrimination_2024_2cat,2024.2.4,Win32,59.52380952,,,,,,,,3,"[0.5,0.5]","[0.383,0.924]",s,"[1.0461863667981124,0.7263954312593908]","[-0.04618636679811239,0.27360456874060923]",162.7249,164.3722,0,s,0,0.1101,,0.404507327,0.790612595,0.386105268,164.3755,164.3757,0,70,70,70,1,0.591110787,0.591110787,shape_difference1,1,,TRUE,,intensity,0.1,0.05,0.7,0.3,0.82,20,400,1E-11,3.5,0.01,0.5,0.1,,,,,,,,,,,,,,,,,,,,,,,,,,,,,,,,,,,,,,,,,,,,,,,,,,,,,,,,,,,,,,,,,,,,,,,,,,,,,,,,,
,,,,,166849,001,2025-03-19_19h23.08.912,Utility_discrimination_2024_2cat,2024.2.4,Win32,59.52380952,,,,,,,,0,"[0.5,0.5]","[1,0]",d,"[0.7180622603511804,1.026082320011725]","[0.28193773964881963,-0.026082320011725058]",164.3783,166.0904,0,s,0,0.1796,,0.140661888,0.564144701,0.423482813,166.093,166.0931,0,71,71,71,1,0.56935316,0.56935316,shape_difference3,1,,TRUE,,intensity,0.1,0.05,0.7,0.3,0.82,20,400,1E-11,3.5,0.01,0.5,0.1,,,,,,,,,,,,,,,,,,,,,,,,,,,,,,,,,,,,,,,,,,,,,,,,,,,,,,,,,,,,,,,,,,,,,,,,,,,,,,,,,
,,,,,166849,001,2025-03-19_19h23.08.912,Utility_discrimination_2024_2cat,2024.2.4,Win32,59.52380952,,,,,,,,2,"[0.5,0.5]","[0.707,0.707]",d,"[0.8194876916567054,0.5]","[0.18051230834329457,0.5]",166.0943,167.7756,1,d,1,0.1466,,0.275083756,0.716793654,0.441709898,167.7776,167.7778,0,72,72,72,1,0.319487692,0.319487692,shape_difference0,1,,TRUE,,intensity,0.1,0.05,0.7,0.3,0.82,20,400,1E-11,3.5,0.01,0.5,0.1,,,,,,,,,,,,,,,,,,,,,,,,,,,,,,,,,,,,,,,,,,,,,,,,,,,,,,,,,,,,,,,,,,,,,,,,,,,,,,,,,
,,,,,166849,001,2025-03-19_19h23.08.912,Utility_discrimination_2024_2cat,2024.2.4,Win32,59.52380952,,,,,,,,4,"[0.5,0.5]","[0,1]",d,"[0.8256836473039151,0.8256836473039151]","[0.17431635269608492,0.17431635269608492]",167.779,169.4426,0,s,0,0.1262,,0.614881174,0.998812877,0.383931702,169.445,169.445,0,73,73,73,1,0.460655795,0.460655795,shape_difference2,1,,TRUE,,intensity,0.1,0.05,0.7,0.3,0.82,20,400,1E-11,3.5,0.01,0.5,0.1,,,,,,,,,,,,,,,,,,,,,,,,,,,,,,,,,,,,,,,,,,,,,,,,,,,,,,,,,,,,,,,,,,,,,,,,,,,,,,,,,
,,,,,166849,001,2025-03-19_19h23.08.912,Utility_discrimination_2024_2cat,2024.2.4,Win32,59.52380952,,,,,,,,3,"[0.5,0.5]","[0.383,0.924]",d,"[0.5,1.29029647509944]","[0.5,-0.29029647509944]",169.4462,171.1068,0,d,0,0.1231,,0.456739351,0.882913921,0.42617457,171.1092,171.1094,0,74,74,74,1,0.790296475,0.790296475,shape_difference4,1,,TRUE,,intensity,0.1,0.05,0.7,0.3,0.82,20,400,1E-11,3.5,0.01,0.5,0.1,,,,,,,,,,,,,,,,,,,,,,,,,,,,,,,,,,,,,,,,,,,,,,,,,,,,,,,,,,,,,,,,,,,,,,,,,,,,,,,,,
,,,,,166849,001,2025-03-19_19h23.08.912,Utility_discrimination_2024_2cat,2024.2.4,Win32,59.52380952,,,,,,,,2,"[0.5,0.5]","[0.707,0.707]",s,"[0.7501790869320275,1.1035652123373194]","[0.24982091306797255,-0.10356521233731952]",171.1104,172.7383,1,s,1,0.1004,,0.347356519,0.824779234,0.477422715,172.7405,172.7405,0,75,75,75,1,0.653209104,0.653209104,shape_difference3,1,,TRUE,,intensity,0.1,0.05,0.7,0.3,0.82,20,400,1E-11,3.5,0.01,0.5,0.1,,,,,,,,,,,,,,,,,,,,,,,,,,,,,,,,,,,,,,,,,,,,,,,,,,,,,,,,,,,,,,,,,,,,,,,,,,,,,,,,,
,,,,,166849,001,2025-03-19_19h23.08.912,Utility_discrimination_2024_2cat,2024.2.4,Win32,59.52380952,,,,,,,,4,"[0.5,0.5]","[0,1]",s,"[0.9003461069020277,0.9003461069020277]","[0.09965389309797235,0.09965389309797235]",172.7417,174.3662,1,d,1,0.0946,,0.684742482,1.076842527,0.392100044,174.3694,174.3695,0,76,76,76,1,0.566260406,0.566260406,shape_difference2,1,,TRUE,,intensity,0.1,0.05,0.7,0.3,0.82,20,400,1E-11,3.5,0.01,0.5,0.1,,,,,,,,,,,,,,,,,,,,,,,,,,,,,,,,,,,,,,,,,,,,,,,,,,,,,,,,,,,,,,,,,,,,,,,,,,,,,,,,,
,,,,,166849,001,2025-03-19_19h23.08.912,Utility_discrimination_2024_2cat,2024.2.4,Win32,59.52380952,,,,,,,,0,"[0.5,0.5]","[1,0]",d,"[0.5,1.364341417306977]","[0.5,-0.3643414173069771]",174.3706,175.998,0,s,0,0.0874,,0.131894268,0.518441772,0.386547504,176.0012,176.0014,0,77,77,77,1,0.864341417,0.864341417,shape_difference4,1,,TRUE,,intensity,0.1,0.05,0.7,0.3,0.82,20,400,1E-11,3.5,0.01,0.5,0.1,,,,,,,,,,,,,,,,,,,,,,,,,,,,,,,,,,,,,,,,,,,,,,,,,,,,,,,,,,,,,,,,,,,,,,,,,,,,,,,,,
,,,,,166849,001,2025-03-19_19h23.08.912,Utility_discrimination_2024_2cat,2024.2.4,Win32,59.52380952,,,,,,,,1,"[0.5,0.5]","[0.924,0.383]",d,"[0.7961565967107589,0.5]","[0.2038434032892411,0.5]",176.0025,177.6674,0,d,0,0.1266,,0.502143655,0.848347889,0.346204235,177.6694,177.6695,0,78,78,78,1,0.296156597,0.296156597,shape_difference0,1,,TRUE,,intensity,0.1,0.05,0.7,0.3,0.82,20,400,1E-11,3.5,0.01,0.5,0.1,,,,,,,,,,,,,,,,,,,,,,,,,,,,,,,,,,,,,,,,,,,,,,,,,,,,,,,,,,,,,,,,,,,,,,,,,,,,,,,,,
,,,,,166849,001,2025-03-19_19h23.08.912,Utility_discrimination_2024_2cat,2024.2.4,Win32,59.52380952,,,,,,,,2,"[0.5,0.5]","[0.707,0.707]",s,"[1.100262519937813,0.7488101137837472]","[-0.10026251993781299,0.2511898862162528]",177.6714,179.2453,1,d,1,0.0467,,0.338471954,0.781822512,0.443350558,179.2473,179.2474,0,79,79,79,1,0.649634762,0.649634762,shape_difference1,1,,TRUE,,intensity,0.1,0.05,0.7,0.3,0.82,20,400,1E-11,3.5,0.01,0.5,0.1,,,,,,,,,,,,,,,,,,,,,,,,,,,,,,,,,,,,,,,,,,,,,,,,,,,,,,,,,,,,,,,,,,,,,,,,,,,,,,,,,
,,,,,166849,001,2025-03-19_19h23.08.912,Utility_discrimination_2024_2cat,2024.2.4,Win32,59.52380952,,,,,,,,1,"[0.5,0.5]","[0.924,0.383]",d,"[0.8825549199987703,0.8825549199987703]","[0.11744508000122972,0.11744508000122972]",179.2486,180.867,0,d,0,0.0853,,0.490169323,0.813984987,0.323815664,180.8694,180.8695,0,80,80,80,1,0.541096068,0.541096068,shape_difference2,1,,TRUE,,intensity,0.1,0.05,0.7,0.3,0.82,20,400,1E-11,3.5,0.01,0.5,0.1,,,,,,,,,,,,,,,,,,,,,,,,,,,,,,,,,,,,,,,,,,,,,,,,,,,,,,,,,,,,,,,,,,,,,,,,,,,,,,,,,
,,,,,166849,001,2025-03-19_19h23.08.912,Utility_discrimination_2024_2cat,2024.2.4,Win32,59.52380952,,,,,,,,3,"[0.5,0.5]","[0.383,0.924]",s,"[1.0855447307045298,0.7427095582898646]","[-0.08554473070452995,0.2572904417101354]",180.8706,182.4745,0,d,0,0.0682,,0.447199023,0.847957765,0.400758741,182.4764,182.4765,0,81,81,81,1,0.633706419,0.633706419,shape_difference1,1,,TRUE,,intensity,0.1,0.05,0.7,0.3,0.82,20,400,1E-11,3.5,0.01,0.5,0.1,,,,,,,,,,,,,,,,,,,,,,,,,,,,,,,,,,,,,,,,,,,,,,,,,,,,,,,,,,,,,,,,,,,,,,,,,,,,,,,,,
,,,,,166849,001,2025-03-19_19h23.08.912,Utility_discrimination_2024_2cat,2024.2.4,Win32,59.52380952,,,,,,,,4,"[0.5,0.5]","[0,1]",s,"[0.7422571949529652,1.0844533893904433]","[0.25774280504703484,-0.08445338939044345]",182.4776,184.0734,1,d,1,0.0511,,0.751821918,1.157608751,0.405786833,184.076,184.0761,0,82,82,82,1,0.632525313,0.632525313,shape_difference3,1,,TRUE,,intensity,0.1,0.05,0.7,0.3,0.82,20,400,1E-11,3.5,0.01,0.5,0.1,,,,,,,,,,,,,,,,,,,,,,,,,,,,,,,,,,,,,,,,,,,,,,,,,,,,,,,,,,,,,,,,,,,,,,,,,,,,,,,,,
,,,,,166849,001,2025-03-19_19h23.08.912,Utility_discrimination_2024_2cat,2024.2.4,Win32,59.52380952,,,,,,,,0,"[0.5,0.5]","[1,0]",d,"[0.5,1.450067129952585]","[0.5,-0.4500671299525848]",184.0772,185.657,1,d,1,0.0524,,0.204367153,0.598039741,0.393672588,185.6602,185.6602,0,83,83,83,1,0.95006713,0.95006713,shape_difference4,1,,TRUE,,intensity,0.1,0.05,0.7,0.3,0.82,20,400,1E-11,3.5,0.01,0.5,0.1,,,,,,,,,,,,,,,,,,,,,,,,,,,,,,,,,,,,,,,,,,,,,,,,,,,,,,,,,,,,,,,,,,,,,,,,,,,,,,,,,
,,,,,166849,001,2025-03-19_19h23.08.912,Utility_discrimination_2024_2cat,2024.2.4,Win32,59.52380952,,,,,,,,4,"[0.5,0.5]","[0,1]",d,"[0.8589609288124038,0.5]","[0.14103907118759618,0.5]",185.6614,187.2589,0,d,0,0.0522,,0.743235138,1.120121604,0.376886466,187.2622,187.2623,0,84,84,84,1,0.358960929,0.358960929,shape_difference0,1,,TRUE,,intensity,0.1,0.05,0.7,0.3,0.82,20,400,1E-11,3.5,0.01,0.5,0.1,,,,,,,,,,,,,,,,,,,,,,,,,,,,,,,,,,,,,,,,,,,,,,,,,,,,,,,,,,,,,,,,,,,,,,,,,,,,,,,,,
,,,,,166849,001,2025-03-19_19h23.08.912,Utility_discrimination_2024_2cat,2024.2.4,Win32,59.52380952,,,,,,,,1,"[0.5,0.5]","[0.924,0.383]",s,"[0.5,1.4313340314843912]","[0.5,-0.4313340314843913]",187.2635,188.8422,1,d,1,0.0508,,0.513743787,0.871734025,0.357990238,188.8447,188.8449,0,85,85,85,1,0.931334031,0.931334031,shape_difference4,1,,TRUE,,intensity,0.1,0.05,0.7,0.3,0.82,20,400,1E-11,3.5,0.01,0.5,0.1,,,,,,,,,,,,,,,,,,,,,,,,,,,,,,,,,,,,,,,,,,,,,,,,,,,,,,,,,,,,,,,,,,,,,,,,,,,,,,,,,
,,,,,166849,001,2025-03-19_19h23.08.912,Utility_discrimination_2024_2cat,2024.2.4,Win32,59.52380952,,,,,,,,2,"[0.5,0.5]","[0.707,0.707]",d,"[1.1201361142995254,0.7570477616631149]","[-0.12013611429952531,0.24295223833688506]",188.8462,190.4415,1,s,1,0.0677,,0.410809635,0.846804154,0.43599452,190.4437,190.4438,0,86,86,86,1,0.671142981,0.671142981,shape_difference1,1,,TRUE,,intensity,0.1,0.05,0.7,0.3,0.82,20,400,1E-11,3.5,0.01,0.5,0.1,,,,,,,,,,,,,,,,,,,,,,,,,,,,,,,,,,,,,,,,,,,,,,,,,,,,,,,,,,,,,,,,,,,,,,,,,,,,,,,,,
,,,,,166849,001,2025-03-19_19h23.08.912,Utility_discrimination_2024_2cat,2024.2.4,Win32,59.52380952,,,,,,,,3,"[0.5,0.5]","[0.383,0.924]",s,"[0.9220290930790465,0.9220290930790465]","[0.0779709069209536,0.0779709069209536]",190.4448,192.0282,0,s,0,0.062,,0.436502417,0.807934075,0.371431659,192.0305,192.0306,0,87,87,87,1,0.59692941,0.59692941,shape_difference2,1,,TRUE,,intensity,0.1,0.05,0.7,0.3,0.82,20,400,1E-11,3.5,0.01,0.5,0.1,,,,,,,,,,,,,,,,,,,,,,,,,,,,,,,,,,,,,,,,,,,,,,,,,,,,,,,,,,,,,,,,,,,,,,,,,,,,,,,,,
,,,,,166849,001,2025-03-19_19h23.08.912,Utility_discrimination_2024_2cat,2024.2.4,Win32,59.52380952,,,,,,,,0,"[0.5,0.5]","[1,0]",d,"[0.7336983035924665,1.063804784646055]","[0.26630169640753354,-0.06380478464605488]",192.0319,193.6374,1,d,1,0.0865,,0.246437002,0.71520051,0.468763508,193.6405,193.6405,0,88,88,88,1,0.610178338,0.610178338,shape_difference3,1,,TRUE,,intensity,0.1,0.05,0.7,0.3,0.82,20,400,1E-11,3.5,0.01,0.5,0.1,,,,,,,,,,,,,,,,,,,,,,,,,,,,,,,,,,,,,,,,,,,,,,,,,,,,,,,,,,,,,,,,,,,,,,,,,,,,,,,,,
,,,,,166849,001,2025-03-19_19h23.08.912,Utility_discrimination_2024_2cat,2024.2.4,Win32,59.52380952,,,,,,,,1,"[0.5,0.5]","[0.924,0.383]",d,"[0.9515994496993472,0.5]","[0.04840055030065282,0.5]",193.6417,195.2534,1,s,1,0.0705,,0.510973294,0.839802847,0.328829553,195.2556,195.2557,0,89,89,89,1,0.45159945,0.45159945,shape_difference0,1,,TRUE,,intensity,0.1,0.05,0.7,0.3,0.82,20,400,1E-11,3.5,0.01,0.5,0.1,,,,,,,,,,,,,,,,,,,,,,,,,,,,,,,,,,,,,,,,,,,,,,,,,,,,,,,,,,,,,,,,,,,,,,,,,,,,,,,,,
,,,,,166849,001,2025-03-19_19h23.08.912,Utility_discrimination_2024_2cat,2024.2.4,Win32,59.52380952,,,,,,,,4,"[0.5,0.5]","[0,1]",s,"[1.1078857236052573,0.7519699482043436]","[-0.10788572360525728,0.24803005179565635]",195.2579,197.4877,1,d,1,0.6866,,0.7332836,1.092823786,0.359540186,197.4909,197.491,0,90,90,90,1,0.657884982,0.657884982,shape_difference1,1,,TRUE,,intensity,0.1,0.05,0.7,0.3,0.82,20,400,1E-11,3.5,0.01,0.5,0.1,,,,,,,,,,,,,,,,,,,,,,,,,,,,,,,,,,,,,,,,,,,,,,,,,,,,,,,,,,,,,,,,,,,,,,,,,,,,,,,,,
,,,,,166849,001,2025-03-19_19h23.08.912,Utility_discrimination_2024_2cat,2024.2.4,Win32,59.52380952,,,,,,,,2,"[0.5,0.5]","[0.707,0.707]",d,"[0.5,1.4101875843873557]","[0.5,-0.4101875843873557]",197.4925,199.2234,0,s,0,0.1827,,0.486393325,0.918106769,0.431713443,199.2261,199.2262,0,91,91,91,1,0.910187584,0.910187584,shape_difference4,1,,TRUE,,intensity,0.1,0.05,0.7,0.3,0.82,20,400,1E-11,3.5,0.01,0.5,0.1,,,,,,,,,,,,,,,,,,,,,,,,,,,,,,,,,,,,,,,,,,,,,,,,,,,,,,,,,,,,,,,,,,,,,,,,,,,,,,,,,
,,,,,166849,001,2025-03-19_19h23.08.912,Utility_discrimination_2024_2cat,2024.2.4,Win32,59.52380952,,,,,,,,3,"[0.5,0.5]","[0.383,0.924]",d,"[0.9814187152059732,0.9814187152059732]","[0.018581284794026764,0.018581284794026764]",199.2287,200.7749,1,d,1,0.0203,,0.428864226,0.784400671,0.355536445,200.7778,200.778,0,92,92,92,1,0.680931705,0.680931705,shape_difference2,1,,TRUE,,intensity,0.1,0.05,0.7,0.3,0.82,20,400,1E-11,3.5,0.01,0.5,0.1,,,,,,,,,,,,,,,,,,,,,,,,,,,,,,,,,,,,,,,,,,,,,,,,,,,,,,,,,,,,,,,,,,,,,,,,,,,,,,,,,
,,,,,166849,001,2025-03-19_19h23.08.912,Utility_discrimination_2024_2cat,2024.2.4,Win32,59.52380952,,,,,,,,0,"[0.5,0.5]","[1,0]",d,"[0.7266275717217009,1.0467464132398216]","[0.2733724282782991,-0.04674641323982154]",200.779,202.5154,1,d,1,0.1974,,0.238583058,0.671758109,0.433175051,202.5189,202.519,0,93,93,93,1,0.591716897,0.591716897,shape_difference3,1,,TRUE,,intensity,0.1,0.05,0.7,0.3,0.82,20,400,1E-11,3.5,0.01,0.5,0.1,,,,,,,,,,,,,,,,,,,,,,,,,,,,,,,,,,,,,,,,,,,,,,,,,,,,,,,,,,,,,,,,,,,,,,,,,,,,,,,,,
,,,,,166849,001,2025-03-19_19h23.08.912,Utility_discrimination_2024_2cat,2024.2.4,Win32,59.52380952,,,,,,,,4,"[0.5,0.5]","[0,1]",d,"[0.9267359657212865,0.5]","[0.07326403427871353,0.5]",202.5213,204.1786,1,s,1,0.1231,,0.80604487,1.153869873,0.347825002,204.1806,204.1807,0,94,94,94,1,0.426735966,0.426735966,shape_difference0,1,,TRUE,,intensity,0.1,0.05,0.7,0.3,0.82,20,400,1E-11,3.5,0.01,0.5,0.1,,,,,,,,,,,,,,,,,,,,,,,,,,,,,,,,,,,,,,,,,,,,,,,,,,,,,,,,,,,,,,,,,,,,,,,,,,,,,,,,,
,,,,,166849,001,2025-03-19_19h23.08.912,Utility_discrimination_2024_2cat,2024.2.4,Win32,59.52380952,,,,,,,,0,"[0.5,0.5]","[1,0]",s,"[0.5,1.4629365520795417]","[0.5,-0.46293655207954176]",204.1818,205.8562,1,d,1,0.1408,,0.230043478,0.632273583,0.402230105,205.8587,205.8587,0,95,95,95,1,0.962936552,0.962936552,shape_difference4,1,,TRUE,,intensity,0.1,0.05,0.7,0.3,0.82,20,400,1E-11,3.5,0.01,0.5,0.1,,,,,,,,,,,,,,,,,,,,,,,,,,,,,,,,,,,,,,,,,,,,,,,,,,,,,,,,,,,,,,,,,,,,,,,,,,,,,,,,,
,,,,,166849,001,2025-03-19_19h23.08.912,Utility_discrimination_2024_2cat,2024.2.4,Win32,59.52380952,,,,,,,,2,"[0.5,0.5]","[0.707,0.707]",d,"[0.8999839616691873,0.5]","[0.10001603833081274,0.5]",205.8603,207.5536,0,d,0,0.1577,,0.469430507,0.882744785,0.413314279,207.5585,207.5586,0,96,96,96,1,0.399983962,0.399983962,shape_difference0,1,,TRUE,,intensity,0.1,0.05,0.7,0.3,0.82,20,400,1E-11,3.5,0.01,0.5,0.1,,,,,,,,,,,,,,,,,,,,,,,,,,,,,,,,,,,,,,,,,,,,,,,,,,,,,,,,,,,,,,,,,,,,,,,,,,,,,,,,,
,,,,,166849,001,2025-03-19_19h23.08.912,Utility_discrimination_2024_2cat,2024.2.4,Win32,59.52380952,,,,,,,,3,"[0.5,0.5]","[0.383,0.924]",s,"[0.9660565032678148,0.9660565032678148]","[0.033943496732185274,0.033943496732185274]",207.5606,209.1102,1,d,1,0.0139,,0.423288094,0.761041721,0.337753627,209.1147,209.115,0,97,97,97,1,0.659202975,0.659202975,shape_difference2,1,,TRUE,,intensity,0.1,0.05,0.7,0.3,0.82,20,400,1E-11,3.5,0.01,0.5,0.1,,,,,,,,,,,,,,,,,,,,,,,,,,,,,,,,,,,,,,,,,,,,,,,,,,,,,,,,,,,,,,,,,,,,,,,,,,,,,,,,,
,,,,,166849,001,2025-03-19_19h23.08.912,Utility_discrimination_2024_2cat,2024.2.4,Win32,59.52380952,,,,,,,,1,"[0.5,0.5]","[0.924,0.383]",d,"[0.7219608440369901,1.0354877803921119]","[0.2780391559630099,-0.03548778039211187]",209.1183,210.8703,0,d,0,0.2258,,0.508853579,0.798802316,0.289948737,210.8731,210.8732,0,98,98,98,1,0.57953223,0.57953223,shape_difference3,1,,TRUE,,intensity,0.1,0.05,0.7,0.3,0.82,20,400,1E-11,3.5,0.01,0.5,0.1,,,,,,,,,,,,,,,,,,,,,,,,,,,,,,,,,,,,,,,,,,,,,,,,,,,,,,,,,,,,,,,,,,,,,,,,,,,,,,,,,
,,,,,166849,001,2025-03-19_19h23.08.912,Utility_discrimination_2024_2cat,2024.2.4,Win32,59.52380952,,,,,,,,0,"[0.5,0.5]","[1,0]",s,"[1.0968436694787584,0.7473929928683598]","[-0.09684366947875833,0.2526070071316402]",210.8744,212.9585,0,d,0,0.552,,0.304259666,0.70239364,0.398133975,212.9613,212.9613,0,99,99,99,1,0.645934707,0.645934707,shape_difference1,1,,TRUE,,intensity,0.1,0.05,0.7,0.3,0.82,20,400,1E-11,3.5,0.01,0.5,0.1,,,,,,,,,,,,,,,,,,,,,,,,,,,,,,,,,,,,,,,,,,,,,,,,,,,,,,,,,,,,,,,,,,,,,,,,,,,,,,,,,
,,,,,166849,001,2025-03-19_19h23.08.912,Utility_discrimination_2024_2cat,2024.2.4,Win32,59.52380952,,,,,,,,2,"[0.5,0.5]","[0.707,0.707]",s,"[0.9661726606504317,0.5]","[0.033827339349568275,0.5]",212.9634,214.6936,1,d,1,0.1907,,0.45743023,0.849475013,0.392044783,214.6956,214.6957,0,100,100,100,1,0.466172661,0.466172661,shape_difference0,1,,TRUE,,intensity,0.1,0.05,0.7,0.3,0.82,20,400,1E-11,3.5,0.01,0.5,0.1,,,,,,,,,,,,,,,,,,,,,,,,,,,,,,,,,,,,,,,,,,,,,,,,,,,,,,,,,,,,,,,,,,,,,,,,,,,,,,,,,
,,,,,166849,001,2025-03-19_19h23.08.912,Utility_discrimination_2024_2cat,2024.2.4,Win32,59.52380952,,,,,,,,3,"[0.5,0.5]","[0.383,0.924]",d,"[0.9524513305150857,0.9524513305150857]","[0.047548669484914374,0.047548669484914374]",214.6969,216.3958,1,s,1,0.1596,,0.498102408,0.819804198,0.32170179,216.3979,216.398,0,101,101,101,1,0.639959449,0.639959449,shape_difference2,1,,TRUE,,intensity,0.1,0.05,0.7,0.3,0.82,20,400,1E-11,3.5,0.01,0.5,0.1,,,,,,,,,,,,,,,,,,,,,,,,,,,,,,,,,,,,,,,,,,,,,,,,,,,,,,,,,,,,,,,,,,,,,,,,,,,,,,,,,
,,,,,166849,001,2025-03-19_19h23.08.912,Utility_discrimination_2024_2cat,2024.2.4,Win32,59.52380952,,,,,,,,1,"[0.5,0.5]","[0.924,0.383]",s,"[0.7425103880113768,1.0850642259073424]","[0.2574896119886232,-0.08506422590734242]",216.3991,217.9444,0,s,0,0.0274,,0.519162041,0.853312907,0.334150866,217.947,217.947,0,102,102,102,1,0.633186392,0.633186392,shape_difference3,1,,TRUE,,intensity,0.1,0.05,0.7,0.3,0.82,20,400,1E-11,3.5,0.01,0.5,0.1,,,,,,,,,,,,,,,,,,,,,,,,,,,,,,,,,,,,,,,,,,,,,,,,,,,,,,,,,,,,,,,,,,,,,,,,,,,,,,,,,
,,,,,166849,001,2025-03-19_19h23.08.912,Utility_discrimination_2024_2cat,2024.2.4,Win32,59.52380952,,,,,,,,4,"[0.5,0.5]","[0,1]",d,"[1.1210564961577134,0.7574292619355025]","[-0.12105649615771352,0.24257073806449753]",217.9481,219.4892,0,d,0,0.0014,,0.803468414,1.118760767,0.315292353,219.4912,219.4912,0,103,103,103,1,0.672139065,0.672139065,shape_difference1,1,,TRUE,,intensity,0.1,0.05,0.7,0.3,0.82,20,400,1E-11,3.5,0.01,0.5,0.1,,,,,,,,,,,,,,,,,,,,,,,,,,,,,,,,,,,,,,,,,,,,,,,,,,,,,,,,,,,,,,,,,,,,,,,,,,,,,,,,,
,,,,,166849,001,2025-03-19_19h23.08.912,Utility_discrimination_2024_2cat,2024.2.4,Win32,59.52380952,,,,,,,,0,"[0.5,0.5]","[1,0]",s,"[0.5,1.448678070541908]","[0.5,-0.4486780705419079]",219.4923,221.0978,1,d,1,0.0705,,0.301607243,0.668928264,0.367321021,221.1005,221.1006,0,104,104,104,1,0.948678071,0.948678071,shape_difference4,1,,TRUE,,intensity,0.1,0.05,0.7,0.3,0.82,20,400,1E-11,3.5,0.01,0.5,0.1,,,,,,,,,,,,,,,,,,,,,,,,,,,,,,,,,,,,,,,,,,,,,,,,,,,,,,,,,,,,,,,,,,,,,,,,,,,,,,,,,
,,,,,166849,001,2025-03-19_19h23.08.912,Utility_discrimination_2024_2cat,2024.2.4,Win32,59.52380952,,,,,,,,3,"[0.5,0.5]","[0.383,0.924]",d,"[0.9474988015829297,0.5]","[0.05250119841707035,0.5]",221.1017,222.8352,0,d,0,0.2014,,0.513805641,0.87581065,0.362005009,222.8375,222.8377,0,105,105,105,1,0.447498802,0.447498802,shape_difference0,1,,TRUE,,intensity,0.1,0.05,0.7,0.3,0.82,20,400,1E-11,3.5,0.01,0.5,0.1,,,,,,,,,,,,,,,,,,,,,,,,,,,,,,,,,,,,,,,,,,,,,,,,,,,,,,,,,,,,,,,,,,,,,,,,,,,,,,,,,
,,,,,166849,001,2025-03-19_19h23.08.912,Utility_discrimination_2024_2cat,2024.2.4,Win32,59.52380952,,,,,,,,1,"[0.5,0.5]","[0.924,0.383]",s,"[0.7571358825217624,1.1203487087470196]","[0.2428641174782375,-0.12034870874701975]",222.839,224.4666,1,d,1,0.0844,,0.575067452,0.914658934,0.339591481,224.4688,224.4688,0,106,106,106,1,0.671373061,0.671373061,shape_difference3,1,,TRUE,,intensity,0.1,0.05,0.7,0.3,0.82,20,400,1E-11,3.5,0.01,0.5,0.1,,,,,,,,,,,,,,,,,,,,,,,,,,,,,,,,,,,,,,,,,,,,,,,,,,,,,,,,,,,,,,,,,,,,,,,,,,,,,,,,,
,,,,,166849,001,2025-03-19_19h23.08.912,Utility_discrimination_2024_2cat,2024.2.4,Win32,59.52380952,,,,,,,,2,"[0.5,0.5]","[0.707,0.707]",d,"[1.171645924997313,0.7783986896904447]","[-0.17164592499731302,0.22160131030955532]",224.47,226.2388,0,d,0,0.2277,,0.444107392,0.812139185,0.368031793,226.2413,226.2413,0,107,107,107,1,0.726889529,0.726889529,shape_difference1,1,,TRUE,,intensity,0.1,0.05,0.7,0.3,0.82,20,400,1E-11,3.5,0.01,0.5,0.1,,,,,,,,,,,,,,,,,,,,,,,,,,,,,,,,,,,,,,,,,,,,,,,,,,,,,,,,,,,,,,,,,,,,,,,,,,,,,,,,,
,,,,,166849,001,2025-03-19_19h23.08.912,Utility_discrimination_2024_2cat,2024.2.4,Win32,59.52380952,,,,,,,,4,"[0.5,0.5]","[0,1]",s,"[0.9382673204895071,0.9382673204895071]","[0.06173267951049283,0.06173267951049283]",226.2425,227.8169,0,d,0,0.0326,,0.800226791,1.094747816,0.294521025,227.8194,227.8196,0,108,108,108,1,0.6198972,0.6198972,shape_difference2,1,,TRUE,,intensity,0.1,0.05,0.7,0.3,0.82,20,400,1E-11,3.5,0.01,0.5,0.1,,,,,,,,,,,,,,,,,,,,,,,,,,,,,,,,,,,,,,,,,,,,,,,,,,,,,,,,,,,,,,,,,,,,,,,,,,,,,,,,,
,,,,,166849,001,2025-03-19_19h23.08.912,Utility_discrimination_2024_2cat,2024.2.4,Win32,59.52380952,,,,,,,,4,"[0.5,0.5]","[0,1]",s,"[0.5,1.434393574315712]","[0.5,-0.4343935743157118]",227.8214,229.4093,1,d,1,0.0592,,0.779086832,1.08201236,0.302925528,229.4121,229.4122,0,109,109,109,1,0.934393574,0.934393574,shape_difference4,1,,TRUE,,intensity,0.1,0.05,0.7,0.3,0.82,20,400,1E-11,3.5,0.01,0.5,0.1,,,,,,,,,,,,,,,,,,,,,,,,,,,,,,,,,,,,,,,,,,,,,,,,,,,,,,,,,,,,,,,,,,,,,,,,,,,,,,,,,
,,,,,166849,001,2025-03-19_19h23.08.912,Utility_discrimination_2024_2cat,2024.2.4,Win32,59.52380952,,,,,,,,0,"[0.5,0.5]","[1,0]",d,"[0.5,1.4188230050198982]","[0.5,-0.4188230050198982]",229.4137,231.0279,1,d,1,0.077,,0.316868403,0.722139499,0.405271096,231.0299,231.03,0,110,110,110,1,0.918823005,0.918823005,shape_difference4,1,,TRUE,,intensity,0.1,0.05,0.7,0.3,0.82,20,400,1E-11,3.5,0.01,0.5,0.1,,,,,,,,,,,,,,,,,,,,,,,,,,,,,,,,,,,,,,,,,,,,,,,,,,,,,,,,,,,,,,,,,,,,,,,,,,,,,,,,,
,,,,,166849,001,2025-03-19_19h23.08.912,Utility_discrimination_2024_2cat,2024.2.4,Win32,59.52380952,,,,,,,,1,"[0.5,0.5]","[0.924,0.383]",d,"[0.9862399253596323,0.5]","[0.013760074640367659,0.5]",231.0312,232.6933,0,d,0,0.126,,0.61198667,0.973346448,0.361359778,232.6964,232.6968,0,111,111,111,1,0.486239925,0.486239925,shape_difference0,1,,TRUE,,intensity,0.1,0.05,0.7,0.3,0.82,20,400,1E-11,3.5,0.01,0.5,0.1,,,,,,,,,,,,,,,,,,,,,,,,,,,,,,,,,,,,,,,,,,,,,,,,,,,,,,,,,,,,,,,,,,,,,,,,,,,,,,,,,
,,,,,166849,001,2025-03-19_19h23.08.912,Utility_discrimination_2024_2cat,2024.2.4,Win32,59.52380952,,,,,,,,3,"[0.5,0.5]","[0.383,0.924]",s,"[1.2108462515192717,0.7946473098829883]","[-0.21084625151927183,0.2053526901170118]",232.6993,234.3802,0,d,0,0.1532,,0.511089749,0.844571723,0.333481974,234.3833,234.3833,0,112,112,112,1,0.769314125,0.769314125,shape_difference1,1,,TRUE,,intensity,0.1,0.05,0.7,0.3,0.82,20,400,1E-11,3.5,0.01,0.5,0.1,,,,,,,,,,,,,,,,,,,,,,,,,,,,,,,,,,,,,,,,,,,,,,,,,,,,,,,,,,,,,,,,,,,,,,,,,,,,,,,,,
,,,,,166849,001,2025-03-19_19h23.08.912,Utility_discrimination_2024_2cat,2024.2.4,Win32,59.52380952,,,,,,,,2,"[0.5,0.5]","[0.707,0.707]",s,"[0.7518829091630782,1.1076757390775045]","[0.2481170908369218,-0.1076757390775046]",234.3845,236.117,0,d,0,0.201,,0.50880432,0.876410832,0.367606513,236.1191,236.1193,0,113,113,113,1,0.657657726,0.657657726,shape_difference3,1,,TRUE,,intensity,0.1,0.05,0.7,0.3,0.82,20,400,1E-11,3.5,0.01,0.5,0.1,,,,,,,,,,,,,,,,,,,,,,,,,,,,,,,,,,,,,,,,,,,,,,,,,,,,,,,,,,,,,,,,,,,,,,,,,,,,,,,,,
,,,,,166849,001,2025-03-19_19h23.08.912,Utility_discrimination_2024_2cat,2024.2.4,Win32,59.52380952,,,,,,,,4,"[0.5,0.5]","[0,1]",s,"[0.9727146097057809,0.9727146097057809]","[0.02728539029421906,0.02728539029421906]",236.1206,237.7323,1,d,1,0.065,,0.762525347,1.06612062,0.303595273,237.7353,237.7354,0,114,114,114,1,0.668620381,0.668620381,shape_difference2,1,,TRUE,,intensity,0.1,0.05,0.7,0.3,0.82,20,400,1E-11,3.5,0.01,0.5,0.1,,,,,,,,,,,,,,,,,,,,,,,,,,,,,,,,,,,,,,,,,,,,,,,,,,,,,,,,,,,,,,,,,,,,,,,,,,,,,,,,,
,,,,,166849,001,2025-03-19_19h23.08.912,Utility_discrimination_2024_2cat,2024.2.4,Win32,59.52380952,,,,,,,,0,"[0.5,0.5]","[1,0]",d,"[0.5,1.4012899561560033]","[0.5,-0.40128995615600327]",237.7367,239.3296,0,d,0,0.0499,,0.380857016,0.800880736,0.42002372,239.3317,239.3318,0,115,115,115,1,0.901289956,0.901289956,shape_difference4,1,,TRUE,,intensity,0.1,0.05,0.7,0.3,0.82,20,400,1E-11,3.5,0.01,0.5,0.1,,,,,,,,,,,,,,,,,,,,,,,,,,,,,,,,,,,,,,,,,,,,,,,,,,,,,,,,,,,,,,,,,,,,,,,,,,,,,,,,,
,,,,,166849,001,2025-03-19_19h23.08.912,Utility_discrimination_2024_2cat,2024.2.4,Win32,59.52380952,,,,,,,,3,"[0.5,0.5]","[0.383,0.924]",s,"[1.0640603146792642,0.5]","[-0.06406031467926421,0.5]",239.333,240.9375,1,d,1,0.0713,,0.548265492,0.922537674,0.374272182,240.9398,240.94,0,116,116,116,1,0.564060315,0.564060315,shape_difference0,1,,TRUE,,intensity,0.1,0.05,0.7,0.3,0.82,20,400,1E-11,3.5,0.01,0.5,0.1,,,,,,,,,,,,,,,,,,,,,,,,,,,,,,,,,,,,,,,,,,,,,,,,,,,,,,,,,,,,,,,,,,,,,,,,,,,,,,,,,
,,,,,166849,001,2025-03-19_19h23.08.912,Utility_discrimination_2024_2cat,2024.2.4,Win32,59.52380952,,,,,,,,1,"[0.5,0.5]","[0.924,0.383]",d,"[0.7759857959046905,1.1658247399893837]","[0.22401420409530953,-0.16582473998938385]",240.9411,242.6008,1,d,1,0.1216,,0.658349324,1.051298186,0.392948862,242.6029,242.6031,0,117,117,117,1,0.720589545,0.720589545,shape_difference3,1,,TRUE,,intensity,0.1,0.05,0.7,0.3,0.82,20,400,1E-11,3.5,0.01,0.5,0.1,,,,,,,,,,,,,,,,,,,,,,,,,,,,,,,,,,,,,,,,,,,,,,,,,,,,,,,,,,,,,,,,,,,,,,,,,,,,,,,,,
,,,,,166849,001,2025-03-19_19h23.08.912,Utility_discrimination_2024_2cat,2024.2.4,Win32,59.52380952,,,,,,,,2,"[0.5,0.5]","[0.707,0.707]",d,"[1.2777037026383926,0.8223598680849613]","[-0.2777037026383925,0.17764013191503863]",242.6046,244.2391,0,d,0,0.0908,,0.506085091,0.844623788,0.338538697,244.2412,244.2413,0,118,118,118,1,0.841670674,0.841670674,shape_difference1,1,,TRUE,,intensity,0.1,0.05,0.7,0.3,0.82,20,400,1E-11,3.5,0.01,0.5,0.1,,,,,,,,,,,,,,,,,,,,,,,,,,,,,,,,,,,,,,,,,,,,,,,,,,,,,,,,,,,,,,,,,,,,,,,,,,,,,,,,,
,,,,,166849,001,2025-03-19_19h23.08.912,Utility_discrimination_2024_2cat,2024.2.4,Win32,59.52380952,,,,,,,,2,"[0.5,0.5]","[0.707,0.707]",s,"[0.9621202392762537,0.9621202392762537]","[0.037879760723746325,0.037879760723746325]",244.2429,245.886,1,d,1,0.1035,,0.503963958,0.800195617,0.296231659,245.8882,245.8883,0,119,119,119,1,0.653635416,0.653635416,shape_difference2,1,,TRUE,,intensity,0.1,0.05,0.7,0.3,0.82,20,400,1E-11,3.5,0.01,0.5,0.1,,,,,,,,,,,,,,,,,,,,,,,,,,,,,,,,,,,,,,,,,,,,,,,,,,,,,,,,,,,,,,,,,,,,,,,,,,,,,,,,,
,,,,,166849,001,2025-03-19_19h23.08.912,Utility_discrimination_2024_2cat,2024.2.4,Win32,59.52380952,,,,,,,,3,"[0.5,0.5]","[0.383,0.924]",d,"[0.9524848808093082,0.9524848808093082]","[0.047515119190691846,0.047515119190691846]",245.8898,247.5794,1,d,1,0.1512,,0.538089483,0.891609806,0.353520323,247.5819,247.582,0,120,120,120,1,0.640006904,0.640006904,shape_difference2,1,,TRUE,,intensity,0.1,0.05,0.7,0.3,0.82,20,400,1E-11,3.5,0.01,0.5,0.1,,,,,,,,,,,,,,,,,,,,,,,,,,,,,,,,,,,,,,,,,,,,,,,,,,,,,,,,,,,,,,,,,,,,,,,,,,,,,,,,,
,,,,,166849,001,2025-03-19_19h23.08.912,Utility_discrimination_2024_2cat,2024.2.4,Win32,59.52380952,,,,,,,,4,"[0.5,0.5]","[0,1]",d,"[0.7675542849903153,1.1454834447285935]","[0.2324457150096847,-0.14548344472859354]",247.5831,249.298,0,d,0,0.1736,,0.808411457,1.09597266,0.287561203,249.3003,249.3004,0,121,121,121,1,0.698575157,0.698575157,shape_difference3,1,,TRUE,,intensity,0.1,0.05,0.7,0.3,0.82,20,400,1E-11,3.5,0.01,0.5,0.1,,,,,,,,,,,,,,,,,,,,,,,,,,,,,,,,,,,,,,,,,,,,,,,,,,,,,,,,,,,,,,,,,,,,,,,,,,,,,,,,,
,,,,,166849,001,2025-03-19_19h23.08.912,Utility_discrimination_2024_2cat,2024.2.4,Win32,59.52380952,,,,,,,,1,"[0.5,0.5]","[0.924,0.383]",s,"[0.5,1.4453469715809135]","[0.5,-0.4453469715809135]",249.3014,251.4058,0,d,0,0.58,,0.713321857,1.091995465,0.378673608,251.4086,251.4089,0,122,122,122,1,0.945346972,0.945346972,shape_difference4,1,,TRUE,,intensity,0.1,0.05,0.7,0.3,0.82,20,400,1E-11,3.5,0.01,0.5,0.1,,,,,,,,,,,,,,,,,,,,,,,,,,,,,,,,,,,,,,,,,,,,,,,,,,,,,,,,,,,,,,,,,,,,,,,,,,,,,,,,,
,,,,,166849,001,2025-03-19_19h23.08.912,Utility_discrimination_2024_2cat,2024.2.4,Win32,59.52380952,,,,,,,,0,"[0.5,0.5]","[1,0]",s,"[1.3193075195283621,0.8396047402374055]","[-0.3193075195283621,0.1603952597625945]",251.4108,252.9782,1,d,1,0.0344,,0.366537373,0.769421636,0.402884263,252.9805,252.9806,0,123,123,123,1,0.88669645,0.88669645,shape_difference1,1,,TRUE,,intensity,0.1,0.05,0.7,0.3,0.82,20,400,1E-11,3.5,0.01,0.5,0.1,,,,,,,,,,,,,,,,,,,,,,,,,,,,,,,,,,,,,,,,,,,,,,,,,,,,,,,,,,,,,,,,,,,,,,,,,,,,,,,,,
,,,,,166849,001,2025-03-19_19h23.08.912,Utility_discrimination_2024_2cat,2024.2.4,Win32,59.52380952,,,,,,,,4,"[0.5,0.5]","[0,1]",d,"[1.0430873275013468,0.5]","[-0.043087327501346806,0.5]",252.982,254.735,0,d,0,0.2209,,0.818843316,1.142657764,0.323814448,254.7373,254.7374,0,124,124,124,1,0.543087328,0.543087328,shape_difference0,1,,TRUE,,intensity,0.1,0.05,0.7,0.3,0.82,20,400,1E-11,3.5,0.01,0.5,0.1,,,,,,,,,,,,,,,,,,,,,,,,,,,,,,,,,,,,,,,,,,,,,,,,,,,,,,,,,,,,,,,,,,,,,,,,,,,,,,,,,
,,,,,166849,001,2025-03-19_19h23.08.912,Utility_discrimination_2024_2cat,2024.2.4,Win32,59.52380952,,,,,,,,2,"[0.5,0.5]","[0.707,0.707]",s,"[0.5,1.4718428899193627]","[0.5,-0.47184288991936263]",254.7386,390.2005,0,d,0,133.9234,,0.501269182,0.787534601,0.28626542,390.2046,390.2049,0,125,125,125,1,0.97184289,0.97184289,shape_difference4,1,,TRUE,,intensity,0.1,0.05,0.7,0.3,0.82,20,400,1E-11,3.5,0.01,0.5,0.1,,,,,,,,,,,,,,,,,,,,,,,,,,,,,,,,,,,,,,,,,,,,,,,,,,,,,,,,,,,,,,,,,,,,,,,,,,,,,,,,,
,,,,,166849,001,2025-03-19_19h23.08.912,Utility_discrimination_2024_2cat,2024.2.4,Win32,59.52380952,,,,,,,,0,"[0.5,0.5]","[1,0]",s,"[0.9423746089764913,0.9423746089764913]","[0.057625391023508665,0.057625391023508665]",390.2071,392.6034,0,d,0,0.8561,,0.414111939,0.823227688,0.409115749,392.6069,392.6071,0,126,126,126,1,0.625706661,0.625706661,shape_difference2,1,,TRUE,,intensity,0.1,0.05,0.7,0.3,0.82,20,400,1E-11,3.5,0.01,0.5,0.1,,,,,,,,,,,,,,,,,,,,,,,,,,,,,,,,,,,,,,,,,,,,,,,,,,,,,,,,,,,,,,,,,,,,,,,,,,,,,,,,,
,,,,,166849,001,2025-03-19_19h23.08.912,Utility_discrimination_2024_2cat,2024.2.4,Win32,59.52380952,,,,,,,,3,"[0.5,0.5]","[0.383,0.924]",s,"[1.0883993007770854,0.5]","[-0.08839930077708547,0.5]",392.6082,394.1834,1,s,1,0.0333,,0.605744318,0.959419813,0.353675495,394.1857,394.1858,0,127,127,127,1,0.588399301,0.588399301,shape_difference0,1,,TRUE,,intensity,0.1,0.05,0.7,0.3,0.82,20,400,1E-11,3.5,0.01,0.5,0.1,,,,,,,,,,,,,,,,,,,,,,,,,,,,,,,,,,,,,,,,,,,,,,,,,,,,,,,,,,,,,,,,,,,,,,,,,,,,,,,,,
,,,,,166849,001,2025-03-19_19h23.08.912,Utility_discrimination_2024_2cat,2024.2.4,Win32,59.52380952,,,,,,,,1,"[0.5,0.5]","[0.924,0.383]",s,"[0.7892281132597456,1.1977722627989689]","[0.21077188674025432,-0.19777226279896876]",394.1872,395.7897,1,s,1,0.0689,,0.709710085,1.069579438,0.359869353,395.7925,395.7926,0,128,128,128,1,0.755164787,0.755164787,shape_difference3,1,,TRUE,,intensity,0.1,0.05,0.7,0.3,0.82,20,400,1E-11,3.5,0.01,0.5,0.1,,,,,,,,,,,,,,,,,,,,,,,,,,,,,,,,,,,,,,,,,,,,,,,,,,,,,,,,,,,,,,,,,,,,,,,,,,,,,,,,,
,,,,,166849,001,2025-03-19_19h23.08.912,Utility_discrimination_2024_2cat,2024.2.4,Win32,59.52380952,,,,,,,,2,"[0.5,0.5]","[0.707,0.707]",s,"[1.3036638848163495,0.8331204197885951]","[-0.30366388481634954,0.16687958021140492]",395.7938,397.4931,0,d,0,0.1565,,0.512983375,0.834681998,0.321698622,397.4953,397.4955,0,129,129,129,1,0.869766109,0.869766109,shape_difference1,1,,TRUE,,intensity,0.1,0.05,0.7,0.3,0.82,20,400,1E-11,3.5,0.01,0.5,0.1,,,,,,,,,,,,,,,,,,,,,,,,,,,,,,,,,,,,,,,,,,,,,,,,,,,,,,,,,,,,,,,,,,,,,,,,,,,,,,,,,
,,,,,166849,001,2025-03-19_19h23.08.912,Utility_discrimination_2024_2cat,2024.2.4,Win32,59.52380952,,,,,,,,4,"[0.5,0.5]","[0,1]",s,"[0.9666576894885668,0.9666576894885668]","[0.03334231051143327,0.03334231051143327]",397.4967,399.3958,1,d,1,0.372,,0.873712016,1.19387815,0.320166134,399.3994,399.3996,0,130,130,130,1,0.660053309,0.660053309,shape_difference2,1,,TRUE,,intensity,0.1,0.05,0.7,0.3,0.82,20,400,1E-11,3.5,0.01,0.5,0.1,,,,,,,,,,,,,,,,,,,,,,,,,,,,,,,,,,,,,,,,,,,,,,,,,,,,,,,,,,,,,,,,,,,,,,,,,,,,,,,,,
,,,,,166849,001,2025-03-19_19h23.08.912,Utility_discrimination_2024_2cat,2024.2.4,Win32,59.52380952,,,,,,,,0,"[0.5,0.5]","[1,0]",d,"[0.5,1.5251704849997978]","[0.5,-0.5251704849997978]",399.4007,400.9972,1,d,1,0.0613,,0.410480478,0.785811183,0.375330704,401.0009,401.001,0,131,131,131,1,1.025170485,1.025170485,shape_difference4,1,,TRUE,,intensity,0.1,0.05,0.7,0.3,0.82,20,400,1E-11,3.5,0.01,0.5,0.1,,,,,,,,,,,,,,,,,,,,,,,,,,,,,,,,,,,,,,,,,,,,,,,,,,,,,,,,,,,,,,,,,,,,,,,,,,,,,,,,,
,,,,,166849,001,2025-03-19_19h23.08.912,Utility_discrimination_2024_2cat,2024.2.4,Win32,59.52380952,,,,,,,,1,"[0.5,0.5]","[0.924,0.383]",d,"[1.0704753017861777,0.5]","[-0.07047530178617767,0.5]",401.0026,402.5821,1,s,1,0.0584,,0.758746471,1.140898136,0.382151664,402.5845,402.5846,0,132,132,132,1,0.570475302,0.570475302,shape_difference0,1,,TRUE,,intensity,0.1,0.05,0.7,0.3,0.82,20,400,1E-11,3.5,0.01,0.5,0.1,,,,,,,,,,,,,,,,,,,,,,,,,,,,,,,,,,,,,,,,,,,,,,,,,,,,,,,,,,,,,,,,,,,,,,,,,,,,,,,,,
,,,,,166849,001,2025-03-19_19h23.08.912,Utility_discrimination_2024_2cat,2024.2.4,Win32,59.52380952,,,,,,,,3,"[0.5,0.5]","[0.383,0.924]",s,"[1.3704870712259332,0.8608187751942991]","[-0.37048707122593316,0.1391812248057009]",402.5857,404.3103,1,d,1,0.1831,,0.603611074,0.92069225,0.317081176,404.3125,404.3126,0,133,133,133,1,0.942085575,0.942085575,shape_difference1,1,,TRUE,,intensity,0.1,0.05,0.7,0.3,0.82,20,400,1E-11,3.5,0.01,0.5,0.1,,,,,,,,,,,,,,,,,,,,,,,,,,,,,,,,,,,,,,,,,,,,,,,,,,,,,,,,,,,,,,,,,,,,,,,,,,,,,,,,,
,,,,,166849,001,2025-03-19_19h23.08.912,Utility_discrimination_2024_2cat,2024.2.4,Win32,59.52380952,,,,,,,,4,"[0.5,0.5]","[0,1]",d,"[0.7833440307053066,1.1835767215971367]","[0.21665596929469338,-0.18357672159713656]",404.3138,405.9277,0,d,0,0.0863,,0.857924958,1.179688371,0.321763413,405.9296,405.9298,0,134,134,134,1,0.739801647,0.739801647,shape_difference3,1,,TRUE,,intensity,0.1,0.05,0.7,0.3,0.82,20,400,1E-11,3.5,0.01,0.5,0.1,,,,,,,,,,,,,,,,,,,,,,,,,,,,,,,,,,,,,,,,,,,,,,,,,,,,,,,,,,,,,,,,,,,,,,,,,,,,,,,,,
,,,,,166849,001,2025-03-19_19h23.08.912,Utility_discrimination_2024_2cat,2024.2.4,Win32,59.52380952,,,,,,,,1,"[0.5,0.5]","[0.924,0.383]",s,"[0.5,1.5067855345638876]","[0.5,-0.5067855345638876]",405.9309,407.5716,1,d,1,0.1102,,0.74516468,1.105259807,0.360095127,407.5739,407.574,0,135,135,135,1,1.006785535,1.006785535,shape_difference4,1,,TRUE,,intensity,0.1,0.05,0.7,0.3,0.82,20,400,1E-11,3.5,0.01,0.5,0.1,,,,,,,,,,,,,,,,,,,,,,,,,,,,,,,,,,,,,,,,,,,,,,,,,,,,,,,,,,,,,,,,,,,,,,,,,,,,,,,,,
,,,,,166849,001,2025-03-19_19h23.08.912,Utility_discrimination_2024_2cat,2024.2.4,Win32,59.52380952,,,,,,,,0,"[0.5,0.5]","[1,0]",d,"[1.352307460736061,0.8532832872964409]","[-0.352307460736061,0.14671671270355913]",407.575,409.2734,0,d,0,0.1756,,0.407780355,0.754735667,0.346955312,409.2755,409.2756,0,136,136,136,1,0.922410672,0.922410672,shape_difference1,1,,TRUE,,intensity,0.1,0.05,0.7,0.3,0.82,20,400,1E-11,3.5,0.01,0.5,0.1,,,,,,,,,,,,,,,,,,,,,,,,,,,,,,,,,,,,,,,,,,,,,,,,,,,,,,,,,,,,,,,,,,,,,,,,,,,,,,,,,
,,,,,166849,001,2025-03-19_19h23.08.912,Utility_discrimination_2024_2cat,2024.2.4,Win32,59.52380952,,,,,,,,2,"[0.5,0.5]","[0.707,0.707]",s,"[1.0550951521254006,0.5]","[-0.055095152125400615,0.5]",409.2775,410.9007,1,d,1,0.0851,,0.51077234,0.797481829,0.286709489,410.9027,410.9028,0,137,137,137,1,0.555095152,0.555095152,shape_difference0,1,,TRUE,,intensity,0.1,0.05,0.7,0.3,0.82,20,400,1E-11,3.5,0.01,0.5,0.1,,,,,,,,,,,,,,,,,,,,,,,,,,,,,,,,,,,,,,,,,,,,,,,,,,,,,,,,,,,,,,,,,,,,,,,,,,,,,,,,,
,,,,,166849,001,2025-03-19_19h23.08.912,Utility_discrimination_2024_2cat,2024.2.4,Win32,59.52380952,,,,,,,,3,"[0.5,0.5]","[0.383,0.924]",d,"[0.9588611471008375,0.9588611471008375]","[0.04113885289916258,0.04113885289916258]",410.904,412.5078,1,d,1,0.0707,,0.615908405,0.972162789,0.356254385,412.5096,412.5098,0,138,138,138,1,0.649025668,0.649025668,shape_difference2,1,,TRUE,,intensity,0.1,0.05,0.7,0.3,0.82,20,400,1E-11,3.5,0.01,0.5,0.1,,,,,,,,,,,,,,,,,,,,,,,,,,,,,,,,,,,,,,,,,,,,,,,,,,,,,,,,,,,,,,,,,,,,,,,,,,,,,,,,,
,,,,,166849,001,2025-03-19_19h23.08.912,Utility_discrimination_2024_2cat,2024.2.4,Win32,59.52380952,,,,,,,,4,"[0.5,0.5]","[0,1]",d,"[0.7965052738909977,1.2153286503271068]","[0.20349472610900232,-0.21532865032710669]",412.5111,414.0922,0,d,0,0.0501,,0.846418761,1.161726438,0.315307678,414.0944,414.0946,0,139,139,139,1,0.774165206,0.774165206,shape_difference3,1,,TRUE,,intensity,0.1,0.05,0.7,0.3,0.82,20,400,1E-11,3.5,0.01,0.5,0.1,,,,,,,,,,,,,,,,,,,,,,,,,,,,,,,,,,,,,,,,,,,,,,,,,,,,,,,,,,,,,,,,,,,,,,,,,,,,,,,,,
,,,,,166849,001,2025-03-19_19h23.08.912,Utility_discrimination_2024_2cat,2024.2.4,Win32,59.52380952,,,,,,,,1,"[0.5,0.5]","[0.924,0.383]",s,"[0.5,1.4924748372581673]","[0.5,-0.49247483725816743]",414.0958,415.6949,0,d,0,0.0521,,0.809152691,1.166812429,0.357659738,415.6985,415.6987,0,140,140,140,1,0.992474837,0.992474837,shape_difference4,1,,TRUE,,intensity,0.1,0.05,0.7,0.3,0.82,20,400,1E-11,3.5,0.01,0.5,0.1,,,,,,,,,,,,,,,,,,,,,,,,,,,,,,,,,,,,,,,,,,,,,,,,,,,,,,,,,,,,,,,,,,,,,,,,,,,,,,,,,
,,,,,166849,001,2025-03-19_19h23.08.912,Utility_discrimination_2024_2cat,2024.2.4,Win32,59.52380952,,,,,,,,2,"[0.5,0.5]","[0.707,0.707]",s,"[1.3964164513038375,0.8715665593607897]","[-0.3964164513038375,0.12843344063921025]",415.7007,417.3043,1,d,1,0.0625,,0.508571421,0.786775784,0.278204364,417.3067,417.3068,0,141,141,141,1,0.970147675,0.970147675,shape_difference1,1,,TRUE,,intensity,0.1,0.05,0.7,0.3,0.82,20,400,1E-11,3.5,0.01,0.5,0.1,,,,,,,,,,,,,,,,,,,,,,,,,,,,,,,,,,,,,,,,,,,,,,,,,,,,,,,,,,,,,,,,,,,,,,,,,,,,,,,,,
,,,,,166849,001,2025-03-19_19h23.08.912,Utility_discrimination_2024_2cat,2024.2.4,Win32,59.52380952,,,,,,,,3,"[0.5,0.5]","[0.383,0.924]",d,"[0.951118889885566,0.951118889885566]","[0.04888111011443397,0.04888111011443397]",417.308,418.8773,0,d,0,0.0331,,0.668047022,1.044255424,0.376208402,418.8797,418.88,0,142,142,142,1,0.638074809,0.638074809,shape_difference2,1,,TRUE,,intensity,0.1,0.05,0.7,0.3,0.82,20,400,1E-11,3.5,0.01,0.5,0.1,,,,,,,,,,,,,,,,,,,,,,,,,,,,,,,,,,,,,,,,,,,,,,,,,,,,,,,,,,,,,,,,,,,,,,,,,,,,,,,,,
,,,,,166849,001,2025-03-19_19h23.08.912,Utility_discrimination_2024_2cat,2024.2.4,Win32,59.52380952,,,,,,,,0,"[0.5,0.5]","[1,0]",s,"[0.8219557365084715,1.276728722020438]","[0.1780442634915284,-0.2767287220204381]",418.8813,420.518,1,d,1,0.1074,,0.405706884,0.711814747,0.306107863,420.5206,420.5208,0,143,143,143,1,0.8406155,0.8406155,shape_difference3,1,,TRUE,,intensity,0.1,0.05,0.7,0.3,0.82,20,400,1E-11,3.5,0.01,0.5,0.1,,,,,,,,,,,,,,,,,,,,,,,,,,,,,,,,,,,,,,,,,,,,,,,,,,,,,,,,,,,,,,,,,,,,,,,,,,,,,,,,,
,,,,,166849,001,2025-03-19_19h23.08.912,Utility_discrimination_2024_2cat,2024.2.4,Win32,59.52380952,,,,,,,,4,"[0.5,0.5]","[0,1]",d,"[1.0412517276495805,0.5]","[-0.041251727649580516,0.5]",420.5221,422.0644,0,d,0,0.0006,,0.906046747,1.195955398,0.289908651,422.0672,422.0675,0,144,144,144,1,0.541251728,0.541251728,shape_difference0,1,,TRUE,,intensity,0.1,0.05,0.7,0.3,0.82,20,400,1E-11,3.5,0.01,0.5,0.1,,,,,,,,,,,,,,,,,,,,,,,,,,,,,,,,,,,,,,,,,,,,,,,,,,,,,,,,,,,,,,,,,,,,,,,,,,,,,,,,,
,,,,,166849,001,2025-03-19_19h23.08.912,Utility_discrimination_2024_2cat,2024.2.4,Win32,59.52380952,,,,,,,,0,"[0.5,0.5]","[1,0]",s,"[0.5,1.5393833042010854]","[0.5,-0.5393833042010854]",422.0692,423.6893,0,d,0,0.0932,,0.416904702,0.768164017,0.351259316,423.6915,423.6917,0,145,145,145,1,1.039383304,1.039383304,shape_difference4,1,,TRUE,,intensity,0.1,0.05,0.7,0.3,0.82,20,400,1E-11,3.5,0.01,0.5,0.1,,,,,,,,,,,,,,,,,,,,,,,,,,,,,,,,,,,,,,,,,,,,,,,,,,,,,,,,,,,,,,,,,,,,,,,,,,,,,,,,,
,,,,,166849,001,2025-03-19_19h23.08.912,Utility_discrimination_2024_2cat,2024.2.4,Win32,59.52380952,,,,,,,,3,"[0.5,0.5]","[0.383,0.924]",s,"[1.072078844757094,0.5]","[-0.07207884475709392,0.5]",423.6928,425.3375,0,d,0,0.1044,,0.652502921,1.008237619,0.355734698,425.3398,425.34,0,146,146,146,1,0.572078845,0.572078845,shape_difference0,1,,TRUE,,intensity,0.1,0.05,0.7,0.3,0.82,20,400,1E-11,3.5,0.01,0.5,0.1,,,,,,,,,,,,,,,,,,,,,,,,,,,,,,,,,,,,,,,,,,,,,,,,,,,,,,,,,,,,,,,,,,,,,,,,,,,,,,,,,
,,,,,166849,001,2025-03-19_19h23.08.912,Utility_discrimination_2024_2cat,2024.2.4,Win32,59.52380952,,,,,,,,1,"[0.5,0.5]","[0.924,0.383]",s,"[0.8144470701436315,1.2586138193543486]","[0.1855529298563685,-0.2586138193543486]",425.3411,426.9232,1,d,1,0.0507,,0.806368323,1.136818161,0.330449838,426.927,426.9272,0,147,147,147,1,0.821010627,0.821010627,shape_difference3,1,,TRUE,,intensity,0.1,0.05,0.7,0.3,0.82,20,400,1E-11,3.5,0.01,0.5,0.1,,,,,,,,,,,,,,,,,,,,,,,,,,,,,,,,,,,,,,,,,,,,,,,,,,,,,,,,,,,,,,,,,,,,,,,,,,,,,,,,,
,,,,,166849,001,2025-03-19_19h23.08.912,Utility_discrimination_2024_2cat,2024.2.4,Win32,59.52380952,,,,,,,,2,"[0.5,0.5]","[0.707,0.707]",d,"[1.3827827659833853,0.865915367285321]","[-0.38278276598338545,0.13408463271467896]",426.929,428.5318,1,d,1,0.0616,,0.517176607,0.821886888,0.304710281,428.5341,428.5343,0,148,148,148,1,0.955392604,0.955392604,shape_difference1,1,,TRUE,,intensity,0.1,0.05,0.7,0.3,0.82,20,400,1E-11,3.5,0.01,0.5,0.1,,,,,,,,,,,,,,,,,,,,,,,,,,,,,,,,,,,,,,,,,,,,,,,,,,,,,,,,,,,,,,,,,,,,,,,,,,,,,,,,,
,,,,,166849,001,2025-03-19_19h23.08.912,Utility_discrimination_2024_2cat,2024.2.4,Win32,59.52380952,,,,,,,,4,"[0.5,0.5]","[0,1]",d,"[0.9692536787754633,0.9692536787754633]","[0.030746321224536688,0.030746321224536688]",428.5354,430.208,1,d,1,0.1404,,0.916536714,1.245047819,0.328511105,430.2103,430.2104,0,149,149,149,1,0.663725147,0.663725147,shape_difference2,1,,TRUE,,intensity,0.1,0.05,0.7,0.3,0.82,20,400,1E-11,3.5,0.01,0.5,0.1,,,,,,,,,,,,,,,,,,,,,,,,,,,,,,,,,,,,,,,,,,,,,,,,,,,,,,,,,,,,,,,,,,,,,,,,,,,,,,,,,
,,,,,166849,001,2025-03-19_19h23.08.912,Utility_discrimination_2024_2cat,2024.2.4,Win32,59.52380952,,,,,,,,1,"[0.5,0.5]","[0.924,0.383]",d,"[0.5,1.5697382614821578]","[0.5,-0.5697382614821578]",430.2116,431.9121,1,d,1,0.1742,,0.804190388,1.098531791,0.294341403,431.9153,431.9155,0,150,150,150,1,1.069738261,1.069738261,shape_difference4,1,,TRUE,,intensity,0.1,0.05,0.7,0.3,0.82,20,400,1E-11,3.5,0.01,0.5,0.1,,,,,,,,,,,,,,,,,,,,,,,,,,,,,,,,,,,,,,,,,,,,,,,,,,,,,,,,,,,,,,,,,,,,,,,,,,,,,,,,,
,,,,,166849,001,2025-03-19_19h23.08.912,Utility_discrimination_2024_2cat,2024.2.4,Win32,59.52380952,,,,,,,,2,"[0.5,0.5]","[0.707,0.707]",d,"[1.3703447050335484,0.8607597640994038]","[-0.37034470503354844,0.13924023590059625]",431.9175,433.5987,1,d,1,0.1456,,0.514646269,0.79450046,0.279854191,433.6009,433.601,0,151,151,151,1,0.941931499,0.941931499,shape_difference1,1,,TRUE,,intensity,0.1,0.05,0.7,0.3,0.82,20,400,1E-11,3.5,0.01,0.5,0.1,,,,,,,,,,,,,,,,,,,,,,,,,,,,,,,,,,,,,,,,,,,,,,,,,,,,,,,,,,,,,,,,,,,,,,,,,,,,,,,,,
,,,,,166849,001,2025-03-19_19h23.08.912,Utility_discrimination_2024_2cat,2024.2.4,Win32,59.52380952,,,,,,,,3,"[0.5,0.5]","[0.383,0.924]",d,"[0.9627716481751684,0.9627716481751684]","[0.03722835182483164,0.03722835182483164]",433.6025,435.294,1,d,1,0.1454,,0.641455361,0.987064225,0.345608864,435.2962,435.2964,0,152,152,152,1,0.654556787,0.654556787,shape_difference2,1,,TRUE,,intensity,0.1,0.05,0.7,0.3,0.82,20,400,1E-11,3.5,0.01,0.5,0.1,,,,,,,,,,,,,,,,,,,,,,,,,,,,,,,,,,,,,,,,,,,,,,,,,,,,,,,,,,,,,,,,,,,,,,,,,,,,,,,,,
,,,,,166849,001,2025-03-19_19h23.08.912,Utility_discrimination_2024_2cat,2024.2.4,Win32,59.52380952,,,,,,,,0,"[0.5,0.5]","[1,0]",d,"[0.806222523374708,1.238771831849165]","[0.19377747662529204,-0.23877183184916484]",435.2975,436.885,1,d,1,0.066,,0.469145581,0.846517917,0.377372337,436.8873,436.8874,0,153,153,153,1,0.799536615,0.799536615,shape_difference3,1,,TRUE,,intensity,0.1,0.05,0.7,0.3,0.82,20,400,1E-11,3.5,0.01,0.5,0.1,,,,,,,,,,,,,,,,,,,,,,,,,,,,,,,,,,,,,,,,,,,,,,,,,,,,,,,,,,,,,,,,,,,,,,,,,,,,,,,,,
,,,,,166849,001,2025-03-19_19h23.08.912,Utility_discrimination_2024_2cat,2024.2.4,Win32,59.52380952,,,,,,,,2,"[0.5,0.5]","[0.707,0.707]",d,"[1.1343496002638789,0.5]","[-0.13434960026387877,0.5]",436.8885,438.6132,0,d,0,0.1879,,0.512679864,0.782594888,0.269915023,438.6153,438.6154,0,154,154,154,1,0.6343496,0.6343496,shape_difference0,1,,TRUE,,intensity,0.1,0.05,0.7,0.3,0.82,20,400,1E-11,3.5,0.01,0.5,0.1,,,,,,,,,,,,,,,,,,,,,,,,,,,,,,,,,,,,,,,,,,,,,,,,,,,,,,,,,,,,,,,,,,,,,,,,,,,,,,,,,
,,,,,166849,001,2025-03-19_19h23.08.912,Utility_discrimination_2024_2cat,2024.2.4,Win32,59.52380952,,,,,,,,1,"[0.5,0.5]","[0.924,0.383]",s,"[0.9567519602145893,0.9567519602145893]","[0.04324803978541064,0.04324803978541064]",438.6167,440.1513,1,d,1,0.0007,,0.801440517,1.0870691,0.285628583,440.1549,440.1552,0,155,155,155,1,0.646042377,0.646042377,shape_difference2,1,,TRUE,,intensity,0.1,0.05,0.7,0.3,0.82,20,400,1E-11,3.5,0.01,0.5,0.1,,,,,,,,,,,,,,,,,,,,,,,,,,,,,,,,,,,,,,,,,,,,,,,,,,,,,,,,,,,,,,,,,,,,,,,,,,,,,,,,,
,,,,,166849,001,2025-03-19_19h23.08.912,Utility_discrimination_2024_2cat,2024.2.4,Win32,59.52380952,,,,,,,,4,"[0.5,0.5]","[0,1]",d,"[1.3573230773395146,0.8553622712348854]","[-0.3573230773395146,0.14463772876511466]",440.1564,441.9198,0,d,0,0.2313,,0.913813779,1.210454299,0.29664052,441.9228,441.923,0,156,156,156,1,0.927838828,0.927838828,shape_difference1,1,,TRUE,,intensity,0.1,0.05,0.7,0.3,0.82,20,400,1E-11,3.5,0.01,0.5,0.1,,,,,,,,,,,,,,,,,,,,,,,,,,,,,,,,,,,,,,,,,,,,,,,,,,,,,,,,,,,,,,,,,,,,,,,,,,,,,,,,,
,,,,,166849,001,2025-03-19_19h23.08.912,Utility_discrimination_2024_2cat,2024.2.4,Win32,59.52380952,,,,,,,,0,"[0.5,0.5]","[1,0]",s,"[0.5,1.5584982387252908]","[0.5,-0.5584982387252908]",441.9245,443.5194,0,d,0,0.0702,,0.512792617,0.893863551,0.381070934,443.5218,443.522,0,157,157,157,1,1.058498239,1.058498239,shape_difference4,1,,TRUE,,intensity,0.1,0.05,0.7,0.3,0.82,20,400,1E-11,3.5,0.01,0.5,0.1,,,,,,,,,,,,,,,,,,,,,,,,,,,,,,,,,,,,,,,,,,,,,,,,,,,,,,,,,,,,,,,,,,,,,,,,,,,,,,,,,
,,,,,166849,001,2025-03-19_19h23.08.912,Utility_discrimination_2024_2cat,2024.2.4,Win32,59.52380952,,,,,,,,3,"[0.5,0.5]","[0.383,0.924]",s,"[1.1787421271158225,0.5]","[-0.17874212711582238,0.5]",443.5231,445.1626,1,d,1,0.0932,,0.633443116,0.967419783,0.333976666,445.1653,445.1655,0,158,158,158,1,0.678742127,0.678742127,shape_difference0,1,,TRUE,,intensity,0.1,0.05,0.7,0.3,0.82,20,400,1E-11,3.5,0.01,0.5,0.1,,,,,,,,,,,,,,,,,,,,,,,,,,,,,,,,,,,,,,,,,,,,,,,,,,,,,,,,,,,,,,,,,,,,,,,,,,,,,,,,,
,,,,,166849,001,2025-03-19_19h23.08.912,Utility_discrimination_2024_2cat,2024.2.4,Win32,59.52380952,,,,,,,,3,"[0.5,0.5]","[0.383,0.924]",d,"[0.8015428362029192,1.22748193381592]","[0.19845716379708078,-0.22748193381591997]",445.1666,446.748,0,d,0,0.0399,,0.703439485,1.015981425,0.31254194,446.7503,446.7505,0,159,159,159,1,0.78731811,0.78731811,shape_difference3,1,,TRUE,,intensity,0.1,0.05,0.7,0.3,0.82,20,400,1E-11,3.5,0.01,0.5,0.1,,,,,,,,,,,,,,,,,,,,,,,,,,,,,,,,,,,,,,,,,,,,,,,,,,,,,,,,,,,,,,,,,,,,,,,,,,,,,,,,,
,,,,,166849,001,2025-03-19_19h23.08.912,Utility_discrimination_2024_2cat,2024.2.4,Win32,59.52380952,,,,,,,,2,"[0.5,0.5]","[0.707,0.707]",s,"[0.8212249419150242,1.2749656562127476]","[0.17877505808497585,-0.2749656562127476]",446.7517,448.3072,1,d,1,0.0144,,0.510809147,0.771333039,0.260523892,448.309,448.3092,0,160,160,160,1,0.83870742,0.83870742,shape_difference3,1,,TRUE,,intensity,0.1,0.05,0.7,0.3,0.82,20,400,1E-11,3.5,0.01,0.5,0.1,,,,,,,,,,,,,,,,,,,,,,,,,,,,,,,,,,,,,,,,,,,,,,,,,,,,,,,,,,,,,,,,,,,,,,,,,,,,,,,,,
,,,,,166849,001,2025-03-19_19h23.08.912,Utility_discrimination_2024_2cat,2024.2.4,Win32,59.52380952,,,,,,,,1,"[0.5,0.5]","[0.924,0.383]",d,"[0.9504398924844351,0.9504398924844351]","[0.049560107515565,0.049560107515565]",448.3104,449.859,1,d,1,0.0143,,0.813357268,1.12772247,0.314365202,449.8609,449.8611,0,161,161,161,1,0.637114417,0.637114417,shape_difference2,1,,TRUE,,intensity,0.1,0.05,0.7,0.3,0.82,20,400,1E-11,3.5,0.01,0.5,0.1,,,,,,,,,,,,,,,,,,,,,,,,,,,,,,,,,,,,,,,,,,,,,,,,,,,,,,,,,,,,,,,,,,,,,,,,,,,,,,,,,
,,,,,166849,001,2025-03-19_19h23.08.912,Utility_discrimination_2024_2cat,2024.2.4,Win32,59.52380952,,,,,,,,4,"[0.5,0.5]","[0,1]",d,"[1.3885394548826009,0.8683015272944115]","[-0.3885394548826009,0.1316984727055886]",449.8624,451.5697,1,d,1,0.1755,,0.951409759,1.281938586,0.330528827,451.5718,451.5719,0,162,162,162,1,0.961622787,0.961622787,shape_difference1,1,,TRUE,,intensity,0.1,0.05,0.7,0.3,0.82,20,400,1E-11,3.5,0.01,0.5,0.1,,,,,,,,,,,,,,,,,,,,,,,,,,,,,,,,,,,,,,,,,,,,,,,,,,,,,,,,,,,,,,,,,,,,,,,,,,,,,,,,,
,,,,,166849,001,2025-03-19_19h23.08.912,Utility_discrimination_2024_2cat,2024.2.4,Win32,59.52380952,,,,,,,,0,"[0.5,0.5]","[1,0]",d,"[0.5,1.6084785909324226]","[0.5,-0.6084785909324226]",451.5732,453.2381,1,d,1,0.1227,,0.509738606,0.867527438,0.357788833,453.2402,453.2404,0,163,163,163,1,1.108478591,1.108478591,shape_difference4,1,,TRUE,,intensity,0.1,0.05,0.7,0.3,0.82,20,400,1E-11,3.5,0.01,0.5,0.1,,,,,,,,,,,,,,,,,,,,,,,,,,,,,,,,,,,,,,,,,,,,,,,,,,,,,,,,,,,,,,,,,,,,,,,,,,,,,,,,,
,,,,,166849,001,2025-03-19_19h23.08.912,Utility_discrimination_2024_2cat,2024.2.4,Win32,59.52380952,,,,,,,,3,"[0.5,0.5]","[0.383,0.924]",d,"[1.1624804604026253,0.5]","[-0.1624804604026252,0.5]",453.2415,454.9715,0,d,0,0.1921,,0.700782483,0.992238537,0.291456054,454.974,454.9741,0,164,164,164,1,0.66248046,0.66248046,shape_difference0,1,,TRUE,,intensity,0.1,0.05,0.7,0.3,0.82,20,400,1E-11,3.5,0.01,0.5,0.1,,,,,,,,,,,,,,,,,,,,,,,,,,,,,,,,,,,,,,,,,,,,,,,,,,,,,,,,,,,,,,,,,,,,,,,,,,,,,,,,,
,,,,,166849,001,2025-03-19_19h23.08.912,Utility_discrimination_2024_2cat,2024.2.4,Win32,59.52380952,,,,,,,,1,"[0.5,0.5]","[0.924,0.383]",s,"[0.8150985341447372,1.2601854975188957]","[0.18490146585526285,-0.26018549751889586]",454.9754,456.627,0,d,0,0.1235,,0.811072933,1.096381803,0.28530887,456.629,456.6293,0,165,165,165,1,0.822711577,0.822711577,shape_difference3,1,,TRUE,,intensity,0.1,0.05,0.7,0.3,0.82,20,400,1E-11,3.5,0.01,0.5,0.1,,,,,,,,,,,,,,,,,,,,,,,,,,,,,,,,,,,,,,,,,,,,,,,,,,,,,,,,,,,,,,,,,,,,,,,,,,,,,,,,,
,,,,,166849,001,2025-03-19_19h23.08.912,Utility_discrimination_2024_2cat,2024.2.4,Win32,59.52380952,,,,,,,,0,"[0.5,0.5]","[1,0]",s,"[1.3784238925694614,0.8641086048204585]","[-0.3784238925694614,0.13589139517954146]",456.6304,458.3441,1,d,1,0.1791,,0.551171262,0.952446257,0.401274995,458.3461,458.3463,0,166,166,166,1,0.950675208,0.950675208,shape_difference1,1,,TRUE,,intensity,0.1,0.05,0.7,0.3,0.82,20,400,1E-11,3.5,0.01,0.5,0.1,,,,,,,,,,,,,,,,,,,,,,,,,,,,,,,,,,,,,,,,,,,,,,,,,,,,,,,,,,,,,,,,,,,,,,,,,,,,,,,,,
,,,,,166849,001,2025-03-19_19h23.08.912,Utility_discrimination_2024_2cat,2024.2.4,Win32,59.52380952,,,,,,,,4,"[0.5,0.5]","[0,1]",d,"[1.2357678045294462,0.5]","[-0.23576780452944635,0.5]",458.3478,459.9595,0,d,0,0.0672,,0.941179405,1.264777361,0.323597956,459.9627,459.9628,0,167,167,167,1,0.735767805,0.735767805,shape_difference0,1,,TRUE,,intensity,0.1,0.05,0.7,0.3,0.82,20,400,1E-11,3.5,0.01,0.5,0.1,,,,,,,,,,,,,,,,,,,,,,,,,,,,,,,,,,,,,,,,,,,,,,,,,,,,,,,,,,,,,,,,,,,,,,,,,,,,,,,,,
,,,,,166849,001,2025-03-19_19h23.08.912,Utility_discrimination_2024_2cat,2024.2.4,Win32,59.52380952,,,,,,,,2,"[0.5,0.5]","[0.707,0.707]",s,"[0.5,1.592958208522124]","[0.5,-0.5929582085221241]",459.9645,461.5071,0,d,0,0.0008,,0.509272472,0.757497045,0.248224573,461.5094,461.5095,0,168,168,168,1,1.092958209,1.092958209,shape_difference4,1,,TRUE,,intensity,0.1,0.05,0.7,0.3,0.82,20,400,1E-11,3.5,0.01,0.5,0.1,,,,,,,,,,,,,,,,,,,,,,,,,,,,,,,,,,,,,,,,,,,,,,,,,,,,,,,,,,,,,,,,,,,,,,,,,,,,,,,,,
,,,,,166849,001,2025-03-19_19h23.08.912,Utility_discrimination_2024_2cat,2024.2.4,Win32,59.52380952,,,,,,,,4,"[0.5,0.5]","[0,1]",s,"[0.9435332353894185,0.9435332353894185]","[0.05646676461058153,0.05646676461058153]",461.5113,463.1325,1,d,1,0.0785,,1.00543185,1.297536315,0.292104465,463.135,463.1351,0,169,169,169,1,0.627345453,0.627345453,shape_difference2,1,,TRUE,,intensity,0.1,0.05,0.7,0.3,0.82,20,400,1E-11,3.5,0.01,0.5,0.1,,,,,,,,,,,,,,,,,,,,,,,,,,,,,,,,,,,,,,,,,,,,,,,,,,,,,,,,,,,,,,,,,,,,,,,,,,,,,,,,,
,,,,,166849,001,2025-03-19_19h23.08.912,Utility_discrimination_2024_2cat,2024.2.4,Win32,59.52380952,,,,,,,,0,"[0.5,0.5]","[1,0]",d,"[0.5,1.6417823055931025]","[0.5,-0.6417823055931025]",463.1364,464.6746,1,d,1,0.0007,,0.611631562,0.9961303,0.384498738,464.6769,464.677,0,170,170,170,1,1.141782306,1.141782306,shape_difference4,1,,TRUE,,intensity,0.1,0.05,0.7,0.3,0.82,20,400,1E-11,3.5,0.01,0.5,0.1,,,,,,,,,,,,,,,,,,,,,,,,,,,,,,,,,,,,,,,,,,,,,,,,,,,,,,,,,,,,,,,,,,,,,,,,,,,,,,,,,
,,,,,166849,001,2025-03-19_19h23.08.912,Utility_discrimination_2024_2cat,2024.2.4,Win32,59.52380952,,,,,,,,2,"[0.5,0.5]","[0.707,0.707]",d,"[1.284199187521888,0.5]","[-0.2841991875218881,0.5]",464.6782,466.2565,1,s,1,0.0462,,0.507983543,0.740093139,0.232109596,466.2589,466.2592,0,171,171,171,1,0.784199188,0.784199188,shape_difference0,1,,TRUE,,intensity,0.1,0.05,0.7,0.3,0.82,20,400,1E-11,3.5,0.01,0.5,0.1,,,,,,,,,,,,,,,,,,,,,,,,,,,,,,,,,,,,,,,,,,,,,,,,,,,,,,,,,,,,,,,,,,,,,,,,,,,,,,,,,
,,,,,166849,001,2025-03-19_19h23.08.912,Utility_discrimination_2024_2cat,2024.2.4,Win32,59.52380952,,,,,,,,3,"[0.5,0.5]","[0.383,0.924]",s,"[0.9357976806262727,0.9357976806262727]","[0.06420231937372739,0.06420231937372739]",466.2608,467.7983,0,s,0,0.0007,,0.712363128,1.046557629,0.334194501,467.8018,467.8021,0,172,172,172,1,0.616404074,0.616404074,shape_difference2,1,,TRUE,,intensity,0.1,0.05,0.7,0.3,0.82,20,400,1E-11,3.5,0.01,0.5,0.1,,,,,,,,,,,,,,,,,,,,,,,,,,,,,,,,,,,,,,,,,,,,,,,,,,,,,,,,,,,,,,,,,,,,,,,,,,,,,,,,,
,,,,,166849,001,2025-03-19_19h23.08.912,Utility_discrimination_2024_2cat,2024.2.4,Win32,59.52380952,,,,,,,,1,"[0.5,0.5]","[0.924,0.383]",d,"[0.8297752170563533,1.2955934740471813]","[0.17022478294364668,-0.2955934740471814]",467.8035,469.4119,0,d,0,0.0805,,0.809286485,1.084244395,0.27495791,469.4144,469.4145,0,173,173,173,1,0.861031898,0.861031898,shape_difference3,1,,TRUE,,intensity,0.1,0.05,0.7,0.3,0.82,20,400,1E-11,3.5,0.01,0.5,0.1,,,,,,,,,,,,,,,,,,,,,,,,,,,,,,,,,,,,,,,,,,,,,,,,,,,,,,,,,,,,,,,,,,,,,,,,,,,,,,,,,
,,,,,166849,001,2025-03-19_19h23.08.912,Utility_discrimination_2024_2cat,2024.2.4,Win32,59.52380952,,,,,,,,1,"[0.5,0.5]","[0.924,0.383]",s,"[1.368929302260629,0.8601730765863863]","[-0.36892930226062914,0.1398269234136137]",469.4157,470.951,1,d,1,0.0008,,0.807379029,1.072504519,0.265125491,470.9537,470.954,0,174,174,174,1,0.940399678,0.940399678,shape_difference1,1,,TRUE,,intensity,0.1,0.05,0.7,0.3,0.82,20,400,1E-11,3.5,0.01,0.5,0.1,,,,,,,,,,,,,,,,,,,,,,,,,,,,,,,,,,,,,,,,,,,,,,,,,,,,,,,,,,,,,,,,,,,,,,,,,,,,,,,,,
,,,,,166849,001,2025-03-19_19h23.08.912,Utility_discrimination_2024_2cat,2024.2.4,Win32,59.52380952,,,,,,,,3,"[0.5,0.5]","[0.383,0.924]",d,"[1.3586653362279715,0.855918640449473]","[-0.3586653362279716,0.14408135955052698]",470.9557,472.4863,1,s,1,0.0006,,0.75121151,1.111405448,0.360193938,472.4891,472.4893,0,175,175,175,1,0.929291489,0.929291489,shape_difference1,1,,TRUE,,intensity,0.1,0.05,0.7,0.3,0.82,20,400,1E-11,3.5,0.01,0.5,0.1,,,,,,,,,,,,,,,,,,,,,,,,,,,,,,,,,,,,,,,,,,,,,,,,,,,,,,,,,,,,,,,,,,,,,,,,,,,,,,,,,
,,,,,166849,001,2025-03-19_19h23.08.912,Utility_discrimination_2024_2cat,2024.2.4,Win32,59.52380952,,,,,,,,4,"[0.5,0.5]","[0,1]",s,"[0.8541218487211286,1.354330517541313]","[0.14587815127887138,-0.35433051754131284]",472.4915,474.1436,0,d,0,0.1127,,1.002923055,1.286388965,0.28346591,474.146,474.1463,0,176,176,176,1,0.924600127,0.924600127,shape_difference3,1,,TRUE,,intensity,0.1,0.05,0.7,0.3,0.82,20,400,1E-11,3.5,0.01,0.5,0.1,,,,,,,,,,,,,,,,,,,,,,,,,,,,,,,,,,,,,,,,,,,,,,,,,,,,,,,,,,,,,,,,,,,,,,,,,,,,,,,,,
,,,,,166849,001,2025-03-19_19h23.08.912,Utility_discrimination_2024_2cat,2024.2.4,Win32,59.52380952,,,,,,,,0,"[0.5,0.5]","[1,0]",s,"[0.5,1.6277141913110555]","[0.5,-0.6277141913110555]",474.1474,475.7942,0,s,0,0.1019,,0.608209698,0.972588406,0.364378707,475.7962,475.7965,0,177,177,177,1,1.127714191,1.127714191,shape_difference4,1,,TRUE,,intensity,0.1,0.05,0.7,0.3,0.82,20,400,1E-11,3.5,0.01,0.5,0.1,,,,,,,,,,,,,,,,,,,,,,,,,,,,,,,,,,,,,,,,,,,,,,,,,,,,,,,,,,,,,,,,,,,,,,,,,,,,,,,,,
,,,,,166849,001,2025-03-19_19h23.08.912,Utility_discrimination_2024_2cat,2024.2.4,Win32,59.52380952,,,,,,,,2,"[0.5,0.5]","[0.707,0.707]",d,"[1.266732882502278,0.5]","[-0.2667328825022779,0.5]",475.7976,477.7145,1,d,1,0.3737,,0.513061433,0.772647754,0.25958632,477.7168,477.7169,0,178,178,178,1,0.766732883,0.766732883,shape_difference0,1,,TRUE,,intensity,0.1,0.05,0.7,0.3,0.82,20,400,1E-11,3.5,0.01,0.5,0.1,,,,,,,,,,,,,,,,,,,,,,,,,,,,,,,,,,,,,,,,,,,,,,,,,,,,,,,,,,,,,,,,,,,,,,,,,,,,,,,,,
,,,,,166849,001,2025-03-19_19h23.08.912,Utility_discrimination_2024_2cat,2024.2.4,Win32,59.52380952,,,,,,,,4,"[0.5,0.5]","[0,1]",d,"[0.9549674906803843,0.9549674906803843]","[0.045032509319615666,0.045032509319615666]",477.7183,479.2935,1,s,1,0.0334,,1.013615541,1.323571454,0.309955913,479.2954,479.2955,0,179,179,179,1,0.643518374,0.643518374,shape_difference2,1,,TRUE,,intensity,0.1,0.05,0.7,0.3,0.82,20,400,1E-11,3.5,0.01,0.5,0.1,,,,,,,,,,,,,,,,,,,,,,,,,,,,,,,,,,,,,,,,,,,,,,,,,,,,,,,,,,,,,,,,,,,,,,,,,,,,,,,,,
,,,,,166849,001,2025-03-19_19h23.08.912,Utility_discrimination_2024_2cat,2024.2.4,Win32,59.52380952,,,,,,,,1,"[0.5,0.5]","[0.924,0.383]",s,"[0.5,1.6613586434911372]","[0.5,-0.6613586434911372]",479.297,480.8658,1,d,1,0.0309,,0.80571054,1.057907246,0.252196706,480.8691,480.8694,0,180,180,180,1,1.161358643,1.161358643,shape_difference4,1,,TRUE,,intensity,0.1,0.05,0.7,0.3,0.82,20,400,1E-11,3.5,0.01,0.5,0.1,,,,,,,,,,,,,,,,,,,,,,,,,,,,,,,,,,,,,,,,,,,,,,,,,,,,,,,,,,,,,,,,,,,,,,,,,,,,,,,,,
,,,,,166849,001,2025-03-19_19h23.08.912,Utility_discrimination_2024_2cat,2024.2.4,Win32,59.52380952,,,,,,,,0,"[0.5,0.5]","[1,0]",d,"[1.3472962602191938,0.851206133835445]","[-0.3472962602191937,0.14879386616455503]",480.8706,482.6692,1,d,1,0.2517,,0.605618166,0.940655428,0.335037262,482.6714,482.6715,0,181,181,181,1,0.916987295,0.916987295,shape_difference1,1,,TRUE,,intensity,0.1,0.05,0.7,0.3,0.82,20,400,1E-11,3.5,0.01,0.5,0.1,,,,,,,,,,,,,,,,,,,,,,,,,,,,,,,,,,,,,,,,,,,,,,,,,,,,,,,,,,,,,,,,,,,,,,,,,,,,,,,,,
,,,,,166849,001,2025-03-19_19h23.08.912,Utility_discrimination_2024_2cat,2024.2.4,Win32,59.52380952,,,,,,,,3,"[0.5,0.5]","[0.383,0.924]",d,"[1.2514690061089455,0.5]","[-0.2514690061089454,0.5]",482.6727,484.2623,0,s,0,0.0518,,0.810063291,1.169626027,0.359562736,484.2641,484.2642,0,182,182,182,1,0.751469006,0.751469006,shape_difference0,1,,TRUE,,intensity,0.1,0.05,0.7,0.3,0.82,20,400,1E-11,3.5,0.01,0.5,0.1,,,,,,,,,,,,,,,,,,,,,,,,,,,,,,,,,,,,,,,,,,,,,,,,,,,,,,,,,,,,,,,,,,,,,,,,,,,,,,,,,
,,,,,166849,001,2025-03-19_19h23.08.912,Utility_discrimination_2024_2cat,2024.2.4,Win32,59.52380952,,,,,,,,2,"[0.5,0.5]","[0.707,0.707]",d,"[0.8720190368682452,1.3975080680581162]","[0.12798096313175483,-0.3975080680581162]",484.2657,485.7973,1,s,1,0.0008,,0.511359989,0.760208747,0.248848758,485.7994,485.7996,0,183,183,183,1,0.971329078,0.971329078,shape_difference3,1,,TRUE,,intensity,0.1,0.05,0.7,0.3,0.82,20,400,1E-11,3.5,0.01,0.5,0.1,,,,,,,,,,,,,,,,,,,,,,,,,,,,,,,,,,,,,,,,,,,,,,,,,,,,,,,,,,,,,,,,,,,,,,,,,,,,,,,,,
,,,,,166849,001,2025-03-19_19h23.08.912,Utility_discrimination_2024_2cat,2024.2.4,Win32,59.52380952,,,,,,,,3,"[0.5,0.5]","[0.383,0.924]",s,"[0.9491764090901178,0.9491764090901178]","[0.0508235909098822,0.0508235909098822]",485.8006,487.5363,0,d,0,0.205,,0.807291334,1.140543443,0.333252109,487.5391,487.5393,0,184,184,184,1,0.635327311,0.635327311,shape_difference2,1,,TRUE,,intensity,0.1,0.05,0.7,0.3,0.82,20,400,1E-11,3.5,0.01,0.5,0.1,,,,,,,,,,,,,,,,,,,,,,,,,,,,,,,,,,,,,,,,,,,,,,,,,,,,,,,,,,,,,,,,,,,,,,,,,,,,,,,,,
,,,,,166849,001,2025-03-19_19h23.08.912,Utility_discrimination_2024_2cat,2024.2.4,Win32,59.52380952,,,,,,,,4,"[0.5,0.5]","[0,1]",s,"[0.8662788570559972,1.383659696918385]","[0.13372114294400284,-0.38365969691838486]",487.5404,489.2101,0,d,0,0.1428,,1.011395555,1.295514992,0.284119437,489.2128,489.2129,0,185,185,185,1,0.956341663,0.956341663,shape_difference3,1,,TRUE,,intensity,0.1,0.05,0.7,0.3,0.82,20,400,1E-11,3.5,0.01,0.5,0.1,,,,,,,,,,,,,,,,,,,,,,,,,,,,,,,,,,,,,,,,,,,,,,,,,,,,,,,,,,,,,,,,,,,,,,,,,,,,,,,,,
,,,,,166849,001,2025-03-19_19h23.08.912,Utility_discrimination_2024_2cat,2024.2.4,Win32,59.52380952,,,,,,,,1,"[0.5,0.5]","[0.924,0.383]",s,"[0.5,1.6503477450424797]","[0.5,-0.6503477450424797]",489.214,490.8543,0,d,0,0.1118,,0.804197541,1.039309358,0.235111817,490.8566,490.8569,0,186,186,186,1,1.150347745,1.150347745,shape_difference4,1,,TRUE,,intensity,0.1,0.05,0.7,0.3,0.82,20,400,1E-11,3.5,0.01,0.5,0.1,,,,,,,,,,,,,,,,,,,,,,,,,,,,,,,,,,,,,,,,,,,,,,,,,,,,,,,,,,,,,,,,,,,,,,,,,,,,,,,,,
,,,,,166849,001,2025-03-19_19h23.08.912,Utility_discrimination_2024_2cat,2024.2.4,Win32,59.52380952,,,,,,,,0,"[0.5,0.5]","[1,0]",s,"[1.3344080688274642,0.8458639506070549]","[-0.3344080688274642,0.15413604939294506]",490.8579,498.1354,0,s,0,5.7452,,0.642094105,1.018419442,0.376325337,498.1378,498.138,0,187,187,187,1,0.903039036,0.903039036,shape_difference1,1,,TRUE,,intensity,0.1,0.05,0.7,0.3,0.82,20,400,1E-11,3.5,0.01,0.5,0.1,,,,,,,,,,,,,,,,,,,,,,,,,,,,,,,,,,,,,,,,,,,,,,,,,,,,,,,,,,,,,,,,,,,,,,,,,,,,,,,,,
,,,,,166849,001,2025-03-19_19h23.08.912,Utility_discrimination_2024_2cat,2024.2.4,Win32,59.52380952,,,,,,,,2,"[0.5,0.5]","[0.707,0.707]",d,"[1.321568759106421,0.5]","[-0.321568759106421,0.5]",498.1392,499.6714,0,s,0,0.0097,,0.517692214,0.782790629,0.265098414,499.6737,499.674,0,188,188,188,1,0.821568759,0.821568759,shape_difference0,1,,TRUE,,intensity,0.1,0.05,0.7,0.3,0.82,20,400,1E-11,3.5,0.01,0.5,0.1,,,,,,,,,,,,,,,,,,,,,,,,,,,,,,,,,,,,,,,,,,,,,,,,,,,,,,,,,,,,,,,,,,,,,,,,,,,,,,,,,
,,,,,166849,001,2025-03-19_19h23.08.912,Utility_discrimination_2024_2cat,2024.2.4,Win32,59.52380952,,,,,,,,0,"[0.5,0.5]","[1,0]",d,"[0.9630967511266482,0.9630967511266482]","[0.036903248873351835,0.036903248873351835]",499.675,501.2387,0,d,0,0.0335,,0.708629691,1.076708343,0.368078652,501.2409,501.241,0,189,189,189,1,0.655016621,0.655016621,shape_difference2,1,,TRUE,,intensity,0.1,0.05,0.7,0.3,0.82,20,400,1E-11,3.5,0.01,0.5,0.1,,,,,,,,,,,,,,,,,,,,,,,,,,,,,,,,,,,,,,,,,,,,,,,,,,,,,,,,,,,,,,,,,,,,,,,,,,,,,,,,,
,,,,,166849,001,2025-03-19_19h23.08.912,Utility_discrimination_2024_2cat,2024.2.4,Win32,59.52380952,,,,,,,,4,"[0.5,0.5]","[0,1]",s,"[1.37212253691782,0.5]","[-0.37212253691781993,0.5]",501.2422,502.9978,1,d,1,0.2178,,1.042552964,1.370846566,0.328293602,503.0008,503.0012,0,190,190,190,1,0.872122537,0.872122537,shape_difference0,1,,TRUE,,intensity,0.1,0.05,0.7,0.3,0.82,20,400,1E-11,3.5,0.01,0.5,0.1,,,,,,,,,,,,,,,,,,,,,,,,,,,,,,,,,,,,,,,,,,,,,,,,,,,,,,,,,,,,,,,,,,,,,,,,,,,,,,,,,
,,,,,166849,001,2025-03-19_19h23.08.912,Utility_discrimination_2024_2cat,2024.2.4,Win32,59.52380952,,,,,,,,2,"[0.5,0.5]","[0.707,0.707]",d,"[0.5,1.6978676390132237]","[0.5,-0.6978676390132237]",503.0031,504.7005,1,d,1,0.1681,,0.556906007,0.836387862,0.279481855,504.7034,504.7037,0,191,191,191,1,1.197867639,1.197867639,shape_difference4,1,,TRUE,,intensity,0.1,0.05,0.7,0.3,0.82,20,400,1E-11,3.5,0.01,0.5,0.1,,,,,,,,,,,,,,,,,,,,,,,,,,,,,,,,,,,,,,,,,,,,,,,,,,,,,,,,,,,,,,,,,,,,,,,,,,,,,,,,,
