Consent.started,Consent.stopped,key_resp.keys,key_resp.rt,key_resp.duration,participant,session,date,expName,psychopyVersion,OS,frameRate,SetupExperiment.started,SetupExperiment.stopped,DiscrimInstructions_Pre.started,DiscrimInstructions_Pre.stopped,KeyboardResponse.keys,KeyboardResponse.rt,KeyboardResponse.duration,feature_index,feature_center,feature_vector,correct_answer,coord1,coord2,DiscriminationTrial.started,DiscriminationTrial.stopped,PreTest.response,Resp_s_or_d.keys,Resp_s_or_d.corr,Resp_s_or_d.rt,Resp_s_or_d.duration,PreTest.CI_lower,PreTest.CI_upper,PreTest.CI_width,CrashPretest_2.started,CrashPretest_2.stopped,PreTest.thisRepN,PreTest.thisTrialN,PreTest.thisN,PreTest.thisIndex,PreTest.ran,PreTest.intensity,intensity,PreTest.label,PreTest.nReps,PreTest.method,PreTest.autoLog,PreTest.seed,PreTest.varName,PreTest.startVal,PreTest.minVal,PreTest.maxVal,PreTest.startValSd,PreTest.pThreshold,PreTest.nTrials,PreTest.maxTrials,PreTest.stopInterval,PreTest.beta,PreTest.delta,PreTest.gamma,PreTest.grain,WelcomeToCategorizationTask.started,WelcomeToCategorizationTask.stopped,PressAnyKey3.keys,PressAnyKey3.rt,PressAnyKey3.duration,shape_coordinates,category_center,category_sigma,subspace_center,subspace_vector1,subspace_vector2,CategorizationTrial.started,CategorizationTrial.stopped,Respond_1or2.keys,Respond_1or2.rt,Respond_1or2.duration,Feedback.started,Feedback.stopped,xcoord,ycoord,shape_coord,numeric_response_minus1,correctness,truecategory,mixture_index,respAifA,respBifA,respAifB,respBifB,trial_number,D,muAx,muAy,muBx,muBy,sigmaA,sigmaB,priorA,priorB,TrialLoop.thisRepN,TrialLoop.thisTrialN,TrialLoop.thisN,TrialLoop.thisIndex,TrialLoop.ran,DiscriminationInstructions_Post.started,DiscriminationInstructions_Post.stopped,key_resp_2.keys,key_resp_2.rt,key_resp_2.duration,PostTest.response,PostTest.CI_lower,PostTest.CI_upper,PostTest.CI_width,CrashPosttest.started,CrashPosttest.stopped,PostTest.thisRepN,PostTest.thisTrialN,PostTest.thisN,PostTest.thisIndex,PostTest.ran,PostTest.intensity,PostTest.label,PostTest.nReps,PostTest.method,PostTest.autoLog,PostTest.seed,PostTest.varName,PostTest.startVal,PostTest.minVal,PostTest.maxVal,PostTest.startValSd,PostTest.pThreshold,PostTest.nTrials,PostTest.maxTrials,PostTest.stopInterval,PostTest.beta,PostTest.delta,PostTest.gamma,PostTest.grain,Thanks.started,Thanks.stopped
0.0035,4.0005,y,3.9728,,171876,001,2025-03-15_10h05.58.976,Utility_discrimination_2024_2cat,2024.2.4,Win32,59.17159763,,,,,,,,,,,,,,,,,,,,,,,,,,,,,,,,,,,,,,,,,,,,,,,,,,,,,,,,,,,,,,,,,,,,,,,,,,,,,,,,,,,,,,,,,,,,,,,,,,,,,,,,,,,,,,,,,,,,,,,,,,,,,,,,,,,
,,,,,171876,001,2025-03-15_10h05.58.976,Utility_discrimination_2024_2cat,2024.2.4,Win32,59.17159763,4.0007,4.0009,,,,,,,,,,,,,,,,,,,,,,,,,,,,,,,,,,,,,,,,,,,,,,,,,,,,,,,,,,,,,,,,,,,,,,,,,,,,,,,,,,,,,,,,,,,,,,,,,,,,,,,,,,,,,,,,,,,,,,,,,,,,,,,,,
,,,,,171876,001,2025-03-15_10h05.58.976,Utility_discrimination_2024_2cat,2024.2.4,Win32,59.17159763,,,4.0009,21.1832,space,17.1461,,,,,,,,,,,,,,,,,,,,,,,,,,,,,,,,,,,,,,,,,,,,,,,,,,,,,,,,,,,,,,,,,,,,,,,,,,,,,,,,,,,,,,,,,,,,,,,,,,,,,,,,,,,,,,,,,,,,,,,,,,,,,
,,,,,171876,001,2025-03-15_10h05.58.976,Utility_discrimination_2024_2cat,2024.2.4,Win32,59.17159763,,,,,,,,3,"[0.5,0.5]","[0.383,0.924]",,"[0.6185239449756466,0.5]","[0.3814760550243534,0.5]",21.2145,24.0502,1,d,1,1.3196,,-0.447967632,0.547967632,0.995935263,24.0533,24.0534,0,0,0,0,1,0.118523945,0.118523945,shape_difference0,1,,TRUE,,intensity,0.1,0.05,0.7,0.3,0.82,20,400,1E-11,3.5,0.01,0.5,0.1,,,,,,,,,,,,,,,,,,,,,,,,,,,,,,,,,,,,,,,,,,,,,,,,,,,,,,,,,,,,,,,,,,,,,,,,,,,,,,,,,
,,,,,171876,001,2025-03-15_10h05.58.976,Utility_discrimination_2024_2cat,2024.2.4,Win32,59.17159763,,,,,,,,4,"[0.5,0.5]","[0,1]",d,"[0.5453946709256726,0.6095161251574974]","[0.4546053290743273,0.3904838748425025]",24.0542,27.3831,1,s,1,1.7991,,-0.447967632,0.547967632,0.995935263,27.3848,27.3848,0,1,1,1,1,0.118523945,0.118523945,shape_difference3,1,,TRUE,,intensity,0.1,0.05,0.7,0.3,0.82,20,400,1E-11,3.5,0.01,0.5,0.1,,,,,,,,,,,,,,,,,,,,,,,,,,,,,,,,,,,,,,,,,,,,,,,,,,,,,,,,,,,,,,,,,,,,,,,,,,,,,,,,,
,,,,,171876,001,2025-03-15_10h05.58.976,Utility_discrimination_2024_2cat,2024.2.4,Win32,59.17159763,,,,,,,,1,"[0.5,0.5]","[0.924,0.383]",s,"[0.5,0.6185239449756466]","[0.5,0.3814760550243534]",27.3862,29.4498,1,s,1,0.5325,,-0.447967632,0.547967632,0.995935263,29.4511,29.4511,0,2,2,2,1,0.118523945,0.118523945,shape_difference4,1,,TRUE,,intensity,0.1,0.05,0.7,0.3,0.82,20,400,1E-11,3.5,0.01,0.5,0.1,,,,,,,,,,,,,,,,,,,,,,,,,,,,,,,,,,,,,,,,,,,,,,,,,,,,,,,,,,,,,,,,,,,,,,,,,,,,,,,,,
,,,,,171876,001,2025-03-15_10h05.58.976,Utility_discrimination_2024_2cat,2024.2.4,Win32,59.17159763,,,,,,,,2,"[0.5,0.5]","[0.707,0.707]",s,"[0.6095161251574974,0.5453946709256726]","[0.3904838748425025,0.4546053290743273]",29.4519,31.7332,1,d,1,0.7534,,-0.447967632,0.547967632,0.995935263,31.7371,31.7373,0,3,3,3,1,0.118523945,0.118523945,shape_difference1,1,,TRUE,,intensity,0.1,0.05,0.7,0.3,0.82,20,400,1E-11,3.5,0.01,0.5,0.1,,,,,,,,,,,,,,,,,,,,,,,,,,,,,,,,,,,,,,,,,,,,,,,,,,,,,,,,,,,,,,,,,,,,,,,,,,,,,,,,,
,,,,,171876,001,2025-03-15_10h05.58.976,Utility_discrimination_2024_2cat,2024.2.4,Win32,59.17159763,,,,,,,,3,"[0.5,0.5]","[0.383,0.924]",d,"[0.5837964290977822,0.5837964290977822]","[0.4162035709022178,0.4162035709022178]",31.7385,34.9829,0,s,0,1.7191,,-0.479157219,0.478510979,0.957668197,34.9854,34.9854,0,4,4,4,1,0.118523945,0.118523945,shape_difference2,1,,TRUE,,intensity,0.1,0.05,0.7,0.3,0.82,20,400,1E-11,3.5,0.01,0.5,0.1,,,,,,,,,,,,,,,,,,,,,,,,,,,,,,,,,,,,,,,,,,,,,,,,,,,,,,,,,,,,,,,,,,,,,,,,,,,,,,,,,
,,,,,171876,001,2025-03-15_10h05.58.976,Utility_discrimination_2024_2cat,2024.2.4,Win32,59.17159763,,,,,,,,2,"[0.5,0.5]","[0.707,0.707]",d,"[0.5141716077151222,0.5341894661325662]","[0.48582839228487784,0.46581053386743376]",34.9863,37.0996,1,s,1,0.5828,,0.008797352,0.664308158,0.655510806,37.1022,37.1023,0,5,5,5,1,0.037001587,0.037001587,shape_difference3,1,,TRUE,,intensity,0.1,0.05,0.7,0.3,0.82,20,400,1E-11,3.5,0.01,0.5,0.1,,,,,,,,,,,,,,,,,,,,,,,,,,,,,,,,,,,,,,,,,,,,,,,,,,,,,,,,,,,,,,,,,,,,,,,,,,,,,,,,,
,,,,,171876,001,2025-03-15_10h05.58.976,Utility_discrimination_2024_2cat,2024.2.4,Win32,59.17159763,,,,,,,,4,"[0.5,0.5]","[0,1]",s,"[0.7295760208722043,0.7295760208722043]","[0.2704239791277957,0.2704239791277957]",37.1031,39.3663,1,d,1,0.733,,-0.479157219,0.478510979,0.957668197,39.3694,39.3694,0,6,6,6,1,0.324718559,0.324718559,shape_difference2,1,,TRUE,,intensity,0.1,0.05,0.7,0.3,0.82,20,400,1E-11,3.5,0.01,0.5,0.1,,,,,,,,,,,,,,,,,,,,,,,,,,,,,,,,,,,,,,,,,,,,,,,,,,,,,,,,,,,,,,,,,,,,,,,,,,,,,,,,,
,,,,,171876,001,2025-03-15_10h05.58.976,Utility_discrimination_2024_2cat,2024.2.4,Win32,59.17159763,,,,,,,,0,"[0.5,0.5]","[1,0]",d,"[0.5,0.5370015867235566]","[0.5,0.4629984132764434]",39.3702,41.8999,1,s,1,1.0055,,-0.479157219,0.478510979,0.957668197,41.9023,41.9024,0,7,7,7,1,0.037001587,0.037001587,shape_difference4,1,,TRUE,,intensity,0.1,0.05,0.7,0.3,0.82,20,400,1E-11,3.5,0.01,0.5,0.1,,,,,,,,,,,,,,,,,,,,,,,,,,,,,,,,,,,,,,,,,,,,,,,,,,,,,,,,,,,,,,,,,,,,,,,,,,,,,,,,,
,,,,,171876,001,2025-03-15_10h05.58.976,Utility_discrimination_2024_2cat,2024.2.4,Win32,59.17159763,,,,,,,,1,"[0.5,0.5]","[0.924,0.383]",s,"[0.5370015867235566,0.5]","[0.4629984132764434,0.5]",41.9031,44.2161,0,s,0,0.7919,,-0.479157219,0.478510979,0.957668197,44.2187,44.2187,0,8,8,8,1,0.037001587,0.037001587,shape_difference0,1,,TRUE,,intensity,0.1,0.05,0.7,0.3,0.82,20,400,1E-11,3.5,0.01,0.5,0.1,,,,,,,,,,,,,,,,,,,,,,,,,,,,,,,,,,,,,,,,,,,,,,,,,,,,,,,,,,,,,,,,,,,,,,,,,,,,,,,,,
,,,,,171876,001,2025-03-15_10h05.58.976,Utility_discrimination_2024_2cat,2024.2.4,Win32,59.17159763,,,,,,,,2,"[0.5,0.5]","[0.707,0.707]",d,"[0.5341894661325662,0.5141716077151222]","[0.46581053386743376,0.48582839228487784]",44.2202,46.5833,1,s,1,0.8368,,-0.003741292,0.604569979,0.608311271,46.5861,46.5862,0,9,9,9,1,0.037001587,0.037001587,shape_difference1,1,,TRUE,,intensity,0.1,0.05,0.7,0.3,0.82,20,400,1E-11,3.5,0.01,0.5,0.1,,,,,,,,,,,,,,,,,,,,,,,,,,,,,,,,,,,,,,,,,,,,,,,,,,,,,,,,,,,,,,,,,,,,,,,,,,,,,,,,,
,,,,,171876,001,2025-03-15_10h05.58.976,Utility_discrimination_2024_2cat,2024.2.4,Win32,59.17159763,,,,,,,,3,"[0.5,0.5]","[0.383,0.924]",s,"[0.6942958639235853,0.6942958639235853]","[0.30570413607641467,0.30570413607641467]",46.5873,48.6496,1,d,1,0.5379,,-0.510435314,0.404710629,0.915145943,48.6518,48.6518,0,10,10,10,1,0.274817346,0.274817346,shape_difference2,1,,TRUE,,intensity,0.1,0.05,0.7,0.3,0.82,20,400,1E-11,3.5,0.01,0.5,0.1,,,,,,,,,,,,,,,,,,,,,,,,,,,,,,,,,,,,,,,,,,,,,,,,,,,,,,,,,,,,,,,,,,,,,,,,,,,,,,,,,
,,,,,171876,001,2025-03-15_10h05.58.976,Utility_discrimination_2024_2cat,2024.2.4,Win32,59.17159763,,,,,,,,1,"[0.5,0.5]","[0.924,0.383]",d,"[0.48572626012287257,0.46556413669330093]","[0.5142737398771274,0.5344358633066991]",48.6526,51.3832,1,d,1,1.2006,,-0.510435314,0.404710629,0.915145943,51.3857,51.3857,0,11,11,11,1,-0.03726825,-0.03726825,shape_difference3,1,,TRUE,,intensity,0.1,0.05,0.7,0.3,0.82,20,400,1E-11,3.5,0.01,0.5,0.1,,,,,,,,,,,,,,,,,,,,,,,,,,,,,,,,,,,,,,,,,,,,,,,,,,,,,,,,,,,,,,,,,,,,,,,,,,,,,,,,,
,,,,,171876,001,2025-03-15_10h05.58.976,Utility_discrimination_2024_2cat,2024.2.4,Win32,59.17159763,,,,,,,,4,"[0.5,0.5]","[0,1]",d,"[0.46556413669330093,0.48572626012287257]","[0.5344358633066991,0.5142737398771274]",51.3867,53.3832,1,s,1,0.473,,-0.510435314,0.404710629,0.915145943,53.3854,53.3854,0,12,12,12,1,-0.03726825,-0.03726825,shape_difference1,1,,TRUE,,intensity,0.1,0.05,0.7,0.3,0.82,20,400,1E-11,3.5,0.01,0.5,0.1,,,,,,,,,,,,,,,,,,,,,,,,,,,,,,,,,,,,,,,,,,,,,,,,,,,,,,,,,,,,,,,,,,,,,,,,,,,,,,,,,
,,,,,171876,001,2025-03-15_10h05.58.976,Utility_discrimination_2024_2cat,2024.2.4,Win32,59.17159763,,,,,,,,0,"[0.5,0.5]","[1,0]",s,"[0.5,0.4627317496680746]","[0.5,0.5372682503319254]",53.3862,56.0328,0,s,0,1.1281,,-0.090065158,0.591798206,0.681863364,56.0356,56.0356,0,13,13,13,1,-0.03726825,-0.03726825,shape_difference4,1,,TRUE,,intensity,0.1,0.05,0.7,0.3,0.82,20,400,1E-11,3.5,0.01,0.5,0.1,,,,,,,,,,,,,,,,,,,,,,,,,,,,,,,,,,,,,,,,,,,,,,,,,,,,,,,,,,,,,,,,,,,,,,,,,,,,,,,,,
,,,,,171876,001,2025-03-15_10h05.58.976,Utility_discrimination_2024_2cat,2024.2.4,Win32,59.17159763,,,,,,,,4,"[0.5,0.5]","[0,1]",d,"[0.7256621725789216,0.5]","[0.2743378274210784,0.5]",56.0365,59.1334,0,d,0,1.566,,-0.118157943,0.566731222,0.684889165,59.1365,59.1365,0,14,14,14,1,0.225662173,0.225662173,shape_difference0,1,,TRUE,,intensity,0.1,0.05,0.7,0.3,0.82,20,400,1E-11,3.5,0.01,0.5,0.1,,,,,,,,,,,,,,,,,,,,,,,,,,,,,,,,,,,,,,,,,,,,,,,,,,,,,,,,,,,,,,,,,,,,,,,,,,,,,,,,,
,,,,,171876,001,2025-03-15_10h05.58.976,Utility_discrimination_2024_2cat,2024.2.4,Win32,59.17159763,,,,,,,,0,"[0.5,0.5]","[1,0]",s,"[0.5,0.6844698465378827]","[0.5,0.3155301534621173]",59.1374,61.4331,1,d,1,0.7714,,0.100128431,0.691751185,0.591622754,61.4359,61.4359,0,15,15,15,1,0.184469847,0.184469847,shape_difference4,1,,TRUE,,intensity,0.1,0.05,0.7,0.3,0.82,20,400,1E-11,3.5,0.01,0.5,0.1,,,,,,,,,,,,,,,,,,,,,,,,,,,,,,,,,,,,,,,,,,,,,,,,,,,,,,,,,,,,,,,,,,,,,,,,,,,,,,,,,
,,,,,171876,001,2025-03-15_10h05.58.976,Utility_discrimination_2024_2cat,2024.2.4,Win32,59.17159763,,,,,,,,3,"[0.5,0.5]","[0.383,0.924]",d,"[0.8752162580187303,0.5]","[0.12478374198126974,0.5]",61.4366,64.133,1,d,1,1.1734,,-0.540713527,0.322166073,0.862879599,64.1352,64.1353,0,16,16,16,1,0.375216258,0.375216258,shape_difference0,1,,TRUE,,intensity,0.1,0.05,0.7,0.3,0.82,20,400,1E-11,3.5,0.01,0.5,0.1,,,,,,,,,,,,,,,,,,,,,,,,,,,,,,,,,,,,,,,,,,,,,,,,,,,,,,,,,,,,,,,,,,,,,,,,,,,,,,,,,
,,,,,171876,001,2025-03-15_10h05.58.976,Utility_discrimination_2024_2cat,2024.2.4,Win32,59.17159763,,,,,,,,1,"[0.5,0.5]","[0.924,0.383]",d,"[0.4630011812750919,0.410739142292911]","[0.5369988187249081,0.589260857707089]",64.1365,66.4327,1,d,1,0.7673,,-0.540713527,0.322166073,0.862879599,66.4352,66.4352,0,17,17,17,1,-0.09660266,-0.09660266,shape_difference3,1,,TRUE,,intensity,0.1,0.05,0.7,0.3,0.82,20,400,1E-11,3.5,0.01,0.5,0.1,,,,,,,,,,,,,,,,,,,,,,,,,,,,,,,,,,,,,,,,,,,,,,,,,,,,,,,,,,,,,,,,,,,,,,,,,,,,,,,,,
,,,,,171876,001,2025-03-15_10h05.58.976,Utility_discrimination_2024_2cat,2024.2.4,Win32,59.17159763,,,,,,,,2,"[0.5,0.5]","[0.707,0.707]",d,"[0.410739142292911,0.4630011812750919]","[0.589260857707089,0.5369988187249081]",66.4358,68.5665,1,d,1,0.6,,-0.026700702,0.552121039,0.578821741,68.5682,68.5683,0,18,18,18,1,-0.09660266,-0.09660266,shape_difference1,1,,TRUE,,intensity,0.1,0.05,0.7,0.3,0.82,20,400,1E-11,3.5,0.01,0.5,0.1,,,,,,,,,,,,,,,,,,,,,,,,,,,,,,,,,,,,,,,,,,,,,,,,,,,,,,,,,,,,,,,,,,,,,,,,,,,,,,,,,
,,,,,171876,001,2025-03-15_10h05.58.976,Utility_discrimination_2024_2cat,2024.2.4,Win32,59.17159763,,,,,,,,3,"[0.5,0.5]","[0.383,0.924]",d,"[0.6669698042543574,0.6669698042543574]","[0.33303019574564263,0.33303019574564263]",68.569,70.6829,1,d,1,0.5875,,-0.569624043,0.240042019,0.809666061,70.686,70.686,0,19,19,19,1,0.236166626,0.236166626,shape_difference2,1,,TRUE,,intensity,0.1,0.05,0.7,0.3,0.82,20,400,1E-11,3.5,0.01,0.5,0.1,,,,,,,,,,,,,,,,,,,,,,,,,,,,,,,,,,,,,,,,,,,,,,,,,,,,,,,,,,,,,,,,,,,,,,,,,,,,,,,,,
,,,,,171876,001,2025-03-15_10h05.58.976,Utility_discrimination_2024_2cat,2024.2.4,Win32,59.17159763,,,,,,,,1,"[0.5,0.5]","[0.924,0.383]",d,"[0.443484497975294,0.36365450686467793]","[0.556515502024706,0.6363454931353221]",70.6869,73.1334,1,s,1,0.919,,-0.569624043,0.240042019,0.809666061,73.1351,73.1354,0,20,20,20,1,-0.147560058,-0.147560058,shape_difference3,1,,TRUE,,intensity,0.1,0.05,0.7,0.3,0.82,20,400,1E-11,3.5,0.01,0.5,0.1,,,,,,,,,,,,,,,,,,,,,,,,,,,,,,,,,,,,,,,,,,,,,,,,,,,,,,,,,,,,,,,,,,,,,,,,,,,,,,,,,
,,,,,171876,001,2025-03-15_10h05.58.976,Utility_discrimination_2024_2cat,2024.2.4,Win32,59.17159763,,,,,,,,0,"[0.5,0.5]","[1,0]",s,"[0.36365450686467793,0.443484497975294]","[0.6363454931353221,0.556515502024706]",73.136,75.3331,1,s,1,0.6664,,0.07990875,0.64259131,0.56268256,75.3356,75.3356,0,21,21,21,1,-0.147560058,-0.147560058,shape_difference1,1,,TRUE,,intensity,0.1,0.05,0.7,0.3,0.82,20,400,1E-11,3.5,0.01,0.5,0.1,,,,,,,,,,,,,,,,,,,,,,,,,,,,,,,,,,,,,,,,,,,,,,,,,,,,,,,,,,,,,,,,,,,,,,,,,,,,,,,,,
,,,,,171876,001,2025-03-15_10h05.58.976,Utility_discrimination_2024_2cat,2024.2.4,Win32,59.17159763,,,,,,,,4,"[0.5,0.5]","[0,1]",s,"[0.8353900543681605,0.5]","[0.16460994563183956,0.5]",75.3364,77.1997,1,d,1,0.344,,-0.138426098,0.496127593,0.634553691,77.2015,77.2015,0,22,22,22,1,0.335390054,0.335390054,shape_difference0,1,,TRUE,,intensity,0.1,0.05,0.7,0.3,0.82,20,400,1E-11,3.5,0.01,0.5,0.1,,,,,,,,,,,,,,,,,,,,,,,,,,,,,,,,,,,,,,,,,,,,,,,,,,,,,,,,,,,,,,,,,,,,,,,,,,,,,,,,,
,,,,,171876,001,2025-03-15_10h05.58.976,Utility_discrimination_2024_2cat,2024.2.4,Win32,59.17159763,,,,,,,,2,"[0.5,0.5]","[0.707,0.707]",d,"[0.5,0.6357080695737778]","[0.5,0.36429193042622215]",77.2021,79.416,1,d,1,0.6866,,-0.050981617,0.494068035,0.545049652,79.4176,79.4177,0,23,23,23,1,0.13570807,0.13570807,shape_difference4,1,,TRUE,,intensity,0.1,0.05,0.7,0.3,0.82,20,400,1E-11,3.5,0.01,0.5,0.1,,,,,,,,,,,,,,,,,,,,,,,,,,,,,,,,,,,,,,,,,,,,,,,,,,,,,,,,,,,,,,,,,,,,,,,,,,,,,,,,,
,,,,,171876,001,2025-03-15_10h05.58.976,Utility_discrimination_2024_2cat,2024.2.4,Win32,59.17159763,,,,,,,,2,"[0.5,0.5]","[0.707,0.707]",d,"[0.6390775312535046,0.6390775312535046]","[0.3609224687464953,0.3609224687464953]",79.4184,81.5332,1,d,1,0.5821,,-0.067097964,0.445046575,0.512144539,81.5349,81.5349,0,24,24,24,1,0.196715037,0.196715037,shape_difference2,1,,TRUE,,intensity,0.1,0.05,0.7,0.3,0.82,20,400,1E-11,3.5,0.01,0.5,0.1,,,,,,,,,,,,,,,,,,,,,,,,,,,,,,,,,,,,,,,,,,,,,,,,,,,,,,,,,,,,,,,,,,,,,,,,,,,,,,,,,
,,,,,171876,001,2025-03-15_10h05.58.976,Utility_discrimination_2024_2cat,2024.2.4,Win32,59.17159763,,,,,,,,4,"[0.5,0.5]","[0,1]",d,"[0.6202573175539916,0.6202573175539916]","[0.37974268244600834,0.37974268244600834]",81.536,83.6496,1,d,1,0.5841,,-0.158612068,0.441238695,0.599850764,83.6523,83.6524,0,25,25,25,1,0.170095216,0.170095216,shape_difference2,1,,TRUE,,intensity,0.1,0.05,0.7,0.3,0.82,20,400,1E-11,3.5,0.01,0.5,0.1,,,,,,,,,,,,,,,,,,,,,,,,,,,,,,,,,,,,,,,,,,,,,,,,,,,,,,,,,,,,,,,,,,,,,,,,,,,,,,,,,
,,,,,171876,001,2025-03-15_10h05.58.976,Utility_discrimination_2024_2cat,2024.2.4,Win32,59.17159763,,,,,,,,3,"[0.5,0.5]","[0.383,0.924]",d,"[0.5,0.5906809440250769]","[0.5,0.4093190559749232]",83.6534,85.6997,1,s,1,0.5159,,-0.588261172,0.151848651,0.740109824,85.7017,85.7017,0,26,26,26,1,0.090680944,0.090680944,shape_difference4,1,,TRUE,,intensity,0.1,0.05,0.7,0.3,0.82,20,400,1E-11,3.5,0.01,0.5,0.1,,,,,,,,,,,,,,,,,,,,,,,,,,,,,,,,,,,,,,,,,,,,,,,,,,,,,,,,,,,,,,,,,,,,,,,,,,,,,,,,,
,,,,,171876,001,2025-03-15_10h05.58.976,Utility_discrimination_2024_2cat,2024.2.4,Win32,59.17159763,,,,,,,,1,"[0.5,0.5]","[0.924,0.383]",s,"[0.4268433083818418,0.32350709385070975]","[0.5731566916181582,0.6764929061492903]",85.7028,87.7331,1,d,1,0.5017,,-0.588261172,0.151848651,0.740109824,87.7351,87.7351,0,27,27,27,1,-0.191009639,-0.191009639,shape_difference3,1,,TRUE,,intensity,0.1,0.05,0.7,0.3,0.82,20,400,1E-11,3.5,0.01,0.5,0.1,,,,,,,,,,,,,,,,,,,,,,,,,,,,,,,,,,,,,,,,,,,,,,,,,,,,,,,,,,,,,,,,,,,,,,,,,,,,,,,,,
,,,,,171876,001,2025-03-15_10h05.58.976,Utility_discrimination_2024_2cat,2024.2.4,Win32,59.17159763,,,,,,,,0,"[0.5,0.5]","[1,0]",d,"[0.32350709385070975,0.4268433083818418]","[0.6764929061492903,0.5731566916181582]",87.7361,89.8661,1,s,1,0.6,,0.058226883,0.589904361,0.531677478,89.8676,89.8676,0,28,28,28,1,-0.191009639,-0.191009639,shape_difference1,1,,TRUE,,intensity,0.1,0.05,0.7,0.3,0.82,20,400,1E-11,3.5,0.01,0.5,0.1,,,,,,,,,,,,,,,,,,,,,,,,,,,,,,,,,,,,,,,,,,,,,,,,,,,,,,,,,,,,,,,,,,,,,,,,,,,,,,,,,
,,,,,171876,001,2025-03-15_10h05.58.976,Utility_discrimination_2024_2cat,2024.2.4,Win32,59.17159763,,,,,,,,0,"[0.5,0.5]","[1,0]",s,"[0.7950493432540242,0.5]","[0.2049506567459758,0.5]",89.8685,92.0161,1,s,1,0.6191,,0.043850706,0.54273529,0.498884584,92.0189,92.0189,0,29,29,29,1,0.295049343,0.295049343,shape_difference0,1,,TRUE,,intensity,0.1,0.05,0.7,0.3,0.82,20,400,1E-11,3.5,0.01,0.5,0.1,,,,,,,,,,,,,,,,,,,,,,,,,,,,,,,,,,,,,,,,,,,,,,,,,,,,,,,,,,,,,,,,,,,,,,,,,,,,,,,,,
,,,,,171876,001,2025-03-15_10h05.58.976,Utility_discrimination_2024_2cat,2024.2.4,Win32,59.17159763,,,,,,,,3,"[0.5,0.5]","[0.383,0.924]",s,"[0.767600062085235,0.5]","[0.23239993791476504,0.5]",92.0197,94.116,1,s,1,0.5777,,-0.616056949,0.077962516,0.694019466,94.1187,94.1187,0,30,30,30,1,0.267600062,0.267600062,shape_difference0,1,,TRUE,,intensity,0.1,0.05,0.7,0.3,0.82,20,400,1E-11,3.5,0.01,0.5,0.1,,,,,,,,,,,,,,,,,,,,,,,,,,,,,,,,,,,,,,,,,,,,,,,,,,,,,,,,,,,,,,,,,,,,,,,,,,,,,,,,,
,,,,,171876,001,2025-03-15_10h05.58.976,Utility_discrimination_2024_2cat,2024.2.4,Win32,59.17159763,,,,,,,,4,"[0.5,0.5]","[0,1]",s,"[0.410526510554551,0.28414228655980445]","[0.589473489445449,0.7158577134401956]",94.1196,96.0996,0,d,0,0.4566,,-0.171834932,0.374013296,0.545848228,96.102,96.1021,0,31,31,31,1,-0.233612244,-0.233612244,shape_difference3,1,,TRUE,,intensity,0.1,0.05,0.7,0.3,0.82,20,400,1E-11,3.5,0.01,0.5,0.1,,,,,,,,,,,,,,,,,,,,,,,,,,,,,,,,,,,,,,,,,,,,,,,,,,,,,,,,,,,,,,,,,,,,,,,,,,,,,,,,,
,,,,,171876,001,2025-03-15_10h05.58.976,Utility_discrimination_2024_2cat,2024.2.4,Win32,59.17159763,,,,,,,,1,"[0.5,0.5]","[0.924,0.383]",s,"[0.5,0.5612094639638144]","[0.5,0.43879053603618556]",96.1033,98.1827,1,d,1,0.5605,,-0.616056949,0.077962516,0.694019466,98.1852,98.1853,0,32,32,32,1,0.061209464,0.061209464,shape_difference4,1,,TRUE,,intensity,0.1,0.05,0.7,0.3,0.82,20,400,1E-11,3.5,0.01,0.5,0.1,,,,,,,,,,,,,,,,,,,,,,,,,,,,,,,,,,,,,,,,,,,,,,,,,,,,,,,,,,,,,,,,,,,,,,,,,,,,,,,,,
,,,,,171876,001,2025-03-15_10h05.58.976,Utility_discrimination_2024_2cat,2024.2.4,Win32,59.17159763,,,,,,,,2,"[0.5,0.5]","[0.707,0.707]",d,"[0.28414228655980445,0.410526510554551]","[0.7158577134401956,0.589473489445449]",98.1862,100.5827,1,s,1,0.868,,-0.078138993,0.387434732,0.465573725,100.5843,100.5843,0,33,33,33,1,-0.233612244,-0.233612244,shape_difference1,1,,TRUE,,intensity,0.1,0.05,0.7,0.3,0.82,20,400,1E-11,3.5,0.01,0.5,0.1,,,,,,,,,,,,,,,,,,,,,,,,,,,,,,,,,,,,,,,,,,,,,,,,,,,,,,,,,,,,,,,,,,,,,,,,,,,,,,,,,
,,,,,171876,001,2025-03-15_10h05.58.976,Utility_discrimination_2024_2cat,2024.2.4,Win32,59.17159763,,,,,,,,1,"[0.5,0.5]","[0.924,0.383]",s,"[0.6042140812410881,0.6042140812410881]","[0.3957859187589119,0.3957859187589119]",100.5855,103.0494,1,s,1,0.9435,,-0.642600146,0.003859163,0.64645931,103.0535,103.0535,0,34,34,34,1,0.147403227,0.147403227,shape_difference2,1,,TRUE,,intensity,0.1,0.05,0.7,0.3,0.82,20,400,1E-11,3.5,0.01,0.5,0.1,,,,,,,,,,,,,,,,,,,,,,,,,,,,,,,,,,,,,,,,,,,,,,,,,,,,,,,,,,,,,,,,,,,,,,,,,,,,,,,,,
,,,,,171876,001,2025-03-15_10h05.58.976,Utility_discrimination_2024_2cat,2024.2.4,Win32,59.17159763,,,,,,,,0,"[0.5,0.5]","[1,0]",s,"[0.2508649069187566,0.3967329646643764]","[0.7491350930812434,0.6032670353356236]",103.0549,105.3495,1,s,1,0.7724,,0.034012922,0.48723303,0.453220108,105.3513,105.3514,0,35,35,35,1,-0.269626724,-0.269626724,shape_difference1,1,,TRUE,,intensity,0.1,0.05,0.7,0.3,0.82,20,400,1E-11,3.5,0.01,0.5,0.1,,,,,,,,,,,,,,,,,,,,,,,,,,,,,,,,,,,,,,,,,,,,,,,,,,,,,,,,,,,,,,,,,,,,,,,,,,,,,,,,,
,,,,,171876,001,2025-03-15_10h05.58.976,Utility_discrimination_2024_2cat,2024.2.4,Win32,59.17159763,,,,,,,,4,"[0.5,0.5]","[0,1]",s,"[0.7441258723170335,0.5]","[0.25587412768296647,0.5]",105.3528,107.4161,1,d,1,0.5382,,-0.180803695,0.29910644,0.479910135,107.4185,107.4185,0,36,36,36,1,0.244125872,0.244125872,shape_difference0,1,,TRUE,,intensity,0.1,0.05,0.7,0.3,0.82,20,400,1E-11,3.5,0.01,0.5,0.1,,,,,,,,,,,,,,,,,,,,,,,,,,,,,,,,,,,,,,,,,,,,,,,,,,,,,,,,,,,,,,,,,,,,,,,,,,,,,,,,,
,,,,,171876,001,2025-03-15_10h05.58.976,Utility_discrimination_2024_2cat,2024.2.4,Win32,59.17159763,,,,,,,,2,"[0.5,0.5]","[0.707,0.707]",d,"[0.5,0.5360367602067313]","[0.5,0.46396323979326864]",107.4191,109.6495,1,d,1,0.7001,,-0.090658615,0.352456116,0.443114731,109.6514,109.6514,0,37,37,37,1,0.03603676,0.03603676,shape_difference4,1,,TRUE,,intensity,0.1,0.05,0.7,0.3,0.82,20,400,1E-11,3.5,0.01,0.5,0.1,,,,,,,,,,,,,,,,,,,,,,,,,,,,,,,,,,,,,,,,,,,,,,,,,,,,,,,,,,,,,,,,,,,,,,,,,,,,,,,,,
,,,,,171876,001,2025-03-15_10h05.58.976,Utility_discrimination_2024_2cat,2024.2.4,Win32,59.17159763,,,,,,,,3,"[0.5,0.5]","[0.383,0.924]",d,"[0.5879166828752915,0.5879166828752915]","[0.4120833171247084,0.4120833171247084]",109.6523,111.8494,1,d,1,0.6742,,-0.328175385,0.257447381,0.585622767,111.8517,111.8517,0,38,38,38,1,0.124351744,0.124351744,shape_difference2,1,,TRUE,,intensity,0.1,0.05,0.7,0.3,0.82,20,400,1E-11,3.5,0.01,0.5,0.1,,,,,,,,,,,,,,,,,,,,,,,,,,,,,,,,,,,,,,,,,,,,,,,,,,,,,,,,,,,,,,,,,,,,,,,,,,,,,,,,,
,,,,,171876,001,2025-03-15_10h05.58.976,Utility_discrimination_2024_2cat,2024.2.4,Win32,59.17159763,,,,,,,,0,"[0.5,0.5]","[1,0]",d,"[0.4614575057374294,0.40701497467724485]","[0.5385424942625706,0.5929850253227551]",111.8527,114.133,1,s,1,0.7494,,0.023404223,0.452615447,0.429211224,114.1355,114.1356,0,39,39,39,1,-0.100633144,-0.100633144,shape_difference3,1,,TRUE,,intensity,0.1,0.05,0.7,0.3,0.82,20,400,1E-11,3.5,0.01,0.5,0.1,,,,,,,,,,,,,,,,,,,,,,,,,,,,,,,,,,,,,,,,,,,,,,,,,,,,,,,,,,,,,,,,,,,,,,,,,,,,,,,,,
,,,,,171876,001,2025-03-15_10h05.58.976,Utility_discrimination_2024_2cat,2024.2.4,Win32,59.17159763,,,,,,,,3,"[0.5,0.5]","[0.383,0.924]",s,"[0.7203323939789144,0.5]","[0.27966760602108565,0.5]",114.1366,116.2161,1,s,1,0.5516,,-0.347011006,0.180052226,0.527063232,116.2187,116.2188,0,40,40,40,1,0.220332394,0.220332394,shape_difference0,1,,TRUE,,intensity,0.1,0.05,0.7,0.3,0.82,20,400,1E-11,3.5,0.01,0.5,0.1,,,,,,,,,,,,,,,,,,,,,,,,,,,,,,,,,,,,,,,,,,,,,,,,,,,,,,,,,,,,,,,,,,,,,,,,,,,,,,,,,
,,,,,171876,001,2025-03-15_10h05.58.976,Utility_discrimination_2024_2cat,2024.2.4,Win32,59.17159763,,,,,,,,2,"[0.5,0.5]","[0.707,0.707]",s,"[0.45129959896010924,0.38250869305258733]","[0.5487004010398907,0.6174913069474126]",116.2196,118.2662,1,d,1,0.5144,,-0.099810016,0.302017827,0.401827843,118.2677,118.2677,0,41,41,41,1,-0.127155094,-0.127155094,shape_difference3,1,,TRUE,,intensity,0.1,0.05,0.7,0.3,0.82,20,400,1E-11,3.5,0.01,0.5,0.1,,,,,,,,,,,,,,,,,,,,,,,,,,,,,,,,,,,,,,,,,,,,,,,,,,,,,,,,,,,,,,,,,,,,,,,,,,,,,,,,,
,,,,,171876,001,2025-03-15_10h05.58.976,Utility_discrimination_2024_2cat,2024.2.4,Win32,59.17159763,,,,,,,,4,"[0.5,0.5]","[0,1]",d,"[0.5699227452146015,0.5699227452146015]","[0.43007725478539854,0.43007725478539854]",118.2685,120.5496,1,d,1,0.7547,,-0.191020122,0.258190175,0.449210298,120.5512,120.5513,0,42,42,42,1,0.09890063,0.09890063,shape_difference2,1,,TRUE,,intensity,0.1,0.05,0.7,0.3,0.82,20,400,1E-11,3.5,0.01,0.5,0.1,,,,,,,,,,,,,,,,,,,,,,,,,,,,,,,,,,,,,,,,,,,,,,,,,,,,,,,,,,,,,,,,,,,,,,,,,,,,,,,,,
,,,,,171876,001,2025-03-15_10h05.58.976,Utility_discrimination_2024_2cat,2024.2.4,Win32,59.17159763,,,,,,,,1,"[0.5,0.5]","[0.924,0.383]",d,"[0.5,0.5097092039882554]","[0.5,0.4902907960117446]",120.5523,123.8331,1,s,1,1.7488,,-0.67113939,-0.036541485,0.634597904,123.8357,123.8358,0,43,43,43,1,0.009709204,0.009709204,shape_difference4,1,,TRUE,,intensity,0.1,0.05,0.7,0.3,0.82,20,400,1E-11,3.5,0.01,0.5,0.1,,,,,,,,,,,,,,,,,,,,,,,,,,,,,,,,,,,,,,,,,,,,,,,,,,,,,,,,,,,,,,,,,,,,,,,,,,,,,,,,,
,,,,,171876,001,2025-03-15_10h05.58.976,Utility_discrimination_2024_2cat,2024.2.4,Win32,59.17159763,,,,,,,,0,"[0.5,0.5]","[1,0]",s,"[0.21340159250515794,0.3812043397505146]","[0.786598407494842,0.6187956602494854]",123.8365,125.9495,1,d,1,0.5887,,0.01583844,0.402784744,0.386946304,125.952,125.9521,0,44,44,44,1,-0.310171437,-0.310171437,shape_difference1,1,,TRUE,,intensity,0.1,0.05,0.7,0.3,0.82,20,400,1E-11,3.5,0.01,0.5,0.1,,,,,,,,,,,,,,,,,,,,,,,,,,,,,,,,,,,,,,,,,,,,,,,,,,,,,,,,,,,,,,,,,,,,,,,,,,,,,,,,,
,,,,,171876,001,2025-03-15_10h05.58.976,Utility_discrimination_2024_2cat,2024.2.4,Win32,59.17159763,,,,,,,,2,"[0.5,0.5]","[0.707,0.707]",d,"[0.6960294868845281,0.5]","[0.30397051311547185,0.5]",125.9527,128.283,1,d,1,0.7979,,-0.147620511,0.278358432,0.425978943,128.2852,128.2852,0,45,45,45,1,0.196029487,0.196029487,shape_difference0,1,,TRUE,,intensity,0.1,0.05,0.7,0.3,0.82,20,400,1E-11,3.5,0.01,0.5,0.1,,,,,,,,,,,,,,,,,,,,,,,,,,,,,,,,,,,,,,,,,,,,,,,,,,,,,,,,,,,,,,,,,,,,,,,,,,,,,,,,,
,,,,,171876,001,2025-03-15_10h05.58.976,Utility_discrimination_2024_2cat,2024.2.4,Win32,59.17159763,,,,,,,,1,"[0.5,0.5]","[0.924,0.383]",d,"[0.557668204323247,0.557668204323247]","[0.44233179567675296,0.44233179567675296]",128.2869,130.5492,1,s,1,0.7416,,-0.689998991,-0.095065821,0.594933171,130.5511,130.5511,0,46,46,46,1,0.081567474,0.081567474,shape_difference2,1,,TRUE,,intensity,0.1,0.05,0.7,0.3,0.82,20,400,1E-11,3.5,0.01,0.5,0.1,,,,,,,,,,,,,,,,,,,,,,,,,,,,,,,,,,,,,,,,,,,,,,,,,,,,,,,,,,,,,,,,,,,,,,,,,,,,,,,,,
,,,,,171876,001,2025-03-15_10h05.58.976,Utility_discrimination_2024_2cat,2024.2.4,Win32,59.17159763,,,,,,,,3,"[0.5,0.5]","[0.383,0.924]",s,"[0.18173126270184758,0.3680769194965451]","[0.8182687372981524,0.6319230805034549]",130.552,132.9997,1,s,1,0.9178,,-0.359805312,0.101294949,0.461100261,133.002,133.002,0,47,47,47,1,-0.344446685,-0.344446685,shape_difference1,1,,TRUE,,intensity,0.1,0.05,0.7,0.3,0.82,20,400,1E-11,3.5,0.01,0.5,0.1,,,,,,,,,,,,,,,,,,,,,,,,,,,,,,,,,,,,,,,,,,,,,,,,,,,,,,,,,,,,,,,,,,,,,,,,,,,,,,,,,
,,,,,171876,001,2025-03-15_10h05.58.976,Utility_discrimination_2024_2cat,2024.2.4,Win32,59.17159763,,,,,,,,4,"[0.5,0.5]","[0,1]",s,"[0.4428033595332055,0.3620112381427726]","[0.5571966404667945,0.6379887618572274]",133.0032,134.9493,1,d,1,0.4226,,-0.198524782,0.199656851,0.398181634,134.9518,134.9518,0,48,48,48,1,-0.149338487,-0.149338487,shape_difference3,1,,TRUE,,intensity,0.1,0.05,0.7,0.3,0.82,20,400,1E-11,3.5,0.01,0.5,0.1,,,,,,,,,,,,,,,,,,,,,,,,,,,,,,,,,,,,,,,,,,,,,,,,,,,,,,,,,,,,,,,,,,,,,,,,,,,,,,,,,
,,,,,171876,001,2025-03-15_10h05.58.976,Utility_discrimination_2024_2cat,2024.2.4,Win32,59.17159763,,,,,,,,0,"[0.5,0.5]","[1,0]",d,"[0.5,0.4881941440269159]","[0.5,0.511805855973084]",134.9525,137.2829,1,s,1,0.7989,,0.010274572,0.377888212,0.367613641,137.2842,137.2842,0,49,49,49,1,-0.011805856,-0.011805856,shape_difference4,1,,TRUE,,intensity,0.1,0.05,0.7,0.3,0.82,20,400,1E-11,3.5,0.01,0.5,0.1,,,,,,,,,,,,,,,,,,,,,,,,,,,,,,,,,,,,,,,,,,,,,,,,,,,,,,,,,,,,,,,,,,,,,,,,,,,,,,,,,
,,,,,171876,001,2025-03-15_10h05.58.976,Utility_discrimination_2024_2cat,2024.2.4,Win32,59.17159763,,,,,,,,1,"[0.5,0.5]","[0.924,0.383]",s,"[0.6803960839565975,0.5]","[0.31960391604340255,0.5]",137.285,139.6662,1,s,1,0.8498,,-0.706498112,-0.130139369,0.576358744,139.6677,139.6678,0,50,50,50,1,0.180396084,0.180396084,shape_difference0,1,,TRUE,,intensity,0.1,0.05,0.7,0.3,0.82,20,400,1E-11,3.5,0.01,0.5,0.1,,,,,,,,,,,,,,,,,,,,,,,,,,,,,,,,,,,,,,,,,,,,,,,,,,,,,,,,,,,,,,,,,,,,,,,,,,,,,,,,,
,,,,,171876,001,2025-03-15_10h05.58.976,Utility_discrimination_2024_2cat,2024.2.4,Win32,59.17159763,,,,,,,,4,"[0.5,0.5]","[0,1]",s,"[0.15342461478677888,0.3563437526659484]","[0.8465753852132212,0.6436562473340516]",139.6687,141.5496,1,d,1,0.3514,,-0.231921614,0.171779101,0.403700716,141.5524,141.5524,0,51,51,51,1,-0.375081586,-0.375081586,shape_difference1,1,,TRUE,,intensity,0.1,0.05,0.7,0.3,0.82,20,400,1E-11,3.5,0.01,0.5,0.1,,,,,,,,,,,,,,,,,,,,,,,,,,,,,,,,,,,,,,,,,,,,,,,,,,,,,,,,,,,,,,,,,,,,,,,,,,,,,,,,,
,,,,,171876,001,2025-03-15_10h05.58.976,Utility_discrimination_2024_2cat,2024.2.4,Win32,59.17159763,,,,,,,,2,"[0.5,0.5]","[0.707,0.707]",d,"[0.5,0.4728300980348365]","[0.5,0.5271699019651634]",141.5533,143.966,1,s,1,0.8874,,-0.182423137,0.248987787,0.431410924,143.968,143.968,0,52,52,52,1,-0.027169902,-0.027169902,shape_difference4,1,,TRUE,,intensity,0.1,0.05,0.7,0.3,0.82,20,400,1E-11,3.5,0.01,0.5,0.1,,,,,,,,,,,,,,,,,,,,,,,,,,,,,,,,,,,,,,,,,,,,,,,,,,,,,,,,,,,,,,,,,,,,,,,,,,,,,,,,,
,,,,,171876,001,2025-03-15_10h05.58.976,Utility_discrimination_2024_2cat,2024.2.4,Win32,59.17159763,,,,,,,,3,"[0.5,0.5]","[0.383,0.924]",s,"[0.5472174466097881,0.5472174466097881]","[0.4527825533902119,0.4527825533902119]",143.9696,146.2993,0,s,0,0.8072,,-0.368797056,0.052987012,0.421784068,146.3012,146.3012,0,53,53,53,1,0.066785639,0.066785639,shape_difference2,1,,TRUE,,intensity,0.1,0.05,0.7,0.3,0.82,20,400,1E-11,3.5,0.01,0.5,0.1,,,,,,,,,,,,,,,,,,,,,,,,,,,,,,,,,,,,,,,,,,,,,,,,,,,,,,,,,,,,,,,,,,,,,,,,,,,,,,,,,
,,,,,171876,001,2025-03-15_10h05.58.976,Utility_discrimination_2024_2cat,2024.2.4,Win32,59.17159763,,,,,,,,4,"[0.5,0.5]","[0,1]",d,"[0.4352627262655039,0.34381921428022355]","[0.5647372737344961,0.6561807857197764]",146.302,148.3494,1,s,1,0.5277,,-0.263124414,0.134833769,0.397958183,148.3508,148.3508,0,54,54,54,1,-0.169026824,-0.169026824,shape_difference3,1,,TRUE,,intensity,0.1,0.05,0.7,0.3,0.82,20,400,1E-11,3.5,0.01,0.5,0.1,,,,,,,,,,,,,,,,,,,,,,,,,,,,,,,,,,,,,,,,,,,,,,,,,,,,,,,,,,,,,,,,,,,,,,,,,,,,,,,,,
,,,,,171876,001,2025-03-15_10h05.58.976,Utility_discrimination_2024_2cat,2024.2.4,Win32,59.17159763,,,,,,,,2,"[0.5,0.5]","[0.707,0.707]",s,"[0.5,0.4595448009095875]","[0.5,0.5404551990904125]",148.3517,150.4829,1,s,1,0.6094,,-0.030834103,0.325906026,0.356740129,150.4858,150.4858,0,55,55,55,1,-0.040455199,-0.040455199,shape_difference4,1,,TRUE,,intensity,0.1,0.05,0.7,0.3,0.82,20,400,1E-11,3.5,0.01,0.5,0.1,,,,,,,,,,,,,,,,,,,,,,,,,,,,,,,,,,,,,,,,,,,,,,,,,,,,,,,,,,,,,,,,,,,,,,,,,,,,,,,,,
,,,,,171876,001,2025-03-15_10h05.58.976,Utility_discrimination_2024_2cat,2024.2.4,Win32,59.17159763,,,,,,,,1,"[0.5,0.5]","[0.924,0.383]",s,"[0.5935725601776443,0.5935725601776443]","[0.4064274398223557,0.4064274398223557]",150.4866,152.7494,1,s,1,0.7358,,-0.740475113,-0.170023005,0.570452108,152.7508,152.7508,0,56,56,56,1,0.13235157,0.13235157,shape_difference2,1,,TRUE,,intensity,0.1,0.05,0.7,0.3,0.82,20,400,1E-11,3.5,0.01,0.5,0.1,,,,,,,,,,,,,,,,,,,,,,,,,,,,,,,,,,,,,,,,,,,,,,,,,,,,,,,,,,,,,,,,,,,,,,,,,,,,,,,,,
,,,,,171876,001,2025-03-15_10h05.58.976,Utility_discrimination_2024_2cat,2024.2.4,Win32,59.17159763,,,,,,,,0,"[0.5,0.5]","[1,0]",s,"[0.12069240145990284,0.34277617939301164]","[0.8793075985400971,0.6572238206069884]",152.7517,154.6995,1,d,1,0.4161,,0.006049607,0.347692498,0.341642891,154.7016,154.7016,0,57,57,57,1,-0.410506059,-0.410506059,shape_difference1,1,,TRUE,,intensity,0.1,0.05,0.7,0.3,0.82,20,400,1E-11,3.5,0.01,0.5,0.1,,,,,,,,,,,,,,,,,,,,,,,,,,,,,,,,,,,,,,,,,,,,,,,,,,,,,,,,,,,,,,,,,,,,,,,,,,,,,,,,,
,,,,,171876,001,2025-03-15_10h05.58.976,Utility_discrimination_2024_2cat,2024.2.4,Win32,59.17159763,,,,,,,,3,"[0.5,0.5]","[0.383,0.924]",d,"[0.6671824278831877,0.5]","[0.33281757211681223,0.5]",154.7026,156.9159,1,s,1,0.684,,-0.379438984,0.000197734,0.379636718,156.9176,156.9176,0,58,58,58,1,0.167182428,0.167182428,shape_difference0,1,,TRUE,,intensity,0.1,0.05,0.7,0.3,0.82,20,400,1E-11,3.5,0.01,0.5,0.1,,,,,,,,,,,,,,,,,,,,,,,,,,,,,,,,,,,,,,,,,,,,,,,,,,,,,,,,,,,,,,,,,,,,,,,,,,,,,,,,,
,,,,,171876,001,2025-03-15_10h05.58.976,Utility_discrimination_2024_2cat,2024.2.4,Win32,59.17159763,,,,,,,,1,"[0.5,0.5]","[0.924,0.383]",s,"[0.42693080727793487,0.32371818779324235]","[0.5730691927220651,0.6762818122067576]",156.9186,159.116,1,s,1,0.6682,,-0.763304889,-0.210959736,0.552345154,159.118,159.118,0,59,59,59,1,-0.190781182,-0.190781182,shape_difference3,1,,TRUE,,intensity,0.1,0.05,0.7,0.3,0.82,20,400,1E-11,3.5,0.01,0.5,0.1,,,,,,,,,,,,,,,,,,,,,,,,,,,,,,,,,,,,,,,,,,,,,,,,,,,,,,,,,,,,,,,,,,,,,,,,,,,,,,,,,
,,,,,171876,001,2025-03-15_10h05.58.976,Utility_discrimination_2024_2cat,2024.2.4,Win32,59.17159763,,,,,,,,0,"[0.5,0.5]","[1,0]",s,"[0.0934398112821726,0.33147992177605207]","[0.9065601887178274,0.668520078223948]",159.1191,161.183,1,d,1,0.5352,,0.002734621,0.306477788,0.303743167,161.1853,161.1853,0,60,60,60,1,-0.440000204,-0.440000204,shape_difference1,1,,TRUE,,intensity,0.1,0.05,0.7,0.3,0.82,20,400,1E-11,3.5,0.01,0.5,0.1,,,,,,,,,,,,,,,,,,,,,,,,,,,,,,,,,,,,,,,,,,,,,,,,,,,,,,,,,,,,,,,,,,,,,,,,,,,,,,,,,
,,,,,171876,001,2025-03-15_10h05.58.976,Utility_discrimination_2024_2cat,2024.2.4,Win32,59.17159763,,,,,,,,4,"[0.5,0.5]","[0,1]",d,"[0.6555277961565593,0.5]","[0.3444722038434406,0.5]",161.1866,163.3831,1,s,1,0.6651,,-0.286076539,0.096481984,0.382558523,163.3865,163.3865,0,61,61,61,1,0.155527796,0.155527796,shape_difference0,1,,TRUE,,intensity,0.1,0.05,0.7,0.3,0.82,20,400,1E-11,3.5,0.01,0.5,0.1,,,,,,,,,,,,,,,,,,,,,,,,,,,,,,,,,,,,,,,,,,,,,,,,,,,,,,,,,,,,,,,,,,,,,,,,,,,,,,,,,
,,,,,171876,001,2025-03-15_10h05.58.976,Utility_discrimination_2024_2cat,2024.2.4,Win32,59.17159763,,,,,,,,3,"[0.5,0.5]","[0.383,0.924]",s,"[0.5,0.4474965905757699]","[0.5,0.55250340942423]",163.3877,165.7494,1,s,1,0.8407,,-0.387249472,-0.02059277,0.366656702,165.7521,165.7521,0,62,62,62,1,-0.052503409,-0.052503409,shape_difference4,1,,TRUE,,intensity,0.1,0.05,0.7,0.3,0.82,20,400,1E-11,3.5,0.01,0.5,0.1,,,,,,,,,,,,,,,,,,,,,,,,,,,,,,,,,,,,,,,,,,,,,,,,,,,,,,,,,,,,,,,,,,,,,,,,,,,,,,,,,
,,,,,171876,001,2025-03-15_10h05.58.976,Utility_discrimination_2024_2cat,2024.2.4,Win32,59.17159763,,,,,,,,2,"[0.5,0.5]","[0.707,0.707]",s,"[0.4197695952734498,0.3064415301114036]","[0.5802304047265502,0.6935584698885964]",165.7527,167.966,0,s,0,0.6846,,-0.047088471,0.292394034,0.339482504,167.9675,167.9675,0,63,63,63,1,-0.209478864,-0.209478864,shape_difference3,1,,TRUE,,intensity,0.1,0.05,0.7,0.3,0.82,20,400,1E-11,3.5,0.01,0.5,0.1,,,,,,,,,,,,,,,,,,,,,,,,,,,,,,,,,,,,,,,,,,,,,,,,,,,,,,,,,,,,,,,,,,,,,,,,,,,,,,,,,
,,,,,171876,001,2025-03-15_10h05.58.976,Utility_discrimination_2024_2cat,2024.2.4,Win32,59.17159763,,,,,,,,3,"[0.5,0.5]","[0.383,0.924]",d,"[0.580863529672484,0.580863529672484]","[0.41913647032751594,0.41913647032751594]",167.9684,170.4329,1,d,1,0.9316,,-0.297818678,0.060167878,0.357986556,170.435,170.435,0,64,64,64,1,0.114375572,0.114375572,shape_difference2,1,,TRUE,,intensity,0.1,0.05,0.7,0.3,0.82,20,400,1E-11,3.5,0.01,0.5,0.1,,,,,,,,,,,,,,,,,,,,,,,,,,,,,,,,,,,,,,,,,,,,,,,,,,,,,,,,,,,,,,,,,,,,,,,,,,,,,,,,,
,,,,,171876,001,2025-03-15_10h05.58.976,Utility_discrimination_2024_2cat,2024.2.4,Win32,59.17159763,,,,,,,,4,"[0.5,0.5]","[0,1]",d,"[0.44219786551265644,0.3605504640566437]","[0.5578021344873436,0.6394495359433563]",170.436,172.7661,1,d,1,0.8017,,-0.33569129,0.085249886,0.420941176,172.768,172.768,0,65,65,65,1,-0.150919411,-0.150919411,shape_difference3,1,,TRUE,,intensity,0.1,0.05,0.7,0.3,0.82,20,400,1E-11,3.5,0.01,0.5,0.1,,,,,,,,,,,,,,,,,,,,,,,,,,,,,,,,,,,,,,,,,,,,,,,,,,,,,,,,,,,,,,,,,,,,,,,,,,,,,,,,,
,,,,,171876,001,2025-03-15_10h05.58.976,Utility_discrimination_2024_2cat,2024.2.4,Win32,59.17159763,,,,,,,,0,"[0.5,0.5]","[1,0]",d,"[0.5,0.4341148207873786]","[0.5,0.5658851792126214]",172.7691,174.9328,1,s,1,0.6318,,4.74666E-05,0.289646778,0.289599311,174.9348,174.9348,0,66,66,66,1,-0.065885179,-0.065885179,shape_difference4,1,,TRUE,,intensity,0.1,0.05,0.7,0.3,0.82,20,400,1E-11,3.5,0.01,0.5,0.1,,,,,,,,,,,,,,,,,,,,,,,,,,,,,,,,,,,,,,,,,,,,,,,,,,,,,,,,,,,,,,,,,,,,,,,,,,,,,,,,,
,,,,,171876,001,2025-03-15_10h05.58.976,Utility_discrimination_2024_2cat,2024.2.4,Win32,59.17159763,,,,,,,,1,"[0.5,0.5]","[0.924,0.383]",s,"[0.6447781688138547,0.5]","[0.3552218311861452,0.5]",174.9356,177.0994,1,s,1,0.6329,,-0.779061589,-0.241211791,0.537849798,177.1012,177.1013,0,67,67,67,1,0.144778169,0.144778169,shape_difference0,1,,TRUE,,intensity,0.1,0.05,0.7,0.3,0.82,20,400,1E-11,3.5,0.01,0.5,0.1,,,,,,,,,,,,,,,,,,,,,,,,,,,,,,,,,,,,,,,,,,,,,,,,,,,,,,,,,,,,,,,,,,,,,,,,,,,,,,,,,
,,,,,171876,001,2025-03-15_10h05.58.976,Utility_discrimination_2024_2cat,2024.2.4,Win32,59.17159763,,,,,,,,2,"[0.5,0.5]","[0.707,0.707]",s,"[0.06900558311287752,0.3213518813119395]","[0.9309944168871225,0.6786481186880605]",177.1025,179.733,1,s,1,1.099,,-0.058847401,0.273474928,0.332322328,179.7365,179.7367,0,68,68,68,1,-0.466444174,-0.466444174,shape_difference1,1,,TRUE,,intensity,0.1,0.05,0.7,0.3,0.82,20,400,1E-11,3.5,0.01,0.5,0.1,,,,,,,,,,,,,,,,,,,,,,,,,,,,,,,,,,,,,,,,,,,,,,,,,,,,,,,,,,,,,,,,,,,,,,,,,,,,,,,,,
,,,,,171876,001,2025-03-15_10h05.58.976,Utility_discrimination_2024_2cat,2024.2.4,Win32,59.17159763,,,,,,,,2,"[0.5,0.5]","[0.707,0.707]",s,"[0.568246806946396,0.568246806946396]","[0.4317531930536041,0.4317531930536041]",179.7377,182.016,1,s,1,0.7522,,-0.067536027,0.249396668,0.316932695,182.0187,182.0188,0,69,69,69,1,0.096530137,0.096530137,shape_difference2,1,,TRUE,,intensity,0.1,0.05,0.7,0.3,0.82,20,400,1E-11,3.5,0.01,0.5,0.1,,,,,,,,,,,,,,,,,,,,,,,,,,,,,,,,,,,,,,,,,,,,,,,,,,,,,,,,,,,,,,,,,,,,,,,,,,,,,,,,,
,,,,,171876,001,2025-03-15_10h05.58.976,Utility_discrimination_2024_2cat,2024.2.4,Win32,59.17159763,,,,,,,,4,"[0.5,0.5]","[0,1]",s,"[0.5604831820469738,0.5604831820469738]","[0.43951681795302616,0.43951681795302616]",182.0198,184.2158,0,s,0,0.6678,,-0.381477174,0.071171467,0.452648641,184.2175,184.2176,0,70,70,70,1,0.085549055,0.085549055,shape_difference2,1,,TRUE,,intensity,0.1,0.05,0.7,0.3,0.82,20,400,1E-11,3.5,0.01,0.5,0.1,,,,,,,,,,,,,,,,,,,,,,,,,,,,,,,,,,,,,,,,,,,,,,,,,,,,,,,,,,,,,,,,,,,,,,,,,,,,,,,,,
,,,,,171876,001,2025-03-15_10h05.58.976,Utility_discrimination_2024_2cat,2024.2.4,Win32,59.17159763,,,,,,,,0,"[0.5,0.5]","[1,0]",d,"[0.5,0.41874316172090714]","[0.5,0.5812568382790928]",184.2185,186.4494,1,s,1,0.7004,,-0.028823568,0.278463574,0.307287141,186.4524,186.4524,0,71,71,71,1,-0.081256838,-0.081256838,shape_difference4,1,,TRUE,,intensity,0.1,0.05,0.7,0.3,0.82,20,400,1E-11,3.5,0.01,0.5,0.1,,,,,,,,,,,,,,,,,,,,,,,,,,,,,,,,,,,,,,,,,,,,,,,,,,,,,,,,,,,,,,,,,,,,,,,,,,,,,,,,,
,,,,,171876,001,2025-03-15_10h05.58.976,Utility_discrimination_2024_2cat,2024.2.4,Win32,59.17159763,,,,,,,,1,"[0.5,0.5]","[0.924,0.383]",s,"[0.6330620668957394,0.5]","[0.3669379331042606,0.5]",186.4532,188.7327,1,s,1,0.7516,,-0.797573468,-0.278899126,0.518674342,188.7355,188.7355,0,72,72,72,1,0.133062067,0.133062067,shape_difference0,1,,TRUE,,intensity,0.1,0.05,0.7,0.3,0.82,20,400,1E-11,3.5,0.01,0.5,0.1,,,,,,,,,,,,,,,,,,,,,,,,,,,,,,,,,,,,,,,,,,,,,,,,,,,,,,,,,,,,,,,,,,,,,,,,,,,,,,,,,
,,,,,171876,001,2025-03-15_10h05.58.976,Utility_discrimination_2024_2cat,2024.2.4,Win32,59.17159763,,,,,,,,3,"[0.5,0.5]","[0.383,0.924]",s,"[0.039580978633506236,0.30915531906562]","[0.9604190213664938,0.69084468093438]",188.7366,190.8329,1,d,1,0.572,,-0.310057137,0.017453369,0.327510506,190.835,190.835,0,73,73,73,1,-0.498288984,-0.498288984,shape_difference1,1,,TRUE,,intensity,0.1,0.05,0.7,0.3,0.82,20,400,1E-11,3.5,0.01,0.5,0.1,,,,,,,,,,,,,,,,,,,,,,,,,,,,,,,,,,,,,,,,,,,,,,,,,,,,,,,,,,,,,,,,,,,,,,,,,,,,,,,,,
,,,,,171876,001,2025-03-15_10h05.58.976,Utility_discrimination_2024_2cat,2024.2.4,Win32,59.17159763,,,,,,,,1,"[0.5,0.5]","[0.924,0.383]",d,"[0.43643724157021874,0.346652770785593]","[0.5635627584297813,0.653347229214407]",190.8361,193.3662,0,d,0,0.9998,,-0.825856923,-0.311772,0.514084923,193.3689,193.3689,0,74,74,74,1,-0.165960205,-0.165960205,shape_difference3,1,,TRUE,,intensity,0.1,0.05,0.7,0.3,0.82,20,400,1E-11,3.5,0.01,0.5,0.1,,,,,,,,,,,,,,,,,,,,,,,,,,,,,,,,,,,,,,,,,,,,,,,,,,,,,,,,,,,,,,,,,,,,,,,,,,,,,,,,,
,,,,,171876,001,2025-03-15_10h05.58.976,Utility_discrimination_2024_2cat,2024.2.4,Win32,59.17159763,,,,,,,,3,"[0.5,0.5]","[0.383,0.924]",s,"[0.013578107026042896,0.2983770725010546]","[0.9864218929739571,0.7016229274989454]",193.3695,195.616,1,d,1,0.7166,,-0.285973766,0.088248083,0.37422185,195.6186,195.6186,0,75,75,75,1,-0.52643062,-0.52643062,shape_difference1,1,,TRUE,,intensity,0.1,0.05,0.7,0.3,0.82,20,400,1E-11,3.5,0.01,0.5,0.1,,,,,,,,,,,,,,,,,,,,,,,,,,,,,,,,,,,,,,,,,,,,,,,,,,,,,,,,,,,,,,,,,,,,,,,,,,,,,,,,,
,,,,,171876,001,2025-03-15_10h05.58.976,Utility_discrimination_2024_2cat,2024.2.4,Win32,59.17159763,,,,,,,,4,"[0.5,0.5]","[0,1]",d,"[0.4499607431776885,0.3792786597811598]","[0.5500392568223115,0.6207213402188402]",195.6194,197.7995,1,d,1,0.6545,,-0.422182742,0.052761106,0.474943849,197.8012,197.8012,0,76,76,76,1,-0.130650801,-0.130650801,shape_difference3,1,,TRUE,,intensity,0.1,0.05,0.7,0.3,0.82,20,400,1E-11,3.5,0.01,0.5,0.1,,,,,,,,,,,,,,,,,,,,,,,,,,,,,,,,,,,,,,,,,,,,,,,,,,,,,,,,,,,,,,,,,,,,,,,,,,,,,,,,,
,,,,,171876,001,2025-03-15_10h05.58.976,Utility_discrimination_2024_2cat,2024.2.4,Win32,59.17159763,,,,,,,,2,"[0.5,0.5]","[0.707,0.707]",d,"[0.5,0.4004047897554287]","[0.5,0.5995952102445713]",197.8025,199.9661,1,s,1,0.6331,,0.003819047,0.295670698,0.291851651,199.9682,199.9682,0,77,77,77,1,-0.09959521,-0.09959521,shape_difference4,1,,TRUE,,intensity,0.1,0.05,0.7,0.3,0.82,20,400,1E-11,3.5,0.01,0.5,0.1,,,,,,,,,,,,,,,,,,,,,,,,,,,,,,,,,,,,,,,,,,,,,,,,,,,,,,,,,,,,,,,,,,,,,,,,,,,,,,,,,
,,,,,171876,001,2025-03-15_10h05.58.976,Utility_discrimination_2024_2cat,2024.2.4,Win32,59.17159763,,,,,,,,0,"[0.5,0.5]","[1,0]",s,"[0.5932287284257174,0.5932287284257174]","[0.4067712715742826,0.4067712715742826]",199.9697,202.2657,1,s,1,0.7765,,-0.050178292,0.26451963,0.314697922,202.2688,202.2688,0,78,78,78,1,0.131865245,0.131865245,shape_difference2,1,,TRUE,,intensity,0.1,0.05,0.7,0.3,0.82,20,400,1E-11,3.5,0.01,0.5,0.1,,,,,,,,,,,,,,,,,,,,,,,,,,,,,,,,,,,,,,,,,,,,,,,,,,,,,,,,,,,,,,,,,,,,,,,,,,,,,,,,,
,,,,,171876,001,2025-03-15_10h05.58.976,Utility_discrimination_2024_2cat,2024.2.4,Win32,59.17159763,,,,,,,,4,"[0.5,0.5]","[0,1]",s,"[0.6198841000134763,0.5]","[0.3801158999865237,0.5]",202.2695,204.4828,1,s,1,0.6889,,-0.459460274,0.027784694,0.487244969,204.4849,204.4849,0,79,79,79,1,0.1198841,0.1198841,shape_difference0,1,,TRUE,,intensity,0.1,0.05,0.7,0.3,0.82,20,400,1E-11,3.5,0.01,0.5,0.1,,,,,,,,,,,,,,,,,,,,,,,,,,,,,,,,,,,,,,,,,,,,,,,,,,,,,,,,,,,,,,,,,,,,,,,,,,,,,,,,,
,,,,,171876,001,2025-03-15_10h05.58.976,Utility_discrimination_2024_2cat,2024.2.4,Win32,59.17159763,,,,,,,,2,"[0.5,0.5]","[0.707,0.707]",s,"[0.5,0.38489388198019725]","[0.5,0.6151061180198028]",204.4862,206.5825,1,s,1,0.5684,,0.001459546,0.280411462,0.278951915,206.585,206.5851,0,80,80,80,1,-0.115106118,-0.115106118,shape_difference4,1,,TRUE,,intensity,0.1,0.05,0.7,0.3,0.82,20,400,1E-11,3.5,0.01,0.5,0.1,,,,,,,,,,,,,,,,,,,,,,,,,,,,,,,,,,,,,,,,,,,,,,,,,,,,,,,,,,,,,,,,,,,,,,,,,,,,,,,,,
,,,,,171876,001,2025-03-15_10h05.58.976,Utility_discrimination_2024_2cat,2024.2.4,Win32,59.17159763,,,,,,,,3,"[0.5,0.5]","[0.383,0.924]",s,"[0.5827994554018542,0.5827994554018542]","[0.4172005445981458,0.4172005445981458]",206.5861,208.6991,1,d,1,0.5914,,-0.288788353,0.046785447,0.3355738,208.7011,208.7011,0,81,81,81,1,0.117113798,0.117113798,shape_difference2,1,,TRUE,,intensity,0.1,0.05,0.7,0.3,0.82,20,400,1E-11,3.5,0.01,0.5,0.1,,,,,,,,,,,,,,,,,,,,,,,,,,,,,,,,,,,,,,,,,,,,,,,,,,,,,,,,,,,,,,,,,,,,,,,,,,,,,,,,,
,,,,,171876,001,2025-03-15_10h05.58.976,Utility_discrimination_2024_2cat,2024.2.4,Win32,59.17159763,,,,,,,,1,"[0.5,0.5]","[0.924,0.383]",d,"[0.4451523626383521,0.3676782847985309]","[0.5548476373616479,0.6323217152014691]",208.702,210.9162,1,d,1,0.6851,,-0.848016174,-0.337659314,0.51035686,210.9175,210.9175,0,82,82,82,1,-0.143205319,-0.143205319,shape_difference3,1,,TRUE,,intensity,0.1,0.05,0.7,0.3,0.82,20,400,1E-11,3.5,0.01,0.5,0.1,,,,,,,,,,,,,,,,,,,,,,,,,,,,,,,,,,,,,,,,,,,,,,,,,,,,,,,,,,,,,,,,,,,,,,,,,,,,,,,,,
,,,,,171876,001,2025-03-15_10h05.58.976,Utility_discrimination_2024_2cat,2024.2.4,Win32,59.17159763,,,,,,,,0,"[0.5,0.5]","[1,0]",d,"[-0.009107491109350274,0.2889738429709079]","[1.0091074911093503,0.7110261570290921]",210.9183,212.8658,1,d,1,0.4156,,-0.066104085,0.246560331,0.312664416,212.8679,212.8679,0,83,83,83,1,-0.550982133,-0.550982133,shape_difference1,1,,TRUE,,intensity,0.1,0.05,0.7,0.3,0.82,20,400,1E-11,3.5,0.01,0.5,0.1,,,,,,,,,,,,,,,,,,,,,,,,,,,,,,,,,,,,,,,,,,,,,,,,,,,,,,,,,,,,,,,,,,,,,,,,,,,,,,,,,
,,,,,171876,001,2025-03-15_10h05.58.976,Utility_discrimination_2024_2cat,2024.2.4,Win32,59.17159763,,,,,,,,3,"[0.5,0.5]","[0.383,0.924]",d,"[0.6046039220625758,0.5]","[0.3953960779374242,0.5]",212.8688,214.833,1,d,1,0.4322,,-0.290934933,-0.002152664,0.288782269,214.8356,214.8356,0,84,84,84,1,0.104603922,0.104603922,shape_difference0,1,,TRUE,,intensity,0.1,0.05,0.7,0.3,0.82,20,400,1E-11,3.5,0.01,0.5,0.1,,,,,,,,,,,,,,,,,,,,,,,,,,,,,,,,,,,,,,,,,,,,,,,,,,,,,,,,,,,,,,,,,,,,,,,,,,,,,,,,,
,,,,,171876,001,2025-03-15_10h05.58.976,Utility_discrimination_2024_2cat,2024.2.4,Win32,59.17159763,,,,,,,,1,"[0.5,0.5]","[0.924,0.383]",d,"[0.44085842743583686,0.35731902598097465]","[0.5591415725641631,0.6426809740190254]",214.8365,216.9829,1,d,1,0.6193,,-0.873461133,-0.368757096,0.504704037,216.9849,216.9855,0,85,85,85,1,-0.154416639,-0.154416639,shape_difference3,1,,TRUE,,intensity,0.1,0.05,0.7,0.3,0.82,20,400,1E-11,3.5,0.01,0.5,0.1,,,,,,,,,,,,,,,,,,,,,,,,,,,,,,,,,,,,,,,,,,,,,,,,,,,,,,,,,,,,,,,,,,,,,,,,,,,,,,,,,
,,,,,171876,001,2025-03-15_10h05.58.976,Utility_discrimination_2024_2cat,2024.2.4,Win32,59.17159763,,,,,,,,0,"[0.5,0.5]","[1,0]",d,"[-0.034388915956280464,0.2784946376501565]","[1.0343889159562805,0.7215053623498435]",216.9866,219.0323,1,d,1,0.5178,,-0.07823904,0.222777039,0.301016079,219.0348,219.0348,0,86,86,86,1,-0.578342983,-0.578342983,shape_difference1,1,,TRUE,,intensity,0.1,0.05,0.7,0.3,0.82,20,400,1E-11,3.5,0.01,0.5,0.1,,,,,,,,,,,,,,,,,,,,,,,,,,,,,,,,,,,,,,,,,,,,,,,,,,,,,,,,,,,,,,,,,,,,,,,,,,,,,,,,,
,,,,,171876,001,2025-03-15_10h05.58.976,Utility_discrimination_2024_2cat,2024.2.4,Win32,59.17159763,,,,,,,,2,"[0.5,0.5]","[0.707,0.707]",d,"[0.5916555581918359,0.5]","[0.40834444180816404,0.5]",219.0354,221.1658,1,d,1,0.6101,,-0.007860321,0.261670995,0.269531316,221.1674,221.1675,0,87,87,87,1,0.091655558,0.091655558,shape_difference0,1,,TRUE,,intensity,0.1,0.05,0.7,0.3,0.82,20,400,1E-11,3.5,0.01,0.5,0.1,,,,,,,,,,,,,,,,,,,,,,,,,,,,,,,,,,,,,,,,,,,,,,,,,,,,,,,,,,,,,,,,,,,,,,,,,,,,,,,,,
,,,,,171876,001,2025-03-15_10h05.58.976,Utility_discrimination_2024_2cat,2024.2.4,Win32,59.17159763,,,,,,,,4,"[0.5,0.5]","[0,1]",d,"[0.5711189564036007,0.5711189564036007]","[0.42888104359639934,0.42888104359639934]",221.1684,223.3659,1,d,1,0.6743,,-0.486328425,-0.001179308,0.485149117,223.368,223.368,0,88,88,88,1,0.100592583,0.100592583,shape_difference2,1,,TRUE,,intensity,0.1,0.05,0.7,0.3,0.82,20,400,1E-11,3.5,0.01,0.5,0.1,,,,,,,,,,,,,,,,,,,,,,,,,,,,,,,,,,,,,,,,,,,,,,,,,,,,,,,,,,,,,,,,,,,,,,,,,,,,,,,,,
,,,,,171876,001,2025-03-15_10h05.58.976,Utility_discrimination_2024_2cat,2024.2.4,Win32,59.17159763,,,,,,,,0,"[0.5,0.5]","[1,0]",d,"[0.5,0.37120469446300886]","[0.5,0.6287953055369911]",223.3691,225.5827,1,d,1,0.6857,,-0.087697217,0.198601512,0.286298728,225.5849,225.585,0,89,89,89,1,-0.128795306,-0.128795306,shape_difference4,1,,TRUE,,intensity,0.1,0.05,0.7,0.3,0.82,20,400,1E-11,3.5,0.01,0.5,0.1,,,,,,,,,,,,,,,,,,,,,,,,,,,,,,,,,,,,,,,,,,,,,,,,,,,,,,,,,,,,,,,,,,,,,,,,,,,,,,,,,
,,,,,171876,001,2025-03-15_10h05.58.976,Utility_discrimination_2024_2cat,2024.2.4,Win32,59.17159763,,,,,,,,3,"[0.5,0.5]","[0.383,0.924]",d,"[0.5817227922463744,0.5]","[0.41827720775362565,0.5]",225.5861,227.7329,1,d,1,0.6176,,-0.293212877,-0.014639338,0.278573538,227.7361,227.7361,0,90,90,90,1,0.081722792,0.081722792,shape_difference0,1,,TRUE,,intensity,0.1,0.05,0.7,0.3,0.82,20,400,1E-11,3.5,0.01,0.5,0.1,,,,,,,,,,,,,,,,,,,,,,,,,,,,,,,,,,,,,,,,,,,,,,,,,,,,,,,,,,,,,,,,,,,,,,,,,,,,,,,,,
,,,,,171876,001,2025-03-15_10h05.58.976,Utility_discrimination_2024_2cat,2024.2.4,Win32,59.17159763,,,,,,,,2,"[0.5,0.5]","[0.707,0.707]",d,"[0.4365369058945325,0.346893214220752]","[0.5634630941054675,0.6531067857792481]",227.7371,229.9659,1,s,1,0.6988,,-0.026055231,0.237876473,0.263931704,229.9673,229.9673,0,91,91,91,1,-0.165699985,-0.165699985,shape_difference3,1,,TRUE,,intensity,0.1,0.05,0.7,0.3,0.82,20,400,1E-11,3.5,0.01,0.5,0.1,,,,,,,,,,,,,,,,,,,,,,,,,,,,,,,,,,,,,,,,,,,,,,,,,,,,,,,,,,,,,,,,,,,,,,,,,,,,,,,,,
,,,,,171876,001,2025-03-15_10h05.58.976,Utility_discrimination_2024_2cat,2024.2.4,Win32,59.17159763,,,,,,,,4,"[0.5,0.5]","[0,1]",s,"[0.564209966880232,0.564209966880232]","[0.43579003311976805,0.43579003311976805]",229.968,232.016,1,s,1,0.5232,,-0.51107656,-0.008177712,0.502898848,232.0182,232.0182,0,92,92,92,1,0.090820321,0.090820321,shape_difference2,1,,TRUE,,intensity,0.1,0.05,0.7,0.3,0.82,20,400,1E-11,3.5,0.01,0.5,0.1,,,,,,,,,,,,,,,,,,,,,,,,,,,,,,,,,,,,,,,,,,,,,,,,,,,,,,,,,,,,,,,,,,,,,,,,,,,,,,,,,
,,,,,171876,001,2025-03-15_10h05.58.976,Utility_discrimination_2024_2cat,2024.2.4,Win32,59.17159763,,,,,,,,1,"[0.5,0.5]","[0.924,0.383]",s,"[0.5,0.3585811021178273]","[0.5,0.6414188978821727]",232.0199,235.2991,1,s,1,1.755,,-0.890526426,-0.404878559,0.485647867,235.301,235.301,0,93,93,93,1,-0.141418898,-0.141418898,shape_difference4,1,,TRUE,,intensity,0.1,0.05,0.7,0.3,0.82,20,400,1E-11,3.5,0.01,0.5,0.1,,,,,,,,,,,,,,,,,,,,,,,,,,,,,,,,,,,,,,,,,,,,,,,,,,,,,,,,,,,,,,,,,,,,,,,,,,,,,,,,,
,,,,,171876,001,2025-03-15_10h05.58.976,Utility_discrimination_2024_2cat,2024.2.4,Win32,59.17159763,,,,,,,,0,"[0.5,0.5]","[1,0]",s,"[-0.06210107481663085,0.26700788781951346]","[1.0621010748166309,0.7329921121804865]",235.3019,237.9492,1,s,1,1.1178,,-0.095245352,0.193081971,0.288327323,237.9521,237.9521,0,94,94,94,1,-0.608334497,-0.608334497,shape_difference1,1,,TRUE,,intensity,0.1,0.05,0.7,0.3,0.82,20,400,1E-11,3.5,0.01,0.5,0.1,,,,,,,,,,,,,,,,,,,,,,,,,,,,,,,,,,,,,,,,,,,,,,,,,,,,,,,,,,,,,,,,,,,,,,,,,,,,,,,,,
,,,,,171876,001,2025-03-15_10h05.58.976,Utility_discrimination_2024_2cat,2024.2.4,Win32,59.17159763,,,,,,,,4,"[0.5,0.5]","[0,1]",s,"[0.5730981692122767,0.5]","[0.4269018307877232,0.5]",237.9529,240.049,1,s,1,0.5673,,-0.538068946,-0.016174736,0.521894209,240.0508,240.0508,0,95,95,95,1,0.073098169,0.073098169,shape_difference0,1,,TRUE,,intensity,0.1,0.05,0.7,0.3,0.82,20,400,1E-11,3.5,0.01,0.5,0.1,,,,,,,,,,,,,,,,,,,,,,,,,,,,,,,,,,,,,,,,,,,,,,,,,,,,,,,,,,,,,,,,,,,,,,,,,,,,,,,,,
,,,,,171876,001,2025-03-15_10h05.58.976,Utility_discrimination_2024_2cat,2024.2.4,Win32,59.17159763,,,,,,,,2,"[0.5,0.5]","[0.707,0.707]",s,"[0.5,0.3464502814076851]","[0.5,0.6535497185923149]",240.0517,242.1993,1,s,1,0.6244,,-0.03978079,0.206820701,0.246601491,242.202,242.202,0,96,96,96,1,-0.153549719,-0.153549719,shape_difference4,1,,TRUE,,intensity,0.1,0.05,0.7,0.3,0.82,20,400,1E-11,3.5,0.01,0.5,0.1,,,,,,,,,,,,,,,,,,,,,,,,,,,,,,,,,,,,,,,,,,,,,,,,,,,,,,,,,,,,,,,,,,,,,,,,,,,,,,,,,
,,,,,171876,001,2025-03-15_10h05.58.976,Utility_discrimination_2024_2cat,2024.2.4,Win32,59.17159763,,,,,,,,3,"[0.5,0.5]","[0.383,0.924]",s,"[0.5587282884251707,0.5587282884251707]","[0.44127171157482925,0.44127171157482925]",242.2028,244.4159,1,s,1,0.6837,,-0.295219677,-0.029565142,0.265654535,244.418,244.418,0,97,97,97,1,0.083066886,0.083066886,shape_difference2,1,,TRUE,,intensity,0.1,0.05,0.7,0.3,0.82,20,400,1E-11,3.5,0.01,0.5,0.1,,,,,,,,,,,,,,,,,,,,,,,,,,,,,,,,,,,,,,,,,,,,,,,,,,,,,,,,,,,,,,,,,,,,,,,,,,,,,,,,,
,,,,,171876,001,2025-03-15_10h05.58.976,Utility_discrimination_2024_2cat,2024.2.4,Win32,59.17159763,,,,,,,,1,"[0.5,0.5]","[0.924,0.383]",s,"[0.43183435365951944,0.3355481534762296]","[0.5681656463404806,0.6644518465237703]",244.4191,246.7325,1,d,1,0.7865,,-0.906423025,-0.425211867,0.481211158,246.7343,246.7343,0,98,98,98,1,-0.177978189,-0.177978189,shape_difference3,1,,TRUE,,intensity,0.1,0.05,0.7,0.3,0.82,20,400,1E-11,3.5,0.01,0.5,0.1,,,,,,,,,,,,,,,,,,,,,,,,,,,,,,,,,,,,,,,,,,,,,,,,,,,,,,,,,,,,,,,,,,,,,,,,,,,,,,,,,
,,,,,171876,001,2025-03-15_10h05.58.976,Utility_discrimination_2024_2cat,2024.2.4,Win32,59.17159763,,,,,,,,0,"[0.5,0.5]","[1,0]",d,"[-0.08512089842921555,0.257466121105639]","[1.0851208984292156,0.742533878894361]",246.7355,248.9823,1,s,1,0.7164,,-0.105887904,0.187054679,0.292942582,248.9847,248.9848,0,99,99,99,1,-0.633247726,-0.633247726,shape_difference1,1,,TRUE,,intensity,0.1,0.05,0.7,0.3,0.82,20,400,1E-11,3.5,0.01,0.5,0.1,,,,,,,,,,,,,,,,,,,,,,,,,,,,,,,,,,,,,,,,,,,,,,,,,,,,,,,,,,,,,,,,,,,,,,,,,,,,,,,,,
,,,,,171876,001,2025-03-15_10h05.58.976,Utility_discrimination_2024_2cat,2024.2.4,Win32,59.17159763,,,,,,,,4,"[0.5,0.5]","[0,1]",s,"[0.56538451068744,0.5]","[0.43461548931256005,0.5]",248.9854,251.2326,0,s,0,0.7166,,-0.572715184,-0.0257701,0.546945084,251.2351,251.2352,0,100,100,100,1,0.065384511,0.065384511,shape_difference0,1,,TRUE,,intensity,0.1,0.05,0.7,0.3,0.82,20,400,1E-11,3.5,0.01,0.5,0.1,,,,,,,,,,,,,,,,,,,,,,,,,,,,,,,,,,,,,,,,,,,,,,,,,,,,,,,,,,,,,,,,,,,,,,,,,,,,,,,,,
,,,,,171876,001,2025-03-15_10h05.58.976,Utility_discrimination_2024_2cat,2024.2.4,Win32,59.17159763,,,,,,,,1,"[0.5,0.5]","[0.924,0.383]",d,"[0.5,0.32978011873696]","[0.5,0.67021988126304]",251.2363,253.3157,1,d,1,0.5574,,-0.929904407,-0.45344894,0.476455467,253.3174,253.3174,0,101,101,101,1,-0.170219881,-0.170219881,shape_difference4,1,,TRUE,,intensity,0.1,0.05,0.7,0.3,0.82,20,400,1E-11,3.5,0.01,0.5,0.1,,,,,,,,,,,,,,,,,,,,,,,,,,,,,,,,,,,,,,,,,,,,,,,,,,,,,,,,,,,,,,,,,,,,,,,,,,,,,,,,,
,,,,,171876,001,2025-03-15_10h05.58.976,Utility_discrimination_2024_2cat,2024.2.4,Win32,59.17159763,,,,,,,,3,"[0.5,0.5]","[0.383,0.924]",d,"[-0.1057268973425377,0.2489248899543377]","[1.1057268973425378,0.7510751100456623]",253.3184,255.8826,1,s,1,1.0432,,-0.297060298,-0.04802323,0.249037068,255.8849,255.8849,0,102,102,102,1,-0.65554859,-0.65554859,shape_difference1,1,,TRUE,,intensity,0.1,0.05,0.7,0.3,0.82,20,400,1E-11,3.5,0.01,0.5,0.1,,,,,,,,,,,,,,,,,,,,,,,,,,,,,,,,,,,,,,,,,,,,,,,,,,,,,,,,,,,,,,,,,,,,,,,,,,,,,,,,,
,,,,,171876,001,2025-03-15_10h05.58.976,Utility_discrimination_2024_2cat,2024.2.4,Win32,59.17159763,,,,,,,,2,"[0.5,0.5]","[0.707,0.707]",s,"[0.42656820532237116,0.3228433987411775]","[0.5734317946776288,0.6771566012588225]",255.8856,258.0323,1,d,1,0.6179,,-0.050303056,0.195096419,0.245399476,258.035,258.035,0,103,103,103,1,-0.191727923,-0.191727923,shape_difference3,1,,TRUE,,intensity,0.1,0.05,0.7,0.3,0.82,20,400,1E-11,3.5,0.01,0.5,0.1,,,,,,,,,,,,,,,,,,,,,,,,,,,,,,,,,,,,,,,,,,,,,,,,,,,,,,,,,,,,,,,,,,,,,,,,,,,,,,,,,
,,,,,171876,001,2025-03-15_10h05.58.976,Utility_discrimination_2024_2cat,2024.2.4,Win32,59.17159763,,,,,,,,1,"[0.5,0.5]","[0.924,0.383]",d,"[0.5541860309211041,0.5541860309211041]","[0.44581396907889587,0.44581396907889587]",258.0362,260.6489,0,s,0,1.0884,,-0.957860854,-0.488033908,0.469826946,260.6503,260.6503,0,104,104,104,1,0.076642194,0.076642194,shape_difference2,1,,TRUE,,intensity,0.1,0.05,0.7,0.3,0.82,20,400,1E-11,3.5,0.01,0.5,0.1,,,,,,,,,,,,,,,,,,,,,,,,,,,,,,,,,,,,,,,,,,,,,,,,,,,,,,,,,,,,,,,,,,,,,,,,,,,,,,,,,
,,,,,171876,001,2025-03-15_10h05.58.976,Utility_discrimination_2024_2cat,2024.2.4,Win32,59.17159763,,,,,,,,0,"[0.5,0.5]","[1,0]",d,"[-0.12927493786628308,0.2391641761874606]","[1.129274937866283,0.7608358238125394]",260.6513,263.0826,1,s,1,0.9066,,-0.008398813,0.213651434,0.222050246,263.0858,263.0858,0,105,105,105,1,-0.681033483,-0.681033483,shape_difference1,1,,TRUE,,intensity,0.1,0.05,0.7,0.3,0.82,20,400,1E-11,3.5,0.01,0.5,0.1,,,,,,,,,,,,,,,,,,,,,,,,,,,,,,,,,,,,,,,,,,,,,,,,,,,,,,,,,,,,,,,,,,,,,,,,,,,,,,,,,
,,,,,171876,001,2025-03-15_10h05.58.976,Utility_discrimination_2024_2cat,2024.2.4,Win32,59.17159763,,,,,,,,2,"[0.5,0.5]","[0.707,0.707]",s,"[0.5980696624307,0.5]","[0.4019303375692999,0.5]",263.0867,265.3826,1,s,1,0.7653,,0.004427944,0.247468404,0.24304046,265.3849,265.3849,0,106,106,106,1,0.098069662,0.098069662,shape_difference0,1,,TRUE,,intensity,0.1,0.05,0.7,0.3,0.82,20,400,1E-11,3.5,0.01,0.5,0.1,,,,,,,,,,,,,,,,,,,,,,,,,,,,,,,,,,,,,,,,,,,,,,,,,,,,,,,,,,,,,,,,,,,,,,,,,,,,,,,,,
,,,,,171876,001,2025-03-15_10h05.58.976,Utility_discrimination_2024_2cat,2024.2.4,Win32,59.17159763,,,,,,,,4,"[0.5,0.5]","[0,1]",s,"[0.5725279271033884,0.5725279271033884]","[0.4274720728966116,0.4274720728966116]",265.3859,268.1658,0,d,0,1.2564,,-0.596222286,-0.039191161,0.557031125,268.1684,268.1684,0,107,107,107,1,0.10258547,0.10258547,shape_difference2,1,,TRUE,,intensity,0.1,0.05,0.7,0.3,0.82,20,400,1E-11,3.5,0.01,0.5,0.1,,,,,,,,,,,,,,,,,,,,,,,,,,,,,,,,,,,,,,,,,,,,,,,,,,,,,,,,,,,,,,,,,,,,,,,,,,,,,,,,,
,,,,,171876,001,2025-03-15_10h05.58.976,Utility_discrimination_2024_2cat,2024.2.4,Win32,59.17159763,,,,,,,,3,"[0.5,0.5]","[0.383,0.924]",s,"[0.5,0.308960266687741]","[0.5,0.691039733312259]",268.1694,270.4656,1,d,1,0.7693,,-0.298817819,-0.071516753,0.227301066,270.4678,270.4679,0,108,108,108,1,-0.191039733,-0.191039733,shape_difference4,1,,TRUE,,intensity,0.1,0.05,0.7,0.3,0.82,20,400,1E-11,3.5,0.01,0.5,0.1,,,,,,,,,,,,,,,,,,,,,,,,,,,,,,,,,,,,,,,,,,,,,,,,,,,,,,,,,,,,,,,,,,,,,,,,,,,,,,,,,
,,,,,171876,001,2025-03-15_10h05.58.976,Utility_discrimination_2024_2cat,2024.2.4,Win32,59.17159763,,,,,,,,4,"[0.5,0.5]","[0,1]",d,"[0.42178429275702944,0.311302053544374]","[0.5782157072429706,0.688697946455626]",270.4689,272.5488,1,d,1,0.5604,,-0.625556383,-0.05864486,0.566911523,272.5505,272.5506,0,109,109,109,1,-0.204218557,-0.204218557,shape_difference3,1,,TRUE,,intensity,0.1,0.05,0.7,0.3,0.82,20,400,1E-11,3.5,0.01,0.5,0.1,,,,,,,,,,,,,,,,,,,,,,,,,,,,,,,,,,,,,,,,,,,,,,,,,,,,,,,,,,,,,,,,,,,,,,,,,,,,,,,,,
,,,,,171876,001,2025-03-15_10h05.58.976,Utility_discrimination_2024_2cat,2024.2.4,Win32,59.17159763,,,,,,,,2,"[0.5,0.5]","[0.707,0.707]",d,"[0.5,0.2738922764037198]","[0.5,0.7261077235962802]",272.5519,274.6491,1,d,1,0.5699,,0.010780301,0.284307272,0.273526971,274.6516,274.6517,0,110,110,110,1,-0.226107724,-0.226107724,shape_difference4,1,,TRUE,,intensity,0.1,0.05,0.7,0.3,0.82,20,400,1E-11,3.5,0.01,0.5,0.1,,,,,,,,,,,,,,,,,,,,,,,,,,,,,,,,,,,,,,,,,,,,,,,,,,,,,,,,,,,,,,,,,,,,,,,,,,,,,,,,,
,,,,,171876,001,2025-03-15_10h05.58.976,Utility_discrimination_2024_2cat,2024.2.4,Win32,59.17159763,,,,,,,,0,"[0.5,0.5]","[1,0]",d,"[0.5980738320546779,0.5980738320546779]","[0.40192616794532204,0.40192616794532204]",274.6523,276.8155,1,s,1,0.6402,,-0.026700891,0.197793803,0.224494694,276.8174,276.8175,0,111,111,111,1,0.138718291,0.138718291,shape_difference2,1,,TRUE,,intensity,0.1,0.05,0.7,0.3,0.82,20,400,1E-11,3.5,0.01,0.5,0.1,,,,,,,,,,,,,,,,,,,,,,,,,,,,,,,,,,,,,,,,,,,,,,,,,,,,,,,,,,,,,,,,,,,,,,,,,,,,,,,,,
,,,,,171876,001,2025-03-15_10h05.58.976,Utility_discrimination_2024_2cat,2024.2.4,Win32,59.17159763,,,,,,,,1,"[0.5,0.5]","[0.924,0.383]",s,"[0.5895257732636736,0.5]","[0.4104742267363264,0.5]",276.8188,279.149,1,d,1,0.8065,,-0.976778747,-0.511527665,0.465251083,279.1512,279.1512,0,112,112,112,1,0.089525773,0.089525773,shape_difference0,1,,TRUE,,intensity,0.1,0.05,0.7,0.3,0.82,20,400,1E-11,3.5,0.01,0.5,0.1,,,,,,,,,,,,,,,,,,,,,,,,,,,,,,,,,,,,,,,,,,,,,,,,,,,,,,,,,,,,,,,,,,,,,,,,,,,,,,,,,
,,,,,171876,001,2025-03-15_10h05.58.976,Utility_discrimination_2024_2cat,2024.2.4,Win32,59.17159763,,,,,,,,3,"[0.5,0.5]","[0.383,0.924]",d,"[-0.1547040702055099,0.22862374579143907]","[1.15470407020551,0.7713762542085609]",279.1518,281.1658,1,d,1,0.4821,,-0.306433309,-0.100299564,0.206133744,281.1678,281.1678,0,113,113,113,1,-0.708554189,-0.708554189,shape_difference1,1,,TRUE,,intensity,0.1,0.05,0.7,0.3,0.82,20,400,1E-11,3.5,0.01,0.5,0.1,,,,,,,,,,,,,,,,,,,,,,,,,,,,,,,,,,,,,,,,,,,,,,,,,,,,,,,,,,,,,,,,,,,,,,,,,,,,,,,,,
,,,,,171876,001,2025-03-15_10h05.58.976,Utility_discrimination_2024_2cat,2024.2.4,Win32,59.17159763,,,,,,,,4,"[0.5,0.5]","[0,1]",d,"[0.4187404961318539,0.3039587948455169]","[0.5812595038681461,0.6960412051544831]",281.1687,283.3823,1,s,1,0.6868,,-0.648885393,-0.087660119,0.561225274,283.3843,283.3843,0,114,114,114,1,-0.212165806,-0.212165806,shape_difference3,1,,TRUE,,intensity,0.1,0.05,0.7,0.3,0.82,20,400,1E-11,3.5,0.01,0.5,0.1,,,,,,,,,,,,,,,,,,,,,,,,,,,,,,,,,,,,,,,,,,,,,,,,,,,,,,,,,,,,,,,,,,,,,,,,,,,,,,,,,
,,,,,171876,001,2025-03-15_10h05.58.976,Utility_discrimination_2024_2cat,2024.2.4,Win32,59.17159763,,,,,,,,1,"[0.5,0.5]","[0.924,0.383]",s,"[0.5,0.2349169694082064]","[0.5,0.7650830305917936]",283.3853,285.5825,1,s,1,0.6656,,-0.98988212,-0.531869289,0.458012831,285.5843,285.5843,0,115,115,115,1,-0.265083031,-0.265083031,shape_difference4,1,,TRUE,,intensity,0.1,0.05,0.7,0.3,0.82,20,400,1E-11,3.5,0.01,0.5,0.1,,,,,,,,,,,,,,,,,,,,,,,,,,,,,,,,,,,,,,,,,,,,,,,,,,,,,,,,,,,,,,,,,,,,,,,,,,,,,,,,,
,,,,,171876,001,2025-03-15_10h05.58.976,Utility_discrimination_2024_2cat,2024.2.4,Win32,59.17159763,,,,,,,,0,"[0.5,0.5]","[1,0]",s,"[-0.17542328724438438,0.22003558548203545]","[1.1754232872443844,0.7799644145179645]",285.5854,287.3994,1,d,1,0.2835,,-0.040770911,0.193541066,0.234311977,287.4008,287.4008,0,116,116,116,1,-0.730977584,-0.730977584,shape_difference1,1,,TRUE,,intensity,0.1,0.05,0.7,0.3,0.82,20,400,1E-11,3.5,0.01,0.5,0.1,,,,,,,,,,,,,,,,,,,,,,,,,,,,,,,,,,,,,,,,,,,,,,,,,,,,,,,,,,,,,,,,,,,,,,,,,,,,,,,,,
,,,,,171876,001,2025-03-15_10h05.58.976,Utility_discrimination_2024_2cat,2024.2.4,Win32,59.17159763,,,,,,,,3,"[0.5,0.5]","[0.383,0.924]",d,"[0.5824092447265528,0.5]","[0.4175907552734472,0.5]",287.4016,289.5323,1,s,1,0.6042,,-0.323347786,-0.105204752,0.218143034,289.5337,289.5338,0,117,117,117,1,0.082409245,0.082409245,shape_difference0,1,,TRUE,,intensity,0.1,0.05,0.7,0.3,0.82,20,400,1E-11,3.5,0.01,0.5,0.1,,,,,,,,,,,,,,,,,,,,,,,,,,,,,,,,,,,,,,,,,,,,,,,,,,,,,,,,,,,,,,,,,,,,,,,,,,,,,,,,,
,,,,,171876,001,2025-03-15_10h05.58.976,Utility_discrimination_2024_2cat,2024.2.4,Win32,59.17159763,,,,,,,,2,"[0.5,0.5]","[0.707,0.707]",s,"[0.41623959085160867,0.29792527923469025]","[0.5837604091483913,0.7020747207653097]",289.5354,291.849,1,d,1,0.7828,,0.009196247,0.270283,0.261086754,291.8514,291.8514,0,118,118,118,1,-0.218695585,-0.218695585,shape_difference3,1,,TRUE,,intensity,0.1,0.05,0.7,0.3,0.82,20,400,1E-11,3.5,0.01,0.5,0.1,,,,,,,,,,,,,,,,,,,,,,,,,,,,,,,,,,,,,,,,,,,,,,,,,,,,,,,,,,,,,,,,,,,,,,,,,,,,,,,,,
,,,,,171876,001,2025-03-15_10h05.58.976,Utility_discrimination_2024_2cat,2024.2.4,Win32,59.17159763,,,,,,,,4,"[0.5,0.5]","[0,1]",d,"[0.5905646690946206,0.5905646690946206]","[0.4094353309053794,0.4094353309053794]",291.8522,294.1157,1,s,1,0.734,,-0.675549662,-0.105978517,0.569571145,294.1175,294.1175,0,119,119,119,1,0.128097127,0.128097127,shape_difference2,1,,TRUE,,intensity,0.1,0.05,0.7,0.3,0.82,20,400,1E-11,3.5,0.01,0.5,0.1,,,,,,,,,,,,,,,,,,,,,,,,,,,,,,,,,,,,,,,,,,,,,,,,,,,,,,,,,,,,,,,,,,,,,,,,,,,,,,,,,
,,,,,171876,001,2025-03-15_10h05.58.976,Utility_discrimination_2024_2cat,2024.2.4,Win32,59.17159763,,,,,,,,3,"[0.5,0.5]","[0.383,0.924]",s,"[0.5,0.18830804769087017]","[0.5,0.8116919523091298]",294.1186,296.6826,1,s,1,1.0398,,-0.336484319,-0.110287768,0.226196551,296.6856,296.6856,0,120,120,120,1,-0.311691952,-0.311691952,shape_difference4,1,,TRUE,,intensity,0.1,0.05,0.7,0.3,0.82,20,400,1E-11,3.5,0.01,0.5,0.1,,,,,,,,,,,,,,,,,,,,,,,,,,,,,,,,,,,,,,,,,,,,,,,,,,,,,,,,,,,,,,,,,,,,,,,,,,,,,,,,,
,,,,,171876,001,2025-03-15_10h05.58.976,Utility_discrimination_2024_2cat,2024.2.4,Win32,59.17159763,,,,,,,,1,"[0.5,0.5]","[0.924,0.383]",s,"[0.41415320536686256,0.2928918061592193]","[0.5858467946331375,0.7071081938407807]",296.6864,298.8655,1,s,1,0.6591,,-0.999178956,-0.560253648,0.438925308,298.867,298.867,0,121,121,121,1,-0.224143067,-0.224143067,shape_difference3,1,,TRUE,,intensity,0.1,0.05,0.7,0.3,0.82,20,400,1E-11,3.5,0.01,0.5,0.1,,,,,,,,,,,,,,,,,,,,,,,,,,,,,,,,,,,,,,,,,,,,,,,,,,,,,,,,,,,,,,,,,,,,,,,,,,,,,,,,,
,,,,,171876,001,2025-03-15_10h05.58.976,Utility_discrimination_2024_2cat,2024.2.4,Win32,59.17159763,,,,,,,,0,"[0.5,0.5]","[1,0]",s,"[-0.1939460250622317,0.21235787056403166]","[1.1939460250622318,0.7876421294359683]",298.8678,300.9487,1,s,1,0.5583,,-0.051735987,0.189032509,0.240768496,300.9502,300.9502,0,122,122,122,1,-0.751023837,-0.751023837,shape_difference1,1,,TRUE,,intensity,0.1,0.05,0.7,0.3,0.82,20,400,1E-11,3.5,0.01,0.5,0.1,,,,,,,,,,,,,,,,,,,,,,,,,,,,,,,,,,,,,,,,,,,,,,,,,,,,,,,,,,,,,,,,,,,,,,,,,,,,,,,,,
,,,,,171876,001,2025-03-15_10h05.58.976,Utility_discrimination_2024_2cat,2024.2.4,Win32,59.17159763,,,,,,,,2,"[0.5,0.5]","[0.707,0.707]",s,"[0.5763876418851354,0.5]","[0.42361235811486464,0.5]",300.9513,303.0826,1,d,1,0.5991,,0.007877677,0.253072254,0.245194578,303.0852,303.0853,0,123,123,123,1,0.076387642,0.076387642,shape_difference0,1,,TRUE,,intensity,0.1,0.05,0.7,0.3,0.82,20,400,1E-11,3.5,0.01,0.5,0.1,,,,,,,,,,,,,,,,,,,,,,,,,,,,,,,,,,,,,,,,,,,,,,,,,,,,,,,,,,,,,,,,,,,,,,,,,,,,,,,,,
,,,,,171876,001,2025-03-15_10h05.58.976,Utility_discrimination_2024_2cat,2024.2.4,Win32,59.17159763,,,,,,,,1,"[0.5,0.5]","[0.924,0.383]",d,"[0.5822634250748154,0.5822634250748154]","[0.41773657492518457,0.41773657492518457]",303.086,305.299,1,d,1,0.6819,,-1.032935643,-0.59453384,0.438401803,305.3006,305.3007,0,124,124,124,1,0.116355622,0.116355622,shape_difference2,1,,TRUE,,intensity,0.1,0.05,0.7,0.3,0.82,20,400,1E-11,3.5,0.01,0.5,0.1,,,,,,,,,,,,,,,,,,,,,,,,,,,,,,,,,,,,,,,,,,,,,,,,,,,,,,,,,,,,,,,,,,,,,,,,,,,,,,,,,
,,,,,171876,001,2025-03-15_10h05.58.976,Utility_discrimination_2024_2cat,2024.2.4,Win32,59.17159763,,,,,,,,2,"[0.5,0.5]","[0.707,0.707]",d,"[-0.2145765211323366,0.20380648528821982]","[1.2145765211323365,0.7961935147117802]",305.3016,307.4656,1,s,1,0.6344,,0.00675075,0.231389384,0.224638634,307.4673,307.4673,0,125,125,125,1,-0.773351213,-0.773351213,shape_difference1,1,,TRUE,,intensity,0.1,0.05,0.7,0.3,0.82,20,400,1E-11,3.5,0.01,0.5,0.1,,,,,,,,,,,,,,,,,,,,,,,,,,,,,,,,,,,,,,,,,,,,,,,,,,,,,,,,,,,,,,,,,,,,,,,,,,,,,,,,,
,,,,,171876,001,2025-03-15_10h05.58.976,Utility_discrimination_2024_2cat,2024.2.4,Win32,59.17159763,,,,,,,,4,"[0.5,0.5]","[0,1]",s,"[0.572879272452599,0.572879272452599]","[0.42712072754740105,0.42712072754740105]",307.4687,309.6156,1,s,1,0.6156,,-0.693281361,-0.118057091,0.575224271,309.618,309.618,0,126,126,126,1,0.103082422,0.103082422,shape_difference2,1,,TRUE,,intensity,0.1,0.05,0.7,0.3,0.82,20,400,1E-11,3.5,0.01,0.5,0.1,,,,,,,,,,,,,,,,,,,,,,,,,,,,,,,,,,,,,,,,,,,,,,,,,,,,,,,,,,,,,,,,,,,,,,,,,,,,,,,,,
,,,,,171876,001,2025-03-15_10h05.58.976,Utility_discrimination_2024_2cat,2024.2.4,Win32,59.17159763,,,,,,,,0,"[0.5,0.5]","[1,0]",s,"[0.5,0.1513160159871404]","[0.5,0.8486839840128596]",309.6187,311.7156,1,d,1,0.5654,,-0.060395828,0.184084637,0.244480465,311.7173,311.7173,0,127,127,127,1,-0.348683984,-0.348683984,shape_difference4,1,,TRUE,,intensity,0.1,0.05,0.7,0.3,0.82,20,400,1E-11,3.5,0.01,0.5,0.1,,,,,,,,,,,,,,,,,,,,,,,,,,,,,,,,,,,,,,,,,,,,,,,,,,,,,,,,,,,,,,,,,,,,,,,,,,,,,,,,,
,,,,,171876,001,2025-03-15_10h05.58.976,Utility_discrimination_2024_2cat,2024.2.4,Win32,59.17159763,,,,,,,,3,"[0.5,0.5]","[0.383,0.924]",d,"[0.5711973304544031,0.5]","[0.42880266954559687,0.5]",311.7184,314.3322,1,d,1,1.0822,,-0.346820236,-0.115749221,0.231071015,314.3339,314.3339,0,128,128,128,1,0.07119733,0.07119733,shape_difference0,1,,TRUE,,intensity,0.1,0.05,0.7,0.3,0.82,20,400,1E-11,3.5,0.01,0.5,0.1,,,,,,,,,,,,,,,,,,,,,,,,,,,,,,,,,,,,,,,,,,,,,,,,,,,,,,,,,,,,,,,,,,,,,,,,,,,,,,,,,
,,,,,171876,001,2025-03-15_10h05.58.976,Utility_discrimination_2024_2cat,2024.2.4,Win32,59.17159763,,,,,,,,1,"[0.5,0.5]","[0.924,0.383]",d,"[0.412381851752136,0.2886183577518894]","[0.587618148247864,0.7113816422481106]",314.3354,316.499,1,d,1,0.6414,,-1.056987742,-0.612175936,0.444811805,316.5017,316.5019,0,129,129,129,1,-0.228768011,-0.228768011,shape_difference3,1,,TRUE,,intensity,0.1,0.05,0.7,0.3,0.82,20,400,1E-11,3.5,0.01,0.5,0.1,,,,,,,,,,,,,,,,,,,,,,,,,,,,,,,,,,,,,,,,,,,,,,,,,,,,,,,,,,,,,,,,,,,,,,,,,,,,,,,,,
,,,,,171876,001,2025-03-15_10h05.58.976,Utility_discrimination_2024_2cat,2024.2.4,Win32,59.17159763,,,,,,,,3,"[0.5,0.5]","[0.383,0.924]",d,"[-0.23852403691819224,0.19388018816053287]","[1.2385240369181922,0.8061198118394671]",316.5024,318.5825,1,d,1,0.5548,,-0.355051271,-0.121815158,0.233236113,318.585,318.585,0,130,130,130,1,-0.799268438,-0.799268438,shape_difference1,1,,TRUE,,intensity,0.1,0.05,0.7,0.3,0.82,20,400,1E-11,3.5,0.01,0.5,0.1,,,,,,,,,,,,,,,,,,,,,,,,,,,,,,,,,,,,,,,,,,,,,,,,,,,,,,,,,,,,,,,,,,,,,,,,,,,,,,,,,
,,,,,171876,001,2025-03-15_10h05.58.976,Utility_discrimination_2024_2cat,2024.2.4,Win32,59.17159763,,,,,,,,0,"[0.5,0.5]","[1,0]",d,"[0.4108471113904721,0.2849157465399379]","[0.5891528886095279,0.7150842534600621]",318.5861,320.699,1,d,1,0.5909,,-0.067323983,0.178481667,0.24580565,320.7008,320.7008,0,131,131,131,1,-0.232775166,-0.232775166,shape_difference3,1,,TRUE,,intensity,0.1,0.05,0.7,0.3,0.82,20,400,1E-11,3.5,0.01,0.5,0.1,,,,,,,,,,,,,,,,,,,,,,,,,,,,,,,,,,,,,,,,,,,,,,,,,,,,,,,,,,,,,,,,,,,,,,,,,,,,,,,,,
,,,,,171876,001,2025-03-15_10h05.58.976,Utility_discrimination_2024_2cat,2024.2.4,Win32,59.17159763,,,,,,,,4,"[0.5,0.5]","[0,1]",d,"[0.5666256070436745,0.5]","[0.4333743929563255,0.5]",320.7027,322.9823,1,s,1,0.754,,-0.712344016,-0.135545024,0.576798991,322.9847,322.9847,0,132,132,132,1,0.066625607,0.066625607,shape_difference0,1,,TRUE,,intensity,0.1,0.05,0.7,0.3,0.82,20,400,1E-11,3.5,0.01,0.5,0.1,,,,,,,,,,,,,,,,,,,,,,,,,,,,,,,,,,,,,,,,,,,,,,,,,,,,,,,,,,,,,,,,,,,,,,,,,,,,,,,,,
,,,,,171876,001,2025-03-15_10h05.58.976,Utility_discrimination_2024_2cat,2024.2.4,Win32,59.17159763,,,,,,,,2,"[0.5,0.5]","[0.707,0.707]",s,"[0.5,0.1178747797588855]","[0.5,0.8821252202411145]",322.9856,325.1489,1,s,1,0.6362,,0.005758662,0.203478826,0.197720163,325.151,325.151,0,133,133,133,1,-0.38212522,-0.38212522,shape_difference4,1,,TRUE,,intensity,0.1,0.05,0.7,0.3,0.82,20,400,1E-11,3.5,0.01,0.5,0.1,,,,,,,,,,,,,,,,,,,,,,,,,,,,,,,,,,,,,,,,,,,,,,,,,,,,,,,,,,,,,,,,,,,,,,,,,,,,,,,,,
,,,,,171876,001,2025-03-15_10h05.58.976,Utility_discrimination_2024_2cat,2024.2.4,Win32,59.17159763,,,,,,,,2,"[0.5,0.5]","[0.707,0.707]",s,"[0.5662130316034558,0.5662130316034558]","[0.43378696839654424,0.43378696839654424]",325.1518,327.1654,1,s,1,0.4915,,0.004856599,0.196194606,0.191338007,327.1669,327.1669,0,134,134,134,1,0.09365351,0.09365351,shape_difference2,1,,TRUE,,intensity,0.1,0.05,0.7,0.3,0.82,20,400,1E-11,3.5,0.01,0.5,0.1,,,,,,,,,,,,,,,,,,,,,,,,,,,,,,,,,,,,,,,,,,,,,,,,,,,,,,,,,,,,,,,,,,,,,,,,,,,,,,,,,
,,,,,171876,001,2025-03-15_10h05.58.976,Utility_discrimination_2024_2cat,2024.2.4,Win32,59.17159763,,,,,,,,0,"[0.5,0.5]","[1,0]",s,"[0.5614897780631235,0.5614897780631235]","[0.4385102219368765,0.4385102219368765]",327.1678,329.199,0,s,0,0.5003,,-0.072936288,0.171961672,0.24489796,329.2005,329.2005,0,135,135,135,1,0.086972812,0.086972812,shape_difference2,1,,TRUE,,intensity,0.1,0.05,0.7,0.3,0.82,20,400,1E-11,3.5,0.01,0.5,0.1,,,,,,,,,,,,,,,,,,,,,,,,,,,,,,,,,,,,,,,,,,,,,,,,,,,,,,,,,,,,,,,,,,,,,,,,,,,,,,,,,
,,,,,171876,001,2025-03-15_10h05.58.976,Utility_discrimination_2024_2cat,2024.2.4,Win32,59.17159763,,,,,,,,3,"[0.5,0.5]","[0.383,0.924]",d,"[0.5624973772271943,0.5]","[0.4375026227728057,0.5]",329.201,331.182,0,s,0,0.4543,,-0.361679055,-0.128750407,0.232928648,331.1843,331.1843,0,136,136,136,1,0.062497377,0.062497377,shape_difference0,1,,TRUE,,intensity,0.1,0.05,0.7,0.3,0.82,20,400,1E-11,3.5,0.01,0.5,0.1,,,,,,,,,,,,,,,,,,,,,,,,,,,,,,,,,,,,,,,,,,,,,,,,,,,,,,,,,,,,,,,,,,,,,,,,,,,,,,,,,
,,,,,171876,001,2025-03-15_10h05.58.976,Utility_discrimination_2024_2cat,2024.2.4,Win32,59.17159763,,,,,,,,1,"[0.5,0.5]","[0.924,0.383]",d,"[0.40948597526810476,0.281631961221224]","[0.5905140247318952,0.718368038778776]",331.1851,333.0655,1,s,1,0.356,,-1.073623271,-0.630374855,0.443248415,333.0675,333.0676,0,137,137,137,1,-0.236329046,-0.236329046,shape_difference3,1,,TRUE,,intensity,0.1,0.05,0.7,0.3,0.82,20,400,1E-11,3.5,0.01,0.5,0.1,,,,,,,,,,,,,,,,,,,,,,,,,,,,,,,,,,,,,,,,,,,,,,,,,,,,,,,,,,,,,,,,,,,,,,,,,,,,,,,,,
,,,,,171876,001,2025-03-15_10h05.58.976,Utility_discrimination_2024_2cat,2024.2.4,Win32,59.17159763,,,,,,,,4,"[0.5,0.5]","[0,1]",s,"[-0.2588265147557629,0.18546476715210264]","[1.258826514755763,0.8145352328478974]",333.0687,335.1987,1,s,1,0.6068,,-0.744386073,-0.159540019,0.584846054,335.2007,335.2007,0,138,138,138,1,-0.821240817,-0.821240817,shape_difference1,1,,TRUE,,intensity,0.1,0.05,0.7,0.3,0.82,20,400,1E-11,3.5,0.01,0.5,0.1,,,,,,,,,,,,,,,,,,,,,,,,,,,,,,,,,,,,,,,,,,,,,,,,,,,,,,,,,,,,,,,,,,,,,,,,,,,,,,,,,
,,,,,171876,001,2025-03-15_10h05.58.976,Utility_discrimination_2024_2cat,2024.2.4,Win32,59.17159763,,,,,,,,4,"[0.5,0.5]","[0,1]",s,"[0.5,0.08246961226316785]","[0.5,0.9175303877368322]",335.202,337.6155,1,s,1,0.8892,,-0.765938939,-0.197669195,0.568269744,337.6174,337.6175,0,139,139,139,1,-0.417530388,-0.417530388,shape_difference4,1,,TRUE,,intensity,0.1,0.05,0.7,0.3,0.82,20,400,1E-11,3.5,0.01,0.5,0.1,,,,,,,,,,,,,,,,,,,,,,,,,,,,,,,,,,,,,,,,,,,,,,,,,,,,,,,,,,,,,,,,,,,,,,,,,,,,,,,,,
,,,,,171876,001,2025-03-15_10h05.58.976,Utility_discrimination_2024_2cat,2024.2.4,Win32,59.17159763,,,,,,,,1,"[0.5,0.5]","[0.924,0.383]",s,"[0.5,0.054196648601633424]","[0.5,0.9458033513983666]",337.6186,339.9321,1,s,1,0.7875,,-1.08539188,-0.655527157,0.429864723,339.9353,339.9353,0,140,140,140,1,-0.445803351,-0.445803351,shape_difference4,1,,TRUE,,intensity,0.1,0.05,0.7,0.3,0.82,20,400,1E-11,3.5,0.01,0.5,0.1,,,,,,,,,,,,,,,,,,,,,,,,,,,,,,,,,,,,,,,,,,,,,,,,,,,,,,,,,,,,,,,,,,,,,,,,,,,,,,,,,
,,,,,171876,001,2025-03-15_10h05.58.976,Utility_discrimination_2024_2cat,2024.2.4,Win32,59.17159763,,,,,,,,3,"[0.5,0.5]","[0.383,0.924]",s,"[-0.27655814402093215,0.17811496844154]","[1.2765581440209322,0.82188503155846]",339.936,341.849,1,d,1,0.3831,,-0.367069874,-0.136875096,0.230194778,341.8513,341.8513,0,141,141,141,1,-0.840430892,-0.840430892,shape_difference1,1,,TRUE,,intensity,0.1,0.05,0.7,0.3,0.82,20,400,1E-11,3.5,0.01,0.5,0.1,,,,,,,,,,,,,,,,,,,,,,,,,,,,,,,,,,,,,,,,,,,,,,,,,,,,,,,,,,,,,,,,,,,,,,,,,,,,,,,,,
,,,,,171876,001,2025-03-15_10h05.58.976,Utility_discrimination_2024_2cat,2024.2.4,Win32,59.17159763,,,,,,,,0,"[0.5,0.5]","[1,0]",d,"[0.40824668803611847,0.27864214032734586]","[0.5917533119638816,0.7213578596726542]",341.8524,344.032,1,s,1,0.6572,,0.000652343,0.18881663,0.188164286,344.0345,344.0345,0,142,142,142,1,-0.239564783,-0.239564783,shape_difference3,1,,TRUE,,intensity,0.1,0.05,0.7,0.3,0.82,20,400,1E-11,3.5,0.01,0.5,0.1,,,,,,,,,,,,,,,,,,,,,,,,,,,,,,,,,,,,,,,,,,,,,,,,,,,,,,,,,,,,,,,,,,,,,,,,,,,,,,,,,
,,,,,171876,001,2025-03-15_10h05.58.976,Utility_discrimination_2024_2cat,2024.2.4,Win32,59.17159763,,,,,,,,2,"[0.5,0.5]","[0.707,0.707]",s,"[0.5800690381105426,0.5]","[0.41993096188945744,0.5]",344.0356,346.2823,1,d,1,0.7172,,0.008746929,0.237678332,0.228931402,346.2843,346.2845,0,143,143,143,1,0.080069038,0.080069038,shape_difference0,1,,TRUE,,intensity,0.1,0.05,0.7,0.3,0.82,20,400,1E-11,3.5,0.01,0.5,0.1,,,,,,,,,,,,,,,,,,,,,,,,,,,,,,,,,,,,,,,,,,,,,,,,,,,,,,,,,,,,,,,,,,,,,,,,,,,,,,,,,
,,,,,171876,001,2025-03-15_10h05.58.976,Utility_discrimination_2024_2cat,2024.2.4,Win32,59.17159763,,,,,,,,2,"[0.5,0.5]","[0.707,0.707]",d,"[0.5817113505402519,0.5817113505402519]","[0.41828864945974803,0.41828864945974803]",346.2857,348.699,1,d,1,0.8844,,0.007793238,0.213348646,0.205555408,348.7016,348.7016,0,144,144,144,1,0.115574753,0.115574753,shape_difference2,1,,TRUE,,intensity,0.1,0.05,0.7,0.3,0.82,20,400,1E-11,3.5,0.01,0.5,0.1,,,,,,,,,,,,,,,,,,,,,,,,,,,,,,,,,,,,,,,,,,,,,,,,,,,,,,,,,,,,,,,,,,,,,,,,,,,,,,,,,
,,,,,171876,001,2025-03-15_10h05.58.976,Utility_discrimination_2024_2cat,2024.2.4,Win32,59.17159763,,,,,,,,3,"[0.5,0.5]","[0.383,0.924]",d,"[0.5729231896446867,0.5729231896446867]","[0.4270768103553133,0.4270768103553133]",348.7026,350.8653,1,d,1,0.6419,,-0.371494569,-0.146585747,0.224908822,350.8673,350.8673,0,145,145,145,1,0.10314454,0.10314454,shape_difference2,1,,TRUE,,intensity,0.1,0.05,0.7,0.3,0.82,20,400,1E-11,3.5,0.01,0.5,0.1,,,,,,,,,,,,,,,,,,,,,,,,,,,,,,,,,,,,,,,,,,,,,,,,,,,,,,,,,,,,,,,,,,,,,,,,,,,,,,,,,
,,,,,171876,001,2025-03-15_10h05.58.976,Utility_discrimination_2024_2cat,2024.2.4,Win32,59.17159763,,,,,,,,4,"[0.5,0.5]","[0,1]",d,"[0.4070856469286639,0.27584109076262514]","[0.5929143530713361,0.7241589092373748]",350.8685,352.9153,1,s,1,0.5157,,-0.780845643,-0.236252368,0.544593275,352.918,352.918,0,146,146,146,1,-0.242596222,-0.242596222,shape_difference3,1,,TRUE,,intensity,0.1,0.05,0.7,0.3,0.82,20,400,1E-11,3.5,0.01,0.5,0.1,,,,,,,,,,,,,,,,,,,,,,,,,,,,,,,,,,,,,,,,,,,,,,,,,,,,,,,,,,,,,,,,,,,,,,,,,,,,,,,,,
,,,,,171876,001,2025-03-15_10h05.58.976,Utility_discrimination_2024_2cat,2024.2.4,Win32,59.17159763,,,,,,,,1,"[0.5,0.5]","[0.924,0.383]",s,"[0.5,0.02870873901029103]","[0.5,0.971291260989709]",352.9186,354.7324,1,d,1,0.2869,,-1.093910339,-0.691529007,0.402381332,354.7342,354.7343,0,147,147,147,1,-0.471291261,-0.471291261,shape_difference4,1,,TRUE,,intensity,0.1,0.05,0.7,0.3,0.82,20,400,1E-11,3.5,0.01,0.5,0.1,,,,,,,,,,,,,,,,,,,,,,,,,,,,,,,,,,,,,,,,,,,,,,,,,,,,,,,,,,,,,,,,,,,,,,,,,,,,,,,,,
,,,,,171876,001,2025-03-15_10h05.58.976,Utility_discrimination_2024_2cat,2024.2.4,Win32,59.17159763,,,,,,,,0,"[0.5,0.5]","[1,0]",d,"[-0.2928610183452114,0.17135739174651954]","[1.2928610183452114,0.8286426082534805]",354.7359,356.7822,0,d,0,0.5246,,-0.008916589,0.184650765,0.193567355,356.7838,356.7838,0,148,148,148,1,-0.858074695,-0.858074695,shape_difference1,1,,TRUE,,intensity,0.1,0.05,0.7,0.3,0.82,20,400,1E-11,3.5,0.01,0.5,0.1,,,,,,,,,,,,,,,,,,,,,,,,,,,,,,,,,,,,,,,,,,,,,,,,,,,,,,,,,,,,,,,,,,,,,,,,,,,,,,,,,
,,,,,171876,001,2025-03-15_10h05.58.976,Utility_discrimination_2024_2cat,2024.2.4,Win32,59.17159763,,,,,,,,2,"[0.5,0.5]","[0.707,0.707]",s,"[0.5754658426054263,0.5]","[0.4245341573945737,0.5]",356.7847,358.899,1,d,1,0.5832,,0.00698543,0.197972303,0.190986873,358.9014,358.9014,0,149,149,149,1,0.075465843,0.075465843,shape_difference0,1,,TRUE,,intensity,0.1,0.05,0.7,0.3,0.82,20,400,1E-11,3.5,0.01,0.5,0.1,,,,,,,,,,,,,,,,,,,,,,,,,,,,,,,,,,,,,,,,,,,,,,,,,,,,,,,,,,,,,,,,,,,,,,,,,,,,,,,,,
,,,,,171876,001,2025-03-15_10h05.58.976,Utility_discrimination_2024_2cat,2024.2.4,Win32,59.17159763,,,,,,,,1,"[0.5,0.5]","[0.924,0.383]",d,"[0.5664777858693965,0.5664777858693965]","[0.43352221413060354,0.43352221413060354]",358.9028,360.8991,0,s,0,0.4716,,-0.987787599,-0.638493285,0.349294314,360.9013,360.9013,0,150,150,150,1,0.094027986,0.094027986,shape_difference2,1,,TRUE,,intensity,0.1,0.05,0.7,0.3,0.82,20,400,1E-11,3.5,0.01,0.5,0.1,,,,,,,,,,,,,,,,,,,,,,,,,,,,,,,,,,,,,,,,,,,,,,,,,,,,,,,,,,,,,,,,,,,,,,,,,,,,,,,,,
,,,,,171876,001,2025-03-15_10h05.58.976,Utility_discrimination_2024_2cat,2024.2.4,Win32,59.17159763,,,,,,,,0,"[0.5,0.5]","[1,0]",d,"[-0.25140651688428495,0.1885403723304317]","[1.251406516884285,0.8114596276695683]",360.9022,363.0153,1,s,1,0.5846,,-0.023804728,0.179985395,0.203790123,363.0172,363.0173,0,151,151,151,1,-0.813210516,-0.813210516,shape_difference1,1,,TRUE,,intensity,0.1,0.05,0.7,0.3,0.82,20,400,1E-11,3.5,0.01,0.5,0.1,,,,,,,,,,,,,,,,,,,,,,,,,,,,,,,,,,,,,,,,,,,,,,,,,,,,,,,,,,,,,,,,,,,,,,,,,,,,,,,,,
,,,,,171876,001,2025-03-15_10h05.58.976,Utility_discrimination_2024_2cat,2024.2.4,Win32,59.17159763,,,,,,,,3,"[0.5,0.5]","[0.383,0.924]",s,"[0.571554158114013,0.5]","[0.428445841885987,0.5]",363.0182,365.2323,1,d,1,0.6916,,-0.375155909,-0.158382761,0.216773148,365.2348,365.2348,0,152,152,152,1,0.071554158,0.071554158,shape_difference0,1,,TRUE,,intensity,0.1,0.05,0.7,0.3,0.82,20,400,1E-11,3.5,0.01,0.5,0.1,,,,,,,,,,,,,,,,,,,,,,,,,,,,,,,,,,,,,,,,,,,,,,,,,,,,,,,,,,,,,,,,,,,,,,,,,,,,,,,,,
,,,,,171876,001,2025-03-15_10h05.58.976,Utility_discrimination_2024_2cat,2024.2.4,Win32,59.17159763,,,,,,,,4,"[0.5,0.5]","[0,1]",d,"[0.40596504326236754,0.27313759784445857]","[0.5940349567376324,0.7268624021555414]",365.2357,367.3323,1,d,1,0.5702,,-0.79863457,-0.283212214,0.515422356,367.3341,367.3341,0,153,153,153,1,-0.24552208,-0.24552208,shape_difference3,1,,TRUE,,intensity,0.1,0.05,0.7,0.3,0.82,20,400,1E-11,3.5,0.01,0.5,0.1,,,,,,,,,,,,,,,,,,,,,,,,,,,,,,,,,,,,,,,,,,,,,,,,,,,,,,,,,,,,,,,,,,,,,,,,,,,,,,,,,
,,,,,171876,001,2025-03-15_10h05.58.976,Utility_discrimination_2024_2cat,2024.2.4,Win32,59.17159763,,,,,,,,4,"[0.5,0.5]","[0,1]",d,"[0.5,-0.0022484979649349812]","[0.5,1.0022484979649349]",367.3352,369.6152,1,s,1,0.7596,,-0.827475059,-0.315873466,0.511601593,369.6179,369.6179,0,154,154,154,1,-0.502248498,-0.502248498,shape_difference4,1,,TRUE,,intensity,0.1,0.05,0.7,0.3,0.82,20,400,1E-11,3.5,0.01,0.5,0.1,,,,,,,,,,,,,,,,,,,,,,,,,,,,,,,,,,,,,,,,,,,,,,,,,,,,,,,,,,,,,,,,,,,,,,,,,,,,,,,,,
,,,,,171876,001,2025-03-15_10h05.58.976,Utility_discrimination_2024_2cat,2024.2.4,Win32,59.17159763,,,,,,,,0,"[0.5,0.5]","[1,0]",s,"[0.5,-0.029118144525541956]","[0.5,1.029118144525542]",369.619,372.5153,1,s,1,1.366,,-0.035768276,0.174638681,0.210406957,372.5177,372.5178,0,155,155,155,1,-0.529118145,-0.529118145,shape_difference4,1,,TRUE,,intensity,0.1,0.05,0.7,0.3,0.82,20,400,1E-11,3.5,0.01,0.5,0.1,,,,,,,,,,,,,,,,,,,,,,,,,,,,,,,,,,,,,,,,,,,,,,,,,,,,,,,,,,,,,,,,,,,,,,,,,,,,,,,,,
,,,,,171876,001,2025-03-15_10h05.58.976,Utility_discrimination_2024_2cat,2024.2.4,Win32,59.17159763,,,,,,,,1,"[0.5,0.5]","[0.924,0.383]",s,"[0.5681799020618641,0.5]","[0.4318200979381359,0.5]",372.5205,374.6154,1,s,1,0.5671,,-0.99236797,-0.662911291,0.329456679,374.618,374.618,0,156,156,156,1,0.068179902,0.068179902,shape_difference0,1,,TRUE,,intensity,0.1,0.05,0.7,0.3,0.82,20,400,1E-11,3.5,0.01,0.5,0.1,,,,,,,,,,,,,,,,,,,,,,,,,,,,,,,,,,,,,,,,,,,,,,,,,,,,,,,,,,,,,,,,,,,,,,,,,,,,,,,,,
,,,,,171876,001,2025-03-15_10h05.58.976,Utility_discrimination_2024_2cat,2024.2.4,Win32,59.17159763,,,,,,,,2,"[0.5,0.5]","[0.707,0.707]",s,"[-0.26409421592691507,0.18328129361470946]","[1.264094215926915,0.8167187063852905]",374.619,376.4824,1,d,1,0.3351,,0.010193127,0.242281313,0.232088186,376.4846,376.4848,0,157,157,157,1,-0.826941792,-0.826941792,shape_difference1,1,,TRUE,,intensity,0.1,0.05,0.7,0.3,0.82,20,400,1E-11,3.5,0.01,0.5,0.1,,,,,,,,,,,,,,,,,,,,,,,,,,,,,,,,,,,,,,,,,,,,,,,,,,,,,,,,,,,,,,,,,,,,,,,,,,,,,,,,,
,,,,,171876,001,2025-03-15_10h05.58.976,Utility_discrimination_2024_2cat,2024.2.4,Win32,59.17159763,,,,,,,,3,"[0.5,0.5]","[0.383,0.924]",d,"[0.58855469555485,0.58855469555485]","[0.41144530444515004,0.41144530444515004]",376.4855,378.7988,1,d,1,0.7919,,-0.378207574,-0.172906738,0.205300836,378.8006,378.8007,0,158,158,158,1,0.125254166,0.125254166,shape_difference2,1,,TRUE,,intensity,0.1,0.05,0.7,0.3,0.82,20,400,1E-11,3.5,0.01,0.5,0.1,,,,,,,,,,,,,,,,,,,,,,,,,,,,,,,,,,,,,,,,,,,,,,,,,,,,,,,,,,,,,,,,,,,,,,,,,,,,,,,,,
,,,,,171876,001,2025-03-15_10h05.58.976,Utility_discrimination_2024_2cat,2024.2.4,Win32,59.17159763,,,,,,,,0,"[0.5,0.5]","[1,0]",d,"[0.40485102714156657,0.2704499975947977]","[0.5951489728584334,0.7295500024052023]",378.8017,380.8987,1,s,1,0.5691,,-0.045473937,0.168391973,0.21386591,380.9003,380.9004,0,159,159,159,1,-0.248430739,-0.248430739,shape_difference3,1,,TRUE,,intensity,0.1,0.05,0.7,0.3,0.82,20,400,1E-11,3.5,0.01,0.5,0.1,,,,,,,,,,,,,,,,,,,,,,,,,,,,,,,,,,,,,,,,,,,,,,,,,,,,,,,,,,,,,,,,,,,,,,,,,,,,,,,,,
,,,,,171876,001,2025-03-15_10h05.58.976,Utility_discrimination_2024_2cat,2024.2.4,Win32,59.17159763,,,,,,,,3,"[0.5,0.5]","[0.383,0.924]",s,"[0.5652166253944259,0.5]","[0.43478337460557415,0.5]",380.9016,383.9653,0,s,0,1.5411,,-0.380767448,-0.190986974,0.189780473,383.9675,383.9675,0,160,160,160,1,0.065216625,0.065216625,shape_difference0,1,,TRUE,,intensity,0.1,0.05,0.7,0.3,0.82,20,400,1E-11,3.5,0.01,0.5,0.1,,,,,,,,,,,,,,,,,,,,,,,,,,,,,,,,,,,,,,,,,,,,,,,,,,,,,,,,,,,,,,,,,,,,,,,,,,,,,,,,,
,,,,,171876,001,2025-03-15_10h05.58.976,Utility_discrimination_2024_2cat,2024.2.4,Win32,59.17159763,,,,,,,,4,"[0.5,0.5]","[0,1]",d,"[0.40371223944096846,0.26770263510040426]","[0.5962877605590315,0.7322973648995957]",383.9685,386.0491,1,s,1,0.5608,,-0.848980825,-0.344573013,0.504407812,386.051,386.0511,0,161,161,161,1,-0.251404075,-0.251404075,shape_difference3,1,,TRUE,,intensity,0.1,0.05,0.7,0.3,0.82,20,400,1E-11,3.5,0.01,0.5,0.1,,,,,,,,,,,,,,,,,,,,,,,,,,,,,,,,,,,,,,,,,,,,,,,,,,,,,,,,,,,,,,,,,,,,,,,,,,,,,,,,,
,,,,,171876,001,2025-03-15_10h05.58.976,Utility_discrimination_2024_2cat,2024.2.4,Win32,59.17159763,,,,,,,,1,"[0.5,0.5]","[0.924,0.383]",s,"[0.5,-0.052923991964698436]","[0.5,1.0529239919646984]",386.0517,387.9654,1,s,1,0.3896,,-0.995952851,-0.69700497,0.298947881,387.9672,387.9673,0,162,162,162,1,-0.552923992,-0.552923992,shape_difference4,1,,TRUE,,intensity,0.1,0.05,0.7,0.3,0.82,20,400,1E-11,3.5,0.01,0.5,0.1,,,,,,,,,,,,,,,,,,,,,,,,,,,,,,,,,,,,,,,,,,,,,,,,,,,,,,,,,,,,,,,,,,,,,,,,,,,,,,,,,
,,,,,171876,001,2025-03-15_10h05.58.976,Utility_discrimination_2024_2cat,2024.2.4,Win32,59.17159763,,,,,,,,2,"[0.5,0.5]","[0.707,0.707]",s,"[-0.27529747017712447,0.1786375204785296]","[1.2752974701771245,0.8213624795214705]",387.9682,390.1153,1,s,1,0.6154,,0.009134834,0.220730113,0.211595279,390.1167,390.1169,0,163,163,163,1,-0.839066526,-0.839066526,shape_difference1,1,,TRUE,,intensity,0.1,0.05,0.7,0.3,0.82,20,400,1E-11,3.5,0.01,0.5,0.1,,,,,,,,,,,,,,,,,,,,,,,,,,,,,,,,,,,,,,,,,,,,,,,,,,,,,,,,,,,,,,,,,,,,,,,,,,,,,,,,,
,,,,,171876,001,2025-03-15_10h05.58.976,Utility_discrimination_2024_2cat,2024.2.4,Win32,59.17159763,,,,,,,,1,"[0.5,0.5]","[0.924,0.383]",s,"[0.5812889373863471,0.5812889373863471]","[0.4187110626136528,0.4187110626136528]",390.1175,392.2822,1,d,1,0.6374,,-0.998840579,-0.708816461,0.290024118,392.2846,392.2847,0,164,164,164,1,0.114977281,0.114977281,shape_difference2,1,,TRUE,,intensity,0.1,0.05,0.7,0.3,0.82,20,400,1E-11,3.5,0.01,0.5,0.1,,,,,,,,,,,,,,,,,,,,,,,,,,,,,,,,,,,,,,,,,,,,,,,,,,,,,,,,,,,,,,,,,,,,,,,,,,,,,,,,,
,,,,,171876,001,2025-03-15_10h05.58.976,Utility_discrimination_2024_2cat,2024.2.4,Win32,59.17159763,,,,,,,,0,"[0.5,0.5]","[1,0]",d,"[-0.28558461252810474,0.17437347770750633]","[1.2855846125281047,0.8256265222924937]",392.2856,394.0656,1,d,1,0.2553,,0.003380352,0.184490339,0.181109987,394.0681,394.0681,0,165,165,165,1,-0.850199797,-0.850199797,shape_difference1,1,,TRUE,,intensity,0.1,0.05,0.7,0.3,0.82,20,400,1E-11,3.5,0.01,0.5,0.1,,,,,,,,,,,,,,,,,,,,,,,,,,,,,,,,,,,,,,,,,,,,,,,,,,,,,,,,,,,,,,,,,,,,,,,,,,,,,,,,,
,,,,,171876,001,2025-03-15_10h05.58.976,Utility_discrimination_2024_2cat,2024.2.4,Win32,59.17159763,,,,,,,,4,"[0.5,0.5]","[0,1]",d,"[0.5774028498124949,0.5]","[0.4225971501875051,0.5]",394.0692,396.3324,0,d,0,0.74,,-0.873991152,-0.379198379,0.494792773,396.3345,396.3346,0,166,166,166,1,0.07740285,0.07740285,shape_difference0,1,,TRUE,,intensity,0.1,0.05,0.7,0.3,0.82,20,400,1E-11,3.5,0.01,0.5,0.1,,,,,,,,,,,,,,,,,,,,,,,,,,,,,,,,,,,,,,,,,,,,,,,,,,,,,,,,,,,,,,,,,,,,,,,,,,,,,,,,,
,,,,,171876,001,2025-03-15_10h05.58.976,Utility_discrimination_2024_2cat,2024.2.4,Win32,59.17159763,,,,,,,,3,"[0.5,0.5]","[0.383,0.924]",s,"[0.5,-0.07988958265778345]","[0.5,1.0798895826577835]",396.3354,398.299,1,s,1,0.4324,,-0.383438862,-0.200703387,0.182735474,398.3019,398.3019,0,167,167,167,1,-0.579889583,-0.579889583,shape_difference4,1,,TRUE,,intensity,0.1,0.05,0.7,0.3,0.82,20,400,1E-11,3.5,0.01,0.5,0.1,,,,,,,,,,,,,,,,,,,,,,,,,,,,,,,,,,,,,,,,,,,,,,,,,,,,,,,,,,,,,,,,,,,,,,,,,,,,,,,,,
,,,,,171876,001,2025-03-15_10h05.58.976,Utility_discrimination_2024_2cat,2024.2.4,Win32,59.17159763,,,,,,,,2,"[0.5,0.5]","[0.707,0.707]",s,"[0.4023140335291309,0.26432941770474405]","[0.5976859664708691,0.735670582295256]",398.3029,400.1151,1,d,1,0.282,,0.008266861,0.199247286,0.190980425,400.1165,400.1165,0,168,168,168,1,-0.255054743,-0.255054743,shape_difference3,1,,TRUE,,intensity,0.1,0.05,0.7,0.3,0.82,20,400,1E-11,3.5,0.01,0.5,0.1,,,,,,,,,,,,,,,,,,,,,,,,,,,,,,,,,,,,,,,,,,,,,,,,,,,,,,,,,,,,,,,,,,,,,,,,,,,,,,,,,
,,,,,171876,001,2025-03-15_10h05.58.976,Utility_discrimination_2024_2cat,2024.2.4,Win32,59.17159763,,,,,,,,0,"[0.5,0.5]","[1,0]",d,"[0.5729468217975875,0.5729468217975875]","[0.4270531782024125,0.4270531782024125]",400.1173,402.2822,0,d,0,0.6407,,0.007044578,0.193513182,0.186468605,402.2849,402.2849,0,169,169,169,1,0.103177966,0.103177966,shape_difference2,1,,TRUE,,intensity,0.1,0.05,0.7,0.3,0.82,20,400,1E-11,3.5,0.01,0.5,0.1,,,,,,,,,,,,,,,,,,,,,,,,,,,,,,,,,,,,,,,,,,,,,,,,,,,,,,,,,,,,,,,,,,,,,,,,,,,,,,,,,
,,,,,171876,001,2025-03-15_10h05.58.976,Utility_discrimination_2024_2cat,2024.2.4,Win32,59.17159763,,,,,,,,4,"[0.5,0.5]","[0,1]",s,"[0.5941275065266026,0.5]","[0.4058724934733974,0.5]",402.2858,404.3989,1,d,1,0.5826,,-0.890817929,-0.408790049,0.48202788,404.4005,404.4005,0,170,170,170,1,0.094127507,0.094127507,shape_difference0,1,,TRUE,,intensity,0.1,0.05,0.7,0.3,0.82,20,400,1E-11,3.5,0.01,0.5,0.1,,,,,,,,,,,,,,,,,,,,,,,,,,,,,,,,,,,,,,,,,,,,,,,,,,,,,,,,,,,,,,,,,,,,,,,,,,,,,,,,,
,,,,,171876,001,2025-03-15_10h05.58.976,Utility_discrimination_2024_2cat,2024.2.4,Win32,59.17159763,,,,,,,,3,"[0.5,0.5]","[0.383,0.924]",d,"[0.5,-0.10932631831966133]","[0.5,1.1093263183196613]",404.4015,406.3989,1,d,1,0.4682,,-0.385663337,-0.202028658,0.183634679,406.402,406.402,0,171,171,171,1,-0.609326318,-0.609326318,shape_difference4,1,,TRUE,,intensity,0.1,0.05,0.7,0.3,0.82,20,400,1E-11,3.5,0.01,0.5,0.1,,,,,,,,,,,,,,,,,,,,,,,,,,,,,,,,,,,,,,,,,,,,,,,,,,,,,,,,,,,,,,,,,,,,,,,,,,,,,,,,,
,,,,,171876,001,2025-03-15_10h05.58.976,Utility_discrimination_2024_2cat,2024.2.4,Win32,59.17159763,,,,,,,,2,"[0.5,0.5]","[0.707,0.707]",d,"[0.40071683675757264,0.2604761283655277]","[0.5992831632424274,0.7395238716344723]",406.4028,408.5155,1,s,1,0.5827,,0.01156965,0.245713391,0.23414374,408.5169,408.517,0,172,172,172,1,-0.259224969,-0.259224969,shape_difference3,1,,TRUE,,intensity,0.1,0.05,0.7,0.3,0.82,20,400,1E-11,3.5,0.01,0.5,0.1,,,,,,,,,,,,,,,,,,,,,,,,,,,,,,,,,,,,,,,,,,,,,,,,,,,,,,,,,,,,,,,,,,,,,,,,,,,,,,,,,
,,,,,171876,001,2025-03-15_10h05.58.976,Utility_discrimination_2024_2cat,2024.2.4,Win32,59.17159763,,,,,,,,1,"[0.5,0.5]","[0.924,0.383]",s,"[0.5939970896135682,0.5939970896135682]","[0.4060029103864317,0.4060029103864317]",408.5179,410.5655,1,s,1,0.518,,-1.018628399,-0.717849199,0.300779199,410.5684,410.5685,0,173,173,173,1,0.132952036,0.132952036,shape_difference2,1,,TRUE,,intensity,0.1,0.05,0.7,0.3,0.82,20,400,1E-11,3.5,0.01,0.5,0.1,,,,,,,,,,,,,,,,,,,,,,,,,,,,,,,,,,,,,,,,,,,,,,,,,,,,,,,,,,,,,,,,,,,,,,,,,,,,,,,,,
,,,,,171876,001,2025-03-15_10h05.58.976,Utility_discrimination_2024_2cat,2024.2.4,Win32,59.17159763,,,,,,,,0,"[0.5,0.5]","[1,0]",s,"[-0.2964414683667371,0.1698732874627053]","[1.2964414683667371,0.8301267125372946]",410.5696,412.6155,1,s,1,0.5213,,0.006368667,0.190639798,0.184271131,412.6173,412.6173,0,174,174,174,1,-0.861949641,-0.861949641,shape_difference1,1,,TRUE,,intensity,0.1,0.05,0.7,0.3,0.82,20,400,1E-11,3.5,0.01,0.5,0.1,,,,,,,,,,,,,,,,,,,,,,,,,,,,,,,,,,,,,,,,,,,,,,,,,,,,,,,,,,,,,,,,,,,,,,,,,,,,,,,,,
,,,,,171876,001,2025-03-15_10h05.58.976,Utility_discrimination_2024_2cat,2024.2.4,Win32,59.17159763,,,,,,,,4,"[0.5,0.5]","[0,1]",s,"[0.5878525584004393,0.5]","[0.4121474415995607,0.5]",412.6183,414.7654,1,s,1,0.6201,,-0.906880565,-0.428882508,0.477998057,414.7681,414.7681,0,175,175,175,1,0.087852558,0.087852558,shape_difference0,1,,TRUE,,intensity,0.1,0.05,0.7,0.3,0.82,20,400,1E-11,3.5,0.01,0.5,0.1,,,,,,,,,,,,,,,,,,,,,,,,,,,,,,,,,,,,,,,,,,,,,,,,,,,,,,,,,,,,,,,,,,,,,,,,,,,,,,,,,
,,,,,171876,001,2025-03-15_10h05.58.976,Utility_discrimination_2024_2cat,2024.2.4,Win32,59.17159763,,,,,,,,1,"[0.5,0.5]","[0.924,0.383]",s,"[0.5,-0.13390780794195656]","[0.5,1.1339078079419567]",414.7691,419.1322,1,d,1,2.8391,,-1.038207295,-0.729104871,0.309102424,419.1349,419.1349,0,176,176,176,1,-0.633907808,-0.633907808,shape_difference4,1,,TRUE,,intensity,0.1,0.05,0.7,0.3,0.82,20,400,1E-11,3.5,0.01,0.5,0.1,,,,,,,,,,,,,,,,,,,,,,,,,,,,,,,,,,,,,,,,,,,,,,,,,,,,,,,,,,,,,,,,,,,,,,,,,,,,,,,,,
,,,,,171876,001,2025-03-15_10h05.58.976,Utility_discrimination_2024_2cat,2024.2.4,Win32,59.17159763,,,,,,,,2,"[0.5,0.5]","[0.707,0.707]",d,"[-0.3084828493299596,0.1648821089898544]","[1.3084828493299596,0.8351178910101456]",419.1358,421.3651,1,s,1,0.7008,,0.010324925,0.226410517,0.216085591,421.3674,421.3675,0,177,177,177,1,-0.874981439,-0.874981439,shape_difference1,1,,TRUE,,intensity,0.1,0.05,0.7,0.3,0.82,20,400,1E-11,3.5,0.01,0.5,0.1,,,,,,,,,,,,,,,,,,,,,,,,,,,,,,,,,,,,,,,,,,,,,,,,,,,,,,,,,,,,,,,,,,,,,,,,,,,,,,,,,
,,,,,171876,001,2025-03-15_10h05.58.976,Utility_discrimination_2024_2cat,2024.2.4,Win32,59.17159763,,,,,,,,3,"[0.5,0.5]","[0.383,0.924]",s,"[0.5879406894223274,0.5879406894223274]","[0.4120593105776727,0.4120593105776727]",421.3684,423.9821,1,d,1,1.0841,,-0.387530183,-0.203321672,0.184208511,423.9845,423.9846,0,178,178,178,1,0.124385699,0.124385699,shape_difference2,1,,TRUE,,intensity,0.1,0.05,0.7,0.3,0.82,20,400,1E-11,3.5,0.01,0.5,0.1,,,,,,,,,,,,,,,,,,,,,,,,,,,,,,,,,,,,,,,,,,,,,,,,,,,,,,,,,,,,,,,,,,,,,,,,,,,,,,,,,
,,,,,171876,001,2025-03-15_10h05.58.976,Utility_discrimination_2024_2cat,2024.2.4,Win32,59.17159763,,,,,,,,2,"[0.5,0.5]","[0.707,0.707]",d,"[0.3988685764533848,0.2560171400598631]","[0.6011314235466152,0.7439828599401369]",423.9856,425.9986,0,d,0,0.4863,,0.009315235,0.20179835,0.192483116,426.0016,426.0017,0,179,179,179,1,-0.264050714,-0.264050714,shape_difference3,1,,TRUE,,intensity,0.1,0.05,0.7,0.3,0.82,20,400,1E-11,3.5,0.01,0.5,0.1,,,,,,,,,,,,,,,,,,,,,,,,,,,,,,,,,,,,,,,,,,,,,,,,,,,,,,,,,,,,,,,,,,,,,,,,,,,,,,,,,
,,,,,171876,001,2025-03-15_10h05.58.976,Utility_discrimination_2024_2cat,2024.2.4,Win32,59.17159763,,,,,,,,4,"[0.5,0.5]","[0,1]",s,"[0.5810337399069154,0.5810337399069154]","[0.41896626009308463,0.41896626009308463]",426.0027,428.582,0,s,0,1.0573,,-0.930155928,-0.456952456,0.473203472,428.5834,428.5834,0,180,180,180,1,0.114616322,0.114616322,shape_difference2,1,,TRUE,,intensity,0.1,0.05,0.7,0.3,0.82,20,400,1E-11,3.5,0.01,0.5,0.1,,,,,,,,,,,,,,,,,,,,,,,,,,,,,,,,,,,,,,,,,,,,,,,,,,,,,,,,,,,,,,,,,,,,,,,,,,,,,,,,,
,,,,,171876,001,2025-03-15_10h05.58.976,Utility_discrimination_2024_2cat,2024.2.4,Win32,59.17159763,,,,,,,,1,"[0.5,0.5]","[0.924,0.383]",d,"[0.5,-0.15598838068482623]","[0.5,1.1559883806848261]",428.5844,430.5154,1,s,1,0.4004,,-1.052498443,-0.743566436,0.308932007,430.5177,430.5177,0,181,181,181,1,-0.655988381,-0.655988381,shape_difference4,1,,TRUE,,intensity,0.1,0.05,0.7,0.3,0.82,20,400,1E-11,3.5,0.01,0.5,0.1,,,,,,,,,,,,,,,,,,,,,,,,,,,,,,,,,,,,,,,,,,,,,,,,,,,,,,,,,,,,,,,,,,,,,,,,,,,,,,,,,
,,,,,171876,001,2025-03-15_10h05.58.976,Utility_discrimination_2024_2cat,2024.2.4,Win32,59.17159763,,,,,,,,0,"[0.5,0.5]","[1,0]",s,"[-0.322260262714805,0.1591713413205949]","[1.322260262714805,0.8408286586794051]",430.5185,432.3321,1,d,1,0.293,,0.005764557,0.187549531,0.181784974,432.3346,432.3347,0,182,182,182,1,-0.889892059,-0.889892059,shape_difference1,1,,TRUE,,intensity,0.1,0.05,0.7,0.3,0.82,20,400,1E-11,3.5,0.01,0.5,0.1,,,,,,,,,,,,,,,,,,,,,,,,,,,,,,,,,,,,,,,,,,,,,,,,,,,,,,,,,,,,,,,,,,,,,,,,,,,,,,,,,
,,,,,171876,001,2025-03-15_10h05.58.976,Utility_discrimination_2024_2cat,2024.2.4,Win32,59.17159763,,,,,,,,3,"[0.5,0.5]","[0.383,0.924]",d,"[0.5826859462068456,0.5]","[0.41731405379315445,0.5]",432.3353,434.5653,0,s,0,0.6996,,-0.380276984,-0.200508087,0.179768896,434.567,434.5671,0,183,183,183,1,0.082685946,0.082685946,shape_difference0,1,,TRUE,,intensity,0.1,0.05,0.7,0.3,0.82,20,400,1E-11,3.5,0.01,0.5,0.1,,,,,,,,,,,,,,,,,,,,,,,,,,,,,,,,,,,,,,,,,,,,,,,,,,,,,,,,,,,,,,,,,,,,,,,,,,,,,,,,,
,,,,,171876,001,2025-03-15_10h05.58.976,Utility_discrimination_2024_2cat,2024.2.4,Win32,59.17159763,,,,,,,,4,"[0.5,0.5]","[0,1]",d,"[0.4035596467316515,0.2673345002089974]","[0.5964403532683484,0.7326654997910026]",434.568,437.3151,1,d,1,1.2164,,-0.957993152,-0.491569145,0.466424007,437.3169,437.3169,0,184,184,184,1,-0.251802489,-0.251802489,shape_difference3,1,,TRUE,,intensity,0.1,0.05,0.7,0.3,0.82,20,400,1E-11,3.5,0.01,0.5,0.1,,,,,,,,,,,,,,,,,,,,,,,,,,,,,,,,,,,,,,,,,,,,,,,,,,,,,,,,,,,,,,,,,,,,,,,,,,,,,,,,,
,,,,,171876,001,2025-03-15_10h05.58.976,Utility_discrimination_2024_2cat,2024.2.4,Win32,59.17159763,,,,,,,,2,"[0.5,0.5]","[0.707,0.707]",d,"[0.5,-0.18136877612620605]","[0.5,1.181368776126206]",437.3184,440.4322,1,s,1,1.5867,,0.013096778,0.248241641,0.235144863,440.4337,440.4337,0,185,185,185,1,-0.681368776,-0.681368776,shape_difference4,1,,TRUE,,intensity,0.1,0.05,0.7,0.3,0.82,20,400,1E-11,3.5,0.01,0.5,0.1,,,,,,,,,,,,,,,,,,,,,,,,,,,,,,,,,,,,,,,,,,,,,,,,,,,,,,,,,,,,,,,,,,,,,,,,,,,,,,,,,
,,,,,171876,001,2025-03-15_10h05.58.976,Utility_discrimination_2024_2cat,2024.2.4,Win32,59.17159763,,,,,,,,1,"[0.5,0.5]","[0.924,0.383]",s,"[0.5983682816067711,0.5983682816067711]","[0.4016317183932289,0.4016317183932289]",440.4348,444.2317,1,d,1,2.2656,,-1.063105744,-0.762643873,0.300461871,444.2337,444.2337,0,186,186,186,1,0.139134769,0.139134769,shape_difference2,1,,TRUE,,intensity,0.1,0.05,0.7,0.3,0.82,20,400,1E-11,3.5,0.01,0.5,0.1,,,,,,,,,,,,,,,,,,,,,,,,,,,,,,,,,,,,,,,,,,,,,,,,,,,,,,,,,,,,,,,,,,,,,,,,,,,,,,,,,
,,,,,171876,001,2025-03-15_10h05.58.976,Utility_discrimination_2024_2cat,2024.2.4,Win32,59.17159763,,,,,,,,0,"[0.5,0.5]","[1,0]",d,"[-0.3359808331853984,0.15348413516232945]","[1.3359808331853984,0.8465158648376705]",444.2346,447.0322,1,s,1,1.2666,,0.008303405,0.194943095,0.18663969,447.034,447.0341,0,187,187,187,1,-0.904741161,-0.904741161,shape_difference1,1,,TRUE,,intensity,0.1,0.05,0.7,0.3,0.82,20,400,1E-11,3.5,0.01,0.5,0.1,,,,,,,,,,,,,,,,,,,,,,,,,,,,,,,,,,,,,,,,,,,,,,,,,,,,,,,,,,,,,,,,,,,,,,,,,,,,,,,,,
,,,,,171876,001,2025-03-15_10h05.58.976,Utility_discrimination_2024_2cat,2024.2.4,Win32,59.17159763,,,,,,,,3,"[0.5,0.5]","[0.383,0.924]",s,"[0.6033126244262761,0.5]","[0.39668737557372397,0.5]",447.0351,449.1821,1,s,1,0.6159,,-0.382891474,-0.201718398,0.181173076,449.1841,449.1841,0,188,188,188,1,0.103312624,0.103312624,shape_difference0,1,,TRUE,,intensity,0.1,0.05,0.7,0.3,0.82,20,400,1E-11,3.5,0.01,0.5,0.1,,,,,,,,,,,,,,,,,,,,,,,,,,,,,,,,,,,,,,,,,,,,,,,,,,,,,,,,,,,,,,,,,,,,,,,,,,,,,,,,,
,,,,,171876,001,2025-03-15_10h05.58.976,Utility_discrimination_2024_2cat,2024.2.4,Win32,59.17159763,,,,,,,,2,"[0.5,0.5]","[0.707,0.707]",s,"[0.40223513685027973,0.2641390768920586]","[0.5977648631497203,0.7358609231079414]",449.1847,450.9817,1,d,1,0.2773,,0.011602108,0.230787206,0.219185098,450.9843,450.9843,0,189,189,189,1,-0.255260739,-0.255260739,shape_difference3,1,,TRUE,,intensity,0.1,0.05,0.7,0.3,0.82,20,400,1E-11,3.5,0.01,0.5,0.1,,,,,,,,,,,,,,,,,,,,,,,,,,,,,,,,,,,,,,,,,,,,,,,,,,,,,,,,,,,,,,,,,,,,,,,,,,,,,,,,,
,,,,,171876,001,2025-03-15_10h05.58.976,Utility_discrimination_2024_2cat,2024.2.4,Win32,59.17159763,,,,,,,,1,"[0.5,0.5]","[0.924,0.383]",d,"[0.5932923661140964,0.5932923661140964]","[0.40670763388590353,0.40670763388590353]",450.9851,453.0816,1,d,1,0.5754,,-1.071114765,-0.788379514,0.282735251,453.083,453.083,0,190,190,190,1,0.131955256,0.131955256,shape_difference2,1,,TRUE,,intensity,0.1,0.05,0.7,0.3,0.82,20,400,1E-11,3.5,0.01,0.5,0.1,,,,,,,,,,,,,,,,,,,,,,,,,,,,,,,,,,,,,,,,,,,,,,,,,,,,,,,,,,,,,,,,,,,,,,,,,,,,,,,,,
,,,,,171876,001,2025-03-15_10h05.58.976,Utility_discrimination_2024_2cat,2024.2.4,Win32,59.17159763,,,,,,,,0,"[0.5,0.5]","[1,0]",d,"[-0.3456250476479623,0.14948658739267368]","[1.3456250476479623,0.8505134126073264]",453.0836,454.9323,1,d,1,0.32,,0.007602832,0.192462238,0.184859406,454.9352,454.9353,0,191,191,191,1,-0.915178623,-0.915178623,shape_difference1,1,,TRUE,,intensity,0.1,0.05,0.7,0.3,0.82,20,400,1E-11,3.5,0.01,0.5,0.1,,,,,,,,,,,,,,,,,,,,,,,,,,,,,,,,,,,,,,,,,,,,,,,,,,,,,,,,,,,,,,,,,,,,,,,,,,,,,,,,,
