Consent.started,Consent.stopped,key_resp.keys,key_resp.rt,key_resp.duration,participant,session,date,expName,psychopyVersion,OS,frameRate,SetupExperiment.started,SetupExperiment.stopped,DiscrimInstructions_Pre.started,DiscrimInstructions_Pre.stopped,KeyboardResponse.keys,KeyboardResponse.rt,KeyboardResponse.duration,feature_index,feature_center,feature_vector,correct_answer,coord1,coord2,DiscriminationTrial.started,DiscriminationTrial.stopped,PreTest.response,Resp_s_or_d.keys,Resp_s_or_d.corr,Resp_s_or_d.rt,Resp_s_or_d.duration,PreTest.CI_lower,PreTest.CI_upper,PreTest.CI_width,CrashPretest_2.started,CrashPretest_2.stopped,PreTest.thisRepN,PreTest.thisTrialN,PreTest.thisN,PreTest.thisIndex,PreTest.ran,PreTest.intensity,intensity,PreTest.label,PreTest.nReps,PreTest.method,PreTest.autoLog,PreTest.seed,PreTest.varName,PreTest.startVal,PreTest.minVal,PreTest.maxVal,PreTest.startValSd,PreTest.pThreshold,PreTest.nTrials,PreTest.maxTrials,PreTest.stopInterval,PreTest.beta,PreTest.delta,PreTest.gamma,PreTest.grain,WelcomeToCategorizationTask.started,WelcomeToCategorizationTask.stopped,PressAnyKey3.keys,PressAnyKey3.rt,PressAnyKey3.duration,shape_coordinates,category_center,category_sigma,subspace_center,subspace_vector1,subspace_vector2,CategorizationTrial.started,CategorizationTrial.stopped,Respond_1or2.keys,Respond_1or2.rt,Respond_1or2.duration,Feedback.started,Feedback.stopped,xcoord,ycoord,shape_coord,numeric_response_minus1,correctness,truecategory,mixture_index,respAifA,respBifA,respAifB,respBifB,trial_number,D,muAx,muAy,muBx,muBy,sigmaA,sigmaB,priorA,priorB,TrialLoop.thisRepN,TrialLoop.thisTrialN,TrialLoop.thisN,TrialLoop.thisIndex,TrialLoop.ran,DiscriminationInstructions_Post.started,DiscriminationInstructions_Post.stopped,key_resp_2.keys,key_resp_2.rt,key_resp_2.duration,PostTest.response,PostTest.CI_lower,PostTest.CI_upper,PostTest.CI_width,CrashPosttest.started,CrashPosttest.stopped,PostTest.thisRepN,PostTest.thisTrialN,PostTest.thisN,PostTest.thisIndex,PostTest.ran,PostTest.intensity,PostTest.label,PostTest.nReps,PostTest.method,PostTest.autoLog,PostTest.seed,PostTest.varName,PostTest.startVal,PostTest.minVal,PostTest.maxVal,PostTest.startValSd,PostTest.pThreshold,PostTest.nTrials,PostTest.maxTrials,PostTest.stopInterval,PostTest.beta,PostTest.delta,PostTest.gamma,PostTest.grain,Thanks.started,Thanks.stopped
0.0002,16.3604,y,16.3375,,197640,001,2025-03-14_12h20.24.150,Utility_discrimination_2024_2cat,2024.2.4,MacIntel,61.34969325,,,,,,,,,,,,,,,,,,,,,,,,,,,,,,,,,,,,,,,,,,,,,,,,,,,,,,,,,,,,,,,,,,,,,,,,,,,,,,,,,,,,,,,,,,,,,,,,,,,,,,,,,,,,,,,,,,,,,,,,,,,,,,,,,,,
,,,,,197640,001,2025-03-14_12h20.24.150,Utility_discrimination_2024_2cat,2024.2.4,MacIntel,61.34969325,16.3607,16.3609,,,,,,,,,,,,,,,,,,,,,,,,,,,,,,,,,,,,,,,,,,,,,,,,,,,,,,,,,,,,,,,,,,,,,,,,,,,,,,,,,,,,,,,,,,,,,,,,,,,,,,,,,,,,,,,,,,,,,,,,,,,,,,,,,
,,,,,197640,001,2025-03-14_12h20.24.150,Utility_discrimination_2024_2cat,2024.2.4,MacIntel,61.34969325,,,16.361,81.9442,space,65.5518,,,,,,,,,,,,,,,,,,,,,,,,,,,,,,,,,,,,,,,,,,,,,,,,,,,,,,,,,,,,,,,,,,,,,,,,,,,,,,,,,,,,,,,,,,,,,,,,,,,,,,,,,,,,,,,,,,,,,,,,,,,,,
,,,,,197640,001,2025-03-14_12h20.24.150,Utility_discrimination_2024_2cat,2024.2.4,MacIntel,61.34969325,,,,,,,,0,"[0.5,0.5]","[1,0]",,"[0.6185239449756466,0.5]","[0.3814760550243534,0.5]",81.976,85.5608,0,s,0,2.0751,,-0.447967632,0.547967632,0.995935263,85.5652,85.5653,0,0,0,0,1,0.118523945,0.118523945,shape_difference3,1,,TRUE,,intensity,0.1,0.05,0.7,0.3,0.82,20,400,1E-11,3.5,0.01,0.5,0.1,,,,,,,,,,,,,,,,,,,,,,,,,,,,,,,,,,,,,,,,,,,,,,,,,,,,,,,,,,,,,,,,,,,,,,,,,,,,,,,,,
,,,,,197640,001,2025-03-14_12h20.24.150,Utility_discrimination_2024_2cat,2024.2.4,MacIntel,61.34969325,,,,,,,,1,"[0.5,0.5]","[0.924,0.383]",d,"[0.6185239449756466,0.5]","[0.3814760550243534,0.5]",85.5666,88.4769,1,s,1,1.3928,,-0.447967632,0.547967632,0.995935263,88.4802,88.4802,0,1,1,1,1,0.118523945,0.118523945,shape_difference0,1,,TRUE,,intensity,0.1,0.05,0.7,0.3,0.82,20,400,1E-11,3.5,0.01,0.5,0.1,,,,,,,,,,,,,,,,,,,,,,,,,,,,,,,,,,,,,,,,,,,,,,,,,,,,,,,,,,,,,,,,,,,,,,,,,,,,,,,,,
,,,,,197640,001,2025-03-14_12h20.24.150,Utility_discrimination_2024_2cat,2024.2.4,MacIntel,61.34969325,,,,,,,,4,"[0.5,0.5]","[0,1]",s,"[0.6095161251574974,0.5453946709256726]","[0.3904838748425025,0.4546053290743273]",88.4813,91.0925,0,s,0,1.0835,,-0.447967632,0.547967632,0.995935263,91.0956,91.0956,0,2,2,2,1,0.118523945,0.118523945,shape_difference1,1,,TRUE,,intensity,0.1,0.05,0.7,0.3,0.82,20,400,1E-11,3.5,0.01,0.5,0.1,,,,,,,,,,,,,,,,,,,,,,,,,,,,,,,,,,,,,,,,,,,,,,,,,,,,,,,,,,,,,,,,,,,,,,,,,,,,,,,,,
,,,,,197640,001,2025-03-14_12h20.24.150,Utility_discrimination_2024_2cat,2024.2.4,MacIntel,61.34969325,,,,,,,,2,"[0.5,0.5]","[0.707,0.707]",d,"[0.5,0.6185239449756466]","[0.5,0.3814760550243534]",91.0967,93.6759,0,s,0,1.0494,,-0.447967632,0.547967632,0.995935263,93.6802,93.6803,0,3,3,3,1,0.118523945,0.118523945,shape_difference4,1,,TRUE,,intensity,0.1,0.05,0.7,0.3,0.82,20,400,1E-11,3.5,0.01,0.5,0.1,,,,,,,,,,,,,,,,,,,,,,,,,,,,,,,,,,,,,,,,,,,,,,,,,,,,,,,,,,,,,,,,,,,,,,,,,,,,,,,,,
,,,,,197640,001,2025-03-14_12h20.24.150,Utility_discrimination_2024_2cat,2024.2.4,MacIntel,61.34969325,,,,,,,,3,"[0.5,0.5]","[0.383,0.924]",d,"[0.5837964290977822,0.5837964290977822]","[0.4162035709022178,0.4162035709022178]",93.6813,96.2936,0,s,0,1.0817,,0.008797352,0.664308158,0.655510806,96.2973,96.2973,0,4,4,4,1,0.118523945,0.118523945,shape_difference2,1,,TRUE,,intensity,0.1,0.05,0.7,0.3,0.82,20,400,1E-11,3.5,0.01,0.5,0.1,,,,,,,,,,,,,,,,,,,,,,,,,,,,,,,,,,,,,,,,,,,,,,,,,,,,,,,,,,,,,,,,,,,,,,,,,,,,,,,,,
,,,,,197640,001,2025-03-14_12h20.24.150,Utility_discrimination_2024_2cat,2024.2.4,MacIntel,61.34969325,,,,,,,,2,"[0.5,0.5]","[0.707,0.707]",d,"[0.6243672079123823,0.8000399480706037]","[0.37563279208761774,0.19996005192939625]",96.2985,98.9269,1,d,1,1.0998,,0.008797352,0.664308158,0.655510806,98.9307,98.9307,0,5,5,5,1,0.324718559,0.324718559,shape_difference3,1,,TRUE,,intensity,0.1,0.05,0.7,0.3,0.82,20,400,1E-11,3.5,0.01,0.5,0.1,,,,,,,,,,,,,,,,,,,,,,,,,,,,,,,,,,,,,,,,,,,,,,,,,,,,,,,,,,,,,,,,,,,,,,,,,,,,,,,,,
,,,,,197640,001,2025-03-14_12h20.24.150,Utility_discrimination_2024_2cat,2024.2.4,MacIntel,61.34969325,,,,,,,,0,"[0.5,0.5]","[1,0]",d,"[0.7295760208722043,0.7295760208722043]","[0.2704239791277957,0.2704239791277957]",98.9315,101.3435,1,d,1,0.8803,,-0.479157219,0.478510979,0.957668197,101.3472,101.3473,0,6,6,6,1,0.324718559,0.324718559,shape_difference2,1,,TRUE,,intensity,0.1,0.05,0.7,0.3,0.82,20,400,1E-11,3.5,0.01,0.5,0.1,,,,,,,,,,,,,,,,,,,,,,,,,,,,,,,,,,,,,,,,,,,,,,,,,,,,,,,,,,,,,,,,,,,,,,,,,,,,,,,,,
,,,,,197640,001,2025-03-14_12h20.24.150,Utility_discrimination_2024_2cat,2024.2.4,MacIntel,61.34969325,,,,,,,,4,"[0.5,0.5]","[0,1]",d,"[0.5370015867235566,0.5]","[0.4629984132764434,0.5]",101.3481,103.7102,0,s,0,0.8338,,0.008797352,0.664308158,0.655510806,103.7129,103.7129,0,7,7,7,1,0.037001587,0.037001587,shape_difference0,1,,TRUE,,intensity,0.1,0.05,0.7,0.3,0.82,20,400,1E-11,3.5,0.01,0.5,0.1,,,,,,,,,,,,,,,,,,,,,,,,,,,,,,,,,,,,,,,,,,,,,,,,,,,,,,,,,,,,,,,,,,,,,,,,,,,,,,,,,
,,,,,197640,001,2025-03-14_12h20.24.150,Utility_discrimination_2024_2cat,2024.2.4,MacIntel,61.34969325,,,,,,,,1,"[0.5,0.5]","[0.924,0.383]",d,"[0.5,0.8247185585179694]","[0.5,0.17528144148203062]",103.7137,105.9425,1,s,1,0.6995,,0.008797352,0.664308158,0.655510806,105.9462,105.9463,0,8,8,8,1,0.324718559,0.324718559,shape_difference4,1,,TRUE,,intensity,0.1,0.05,0.7,0.3,0.82,20,400,1E-11,3.5,0.01,0.5,0.1,,,,,,,,,,,,,,,,,,,,,,,,,,,,,,,,,,,,,,,,,,,,,,,,,,,,,,,,,,,,,,,,,,,,,,,,,,,,,,,,,
,,,,,197640,001,2025-03-14_12h20.24.150,Utility_discrimination_2024_2cat,2024.2.4,MacIntel,61.34969325,,,,,,,,3,"[0.5,0.5]","[0.383,0.924]",s,"[0.8000399480706037,0.6243672079123823]","[0.19996005192939625,0.37563279208761774]",105.9473,108.01,1,d,1,0.5333,,-0.003741292,0.604569979,0.608311271,108.0123,108.0123,0,9,9,9,1,0.324718559,0.324718559,shape_difference1,1,,TRUE,,intensity,0.1,0.05,0.7,0.3,0.82,20,400,1E-11,3.5,0.01,0.5,0.1,,,,,,,,,,,,,,,,,,,,,,,,,,,,,,,,,,,,,,,,,,,,,,,,,,,,,,,,,,,,,,,,,,,,,,,,,,,,,,,,,
,,,,,197640,001,2025-03-14_12h20.24.150,Utility_discrimination_2024_2cat,2024.2.4,MacIntel,61.34969325,,,,,,,,4,"[0.5,0.5]","[0,1]",d,"[0.6052550436813765,0.7539312280981512]","[0.3947449563186235,0.2460687719018489]",108.0132,110.4434,1,s,1,0.9002,,-0.003741292,0.604569979,0.608311271,110.4471,110.4471,0,10,10,10,1,0.274817346,0.274817346,shape_difference3,1,,TRUE,,intensity,0.1,0.05,0.7,0.3,0.82,20,400,1E-11,3.5,0.01,0.5,0.1,,,,,,,,,,,,,,,,,,,,,,,,,,,,,,,,,,,,,,,,,,,,,,,,,,,,,,,,,,,,,,,,,,,,,,,,,,,,,,,,,
,,,,,197640,001,2025-03-14_12h20.24.150,Utility_discrimination_2024_2cat,2024.2.4,MacIntel,61.34969325,,,,,,,,0,"[0.5,0.5]","[1,0]",s,"[0.5,0.7748173464265704]","[0.5,0.22518265357342954]",110.448,112.7267,1,s,1,0.7598,,-0.090065158,0.591798206,0.681863364,112.7289,112.7289,0,11,11,11,1,0.274817346,0.274817346,shape_difference4,1,,TRUE,,intensity,0.1,0.05,0.7,0.3,0.82,20,400,1E-11,3.5,0.01,0.5,0.1,,,,,,,,,,,,,,,,,,,,,,,,,,,,,,,,,,,,,,,,,,,,,,,,,,,,,,,,,,,,,,,,,,,,,,,,,,,,,,,,,
,,,,,197640,001,2025-03-14_12h20.24.150,Utility_discrimination_2024_2cat,2024.2.4,MacIntel,61.34969325,,,,,,,,2,"[0.5,0.5]","[0.707,0.707]",s,"[0.7256621725789216,0.5]","[0.2743378274210784,0.5]",112.7297,114.9766,1,s,1,0.7159,,-0.003741292,0.604569979,0.608311271,114.9805,114.9805,0,12,12,12,1,0.225662173,0.225662173,shape_difference0,1,,TRUE,,intensity,0.1,0.05,0.7,0.3,0.82,20,400,1E-11,3.5,0.01,0.5,0.1,,,,,,,,,,,,,,,,,,,,,,,,,,,,,,,,,,,,,,,,,,,,,,,,,,,,,,,,,,,,,,,,,,,,,,,,,,,,,,,,,
,,,,,197640,001,2025-03-14_12h20.24.150,Utility_discrimination_2024_2cat,2024.2.4,MacIntel,61.34969325,,,,,,,,1,"[0.5,0.5]","[0.924,0.383]",s,"[0.6942958639235853,0.6942958639235853]","[0.30570413607641467,0.30570413607641467]",114.9814,117.1934,1,d,1,0.6831,,-0.003741292,0.604569979,0.608311271,117.1963,117.1963,0,13,13,13,1,0.274817346,0.274817346,shape_difference2,1,,TRUE,,intensity,0.1,0.05,0.7,0.3,0.82,20,400,1E-11,3.5,0.01,0.5,0.1,,,,,,,,,,,,,,,,,,,,,,,,,,,,,,,,,,,,,,,,,,,,,,,,,,,,,,,,,,,,,,,,,,,,,,,,,,,,,,,,,
,,,,,197640,001,2025-03-14_12h20.24.150,Utility_discrimination_2024_2cat,2024.2.4,MacIntel,61.34969325,,,,,,,,1,"[0.5,0.5]","[0.924,0.383]",d,"[0.7539312280981512,0.6052550436813765]","[0.2460687719018489,0.3947449563186235]",117.1972,119.5933,1,s,1,0.8661,,-0.026700702,0.552121039,0.578821741,119.5967,119.5967,0,14,14,14,1,0.274817346,0.274817346,shape_difference1,1,,TRUE,,intensity,0.1,0.05,0.7,0.3,0.82,20,400,1E-11,3.5,0.01,0.5,0.1,,,,,,,,,,,,,,,,,,,,,,,,,,,,,,,,,,,,,,,,,,,,,,,,,,,,,,,,,,,,,,,,,,,,,,,,,,,,,,,,,
,,,,,197640,001,2025-03-14_12h20.24.150,Utility_discrimination_2024_2cat,2024.2.4,MacIntel,61.34969325,,,,,,,,2,"[0.5,0.5]","[0.707,0.707]",s,"[0.7182179619957938,0.5904518175805076]","[0.2817820380042062,0.4095481824194924]",119.5975,122.3093,1,d,1,1.1827,,-0.026700702,0.552121039,0.578821741,122.3124,122.3124,0,15,15,15,1,0.236166626,0.236166626,shape_difference1,1,,TRUE,,intensity,0.1,0.05,0.7,0.3,0.82,20,400,1E-11,3.5,0.01,0.5,0.1,,,,,,,,,,,,,,,,,,,,,,,,,,,,,,,,,,,,,,,,,,,,,,,,,,,,,,,,,,,,,,,,,,,,,,,,,,,,,,,,,
,,,,,197640,001,2025-03-14_12h20.24.150,Utility_discrimination_2024_2cat,2024.2.4,MacIntel,61.34969325,,,,,,,,0,"[0.5,0.5]","[1,0]",d,"[0.6669698042543574,0.6669698042543574]","[0.33303019574564263,0.33303019574564263]",122.3133,124.6766,1,s,1,0.8327,,-0.09936101,0.537490534,0.636851544,124.6799,124.68,0,16,16,16,1,0.236166626,0.236166626,shape_difference2,1,,TRUE,,intensity,0.1,0.05,0.7,0.3,0.82,20,400,1E-11,3.5,0.01,0.5,0.1,,,,,,,,,,,,,,,,,,,,,,,,,,,,,,,,,,,,,,,,,,,,,,,,,,,,,,,,,,,,,,,,,,,,,,,,,,,,,,,,,
,,,,,197640,001,2025-03-14_12h20.24.150,Utility_discrimination_2024_2cat,2024.2.4,MacIntel,61.34969325,,,,,,,,4,"[0.5,0.5]","[0,1]",s,"[0.6717231163357056,0.5]","[0.3282768836642944,0.5]",124.6809,126.8593,1,s,1,0.6518,,-0.026700702,0.552121039,0.578821741,126.8615,126.8615,0,17,17,17,1,0.171723116,0.171723116,shape_difference0,1,,TRUE,,intensity,0.1,0.05,0.7,0.3,0.82,20,400,1E-11,3.5,0.01,0.5,0.1,,,,,,,,,,,,,,,,,,,,,,,,,,,,,,,,,,,,,,,,,,,,,,,,,,,,,,,,,,,,,,,,,,,,,,,,,,,,,,,,,
,,,,,197640,001,2025-03-14_12h20.24.150,Utility_discrimination_2024_2cat,2024.2.4,MacIntel,61.34969325,,,,,,,,3,"[0.5,0.5]","[0.383,0.924]",s,"[0.5,0.7361666255365733]","[0.5,0.26383337446342664]",126.8623,129.2932,1,d,1,0.9017,,-0.026700702,0.552121039,0.578821741,129.2964,129.2964,0,18,18,18,1,0.236166626,0.236166626,shape_difference4,1,,TRUE,,intensity,0.1,0.05,0.7,0.3,0.82,20,400,1E-11,3.5,0.01,0.5,0.1,,,,,,,,,,,,,,,,,,,,,,,,,,,,,,,,,,,,,,,,,,,,,,,,,,,,,,,,,,,,,,,,,,,,,,,,,,,,,,,,,
,,,,,197640,001,2025-03-14_12h20.24.150,Utility_discrimination_2024_2cat,2024.2.4,MacIntel,61.34969325,,,,,,,,1,"[0.5,0.5]","[0.924,0.383]",d,"[0.5904518175805076,0.7182179619957938]","[0.4095481824194924,0.2817820380042062]",129.2973,131.66,1,d,1,0.8338,,-0.050981617,0.494068035,0.545049652,131.6629,131.6629,0,19,19,19,1,0.236166626,0.236166626,shape_difference3,1,,TRUE,,intensity,0.1,0.05,0.7,0.3,0.82,20,400,1E-11,3.5,0.01,0.5,0.1,,,,,,,,,,,,,,,,,,,,,,,,,,,,,,,,,,,,,,,,,,,,,,,,,,,,,,,,,,,,,,,,,,,,,,,,,,,,,,,,,
,,,,,197640,001,2025-03-14_12h20.24.150,Utility_discrimination_2024_2cat,2024.2.4,MacIntel,61.34969325,,,,,,,,0,"[0.5,0.5]","[1,0]",d,"[0.6817646943115111,0.5753418592221956]","[0.3182353056884889,0.4246581407778044]",131.6637,134.2432,1,s,1,1.0485,,-0.120490743,0.470685176,0.591175919,134.2464,134.2465,0,20,20,20,1,0.196715037,0.196715037,shape_difference1,1,,TRUE,,intensity,0.1,0.05,0.7,0.3,0.82,20,400,1E-11,3.5,0.01,0.5,0.1,,,,,,,,,,,,,,,,,,,,,,,,,,,,,,,,,,,,,,,,,,,,,,,,,,,,,,,,,,,,,,,,,,,,,,,,,,,,,,,,,
,,,,,197640,001,2025-03-14_12h20.24.150,Utility_discrimination_2024_2cat,2024.2.4,MacIntel,61.34969325,,,,,,,,3,"[0.5,0.5]","[0.383,0.924]",s,"[0.6306116159745301,0.5]","[0.3693883840254699,0.5]",134.2473,136.4931,1,s,1,0.7196,,-0.050981617,0.494068035,0.545049652,136.4959,136.4959,0,21,21,21,1,0.130611616,0.130611616,shape_difference0,1,,TRUE,,intensity,0.1,0.05,0.7,0.3,0.82,20,400,1E-11,3.5,0.01,0.5,0.1,,,,,,,,,,,,,,,,,,,,,,,,,,,,,,,,,,,,,,,,,,,,,,,,,,,,,,,,,,,,,,,,,,,,,,,,,,,,,,,,,
,,,,,197640,001,2025-03-14_12h20.24.150,Utility_discrimination_2024_2cat,2024.2.4,MacIntel,61.34969325,,,,,,,,4,"[0.5,0.5]","[0,1]",s,"[0.5753418592221956,0.6817646943115111]","[0.4246581407778044,0.3182353056884889]",136.4972,138.7089,1,d,1,0.6821,,-0.050981617,0.494068035,0.545049652,138.7119,138.712,0,22,22,22,1,0.196715037,0.196715037,shape_difference3,1,,TRUE,,intensity,0.1,0.05,0.7,0.3,0.82,20,400,1E-11,3.5,0.01,0.5,0.1,,,,,,,,,,,,,,,,,,,,,,,,,,,,,,,,,,,,,,,,,,,,,,,,,,,,,,,,,,,,,,,,,,,,,,,,,,,,,,,,,
,,,,,197640,001,2025-03-14_12h20.24.150,Utility_discrimination_2024_2cat,2024.2.4,MacIntel,61.34969325,,,,,,,,2,"[0.5,0.5]","[0.707,0.707]",d,"[0.5,0.69671503713367]","[0.5,0.30328496286633]",138.7127,141.0932,1,s,1,0.8495,,-0.050981617,0.494068035,0.545049652,141.0966,141.0967,0,23,23,23,1,0.196715037,0.196715037,shape_difference4,1,,TRUE,,intensity,0.1,0.05,0.7,0.3,0.82,20,400,1E-11,3.5,0.01,0.5,0.1,,,,,,,,,,,,,,,,,,,,,,,,,,,,,,,,,,,,,,,,,,,,,,,,,,,,,,,,,,,,,,,,,,,,,,,,,,,,,,,,,
,,,,,197640,001,2025-03-14_12h20.24.150,Utility_discrimination_2024_2cat,2024.2.4,MacIntel,61.34969325,,,,,,,,3,"[0.5,0.5]","[0.383,0.924]",s,"[0.6390775312535046,0.6390775312535046]","[0.3609224687464953,0.3609224687464953]",141.0975,143.6098,1,s,1,0.9828,,-0.067097964,0.445046575,0.512144539,143.6128,143.6128,0,24,24,24,1,0.196715037,0.196715037,shape_difference2,1,,TRUE,,intensity,0.1,0.05,0.7,0.3,0.82,20,400,1E-11,3.5,0.01,0.5,0.1,,,,,,,,,,,,,,,,,,,,,,,,,,,,,,,,,,,,,,,,,,,,,,,,,,,,,,,,,,,,,,,,,,,,,,,,,,,,,,,,,
,,,,,197640,001,2025-03-14_12h20.24.150,Utility_discrimination_2024_2cat,2024.2.4,MacIntel,61.34969325,,,,,,,,1,"[0.5,0.5]","[0.924,0.383]",s,"[0.5651464676424028,0.657167979377494]","[0.43485353235759716,0.34283202062250595]",143.6136,145.8922,1,s,1,0.7491,,-0.067097964,0.445046575,0.512144539,145.8954,145.8954,0,25,25,25,1,0.170095216,0.170095216,shape_difference3,1,,TRUE,,intensity,0.1,0.05,0.7,0.3,0.82,20,400,1E-11,3.5,0.01,0.5,0.1,,,,,,,,,,,,,,,,,,,,,,,,,,,,,,,,,,,,,,,,,,,,,,,,,,,,,,,,,,,,,,,,,,,,,,,,,,,,,,,,,
,,,,,197640,001,2025-03-14_12h20.24.150,Utility_discrimination_2024_2cat,2024.2.4,MacIntel,61.34969325,,,,,,,,2,"[0.5,0.5]","[0.707,0.707]",s,"[0.657167979377494,0.5651464676424028]","[0.34283202062250595,0.43485353235759716]",145.8963,148.4931,1,s,1,1.0667,,-0.067097964,0.445046575,0.512144539,148.4962,148.4963,0,26,26,26,1,0.170095216,0.170095216,shape_difference1,1,,TRUE,,intensity,0.1,0.05,0.7,0.3,0.82,20,400,1E-11,3.5,0.01,0.5,0.1,,,,,,,,,,,,,,,,,,,,,,,,,,,,,,,,,,,,,,,,,,,,,,,,,,,,,,,,,,,,,,,,,,,,,,,,,,,,,,,,,
,,,,,197640,001,2025-03-14_12h20.24.150,Utility_discrimination_2024_2cat,2024.2.4,MacIntel,61.34969325,,,,,,,,0,"[0.5,0.5]","[1,0]",s,"[0.6202573175539916,0.6202573175539916]","[0.37974268244600834,0.37974268244600834]",148.497,150.8598,1,d,1,0.8346,,-0.144584963,0.406347617,0.550932581,150.8634,150.8635,0,27,27,27,1,0.170095216,0.170095216,shape_difference2,1,,TRUE,,intensity,0.1,0.05,0.7,0.3,0.82,20,400,1E-11,3.5,0.01,0.5,0.1,,,,,,,,,,,,,,,,,,,,,,,,,,,,,,,,,,,,,,,,,,,,,,,,,,,,,,,,,,,,,,,,,,,,,,,,,,,,,,,,,
,,,,,197640,001,2025-03-14_12h20.24.150,Utility_discrimination_2024_2cat,2024.2.4,MacIntel,61.34969325,,,,,,,,4,"[0.5,0.5]","[0,1]",d,"[0.5917420996447461,0.5]","[0.4082579003552539,0.5]",150.8644,153.1422,0,s,0,0.7505,,-0.067097964,0.445046575,0.512144539,153.1449,153.1449,0,28,28,28,1,0.0917421,0.0917421,shape_difference0,1,,TRUE,,intensity,0.1,0.05,0.7,0.3,0.82,20,400,1E-11,3.5,0.01,0.5,0.1,,,,,,,,,,,,,,,,,,,,,,,,,,,,,,,,,,,,,,,,,,,,,,,,,,,,,,,,,,,,,,,,,,,,,,,,,,,,,,,,,
,,,,,197640,001,2025-03-14_12h20.24.150,Utility_discrimination_2024_2cat,2024.2.4,MacIntel,61.34969325,,,,,,,,4,"[0.5,0.5]","[0,1]",d,"[0.5,0.6700952157765088]","[0.5,0.3299047842234913]",153.1458,155.343,1,d,1,0.6669,,-0.078138993,0.387434732,0.465573725,155.346,155.346,0,29,29,29,1,0.170095216,0.170095216,shape_difference4,1,,TRUE,,intensity,0.1,0.05,0.7,0.3,0.82,20,400,1E-11,3.5,0.01,0.5,0.1,,,,,,,,,,,,,,,,,,,,,,,,,,,,,,,,,,,,,,,,,,,,,,,,,,,,,,,,,,,,,,,,,,,,,,,,,,,,,,,,,
,,,,,197640,001,2025-03-14_12h20.24.150,Utility_discrimination_2024_2cat,2024.2.4,MacIntel,61.34969325,,,,,,,,2,"[0.5,0.5]","[0.707,0.707]",d,"[0.5,0.6474032266493467]","[0.5,0.3525967733506533]",155.3468,157.5588,1,d,1,0.6829,,-0.078138993,0.387434732,0.465573725,157.5617,157.5618,0,30,30,30,1,0.147403227,0.147403227,shape_difference4,1,,TRUE,,intensity,0.1,0.05,0.7,0.3,0.82,20,400,1E-11,3.5,0.01,0.5,0.1,,,,,,,,,,,,,,,,,,,,,,,,,,,,,,,,,,,,,,,,,,,,,,,,,,,,,,,,,,,,,,,,,,,,,,,,,,,,,,,,,
,,,,,197640,001,2025-03-14_12h20.24.150,Utility_discrimination_2024_2cat,2024.2.4,MacIntel,61.34969325,,,,,,,,3,"[0.5,0.5]","[0.383,0.924]",d,"[0.6042140812410881,0.6042140812410881]","[0.3957859187589119,0.3957859187589119]",157.5625,159.909,1,s,1,0.816,,-0.078138993,0.387434732,0.465573725,159.9125,159.9126,0,31,31,31,1,0.147403227,0.147403227,shape_difference2,1,,TRUE,,intensity,0.1,0.05,0.7,0.3,0.82,20,400,1E-11,3.5,0.01,0.5,0.1,,,,,,,,,,,,,,,,,,,,,,,,,,,,,,,,,,,,,,,,,,,,,,,,,,,,,,,,,,,,,,,,,,,,,,,,,,,,,,,,,
,,,,,197640,001,2025-03-14_12h20.24.150,Utility_discrimination_2024_2cat,2024.2.4,MacIntel,61.34969325,,,,,,,,0,"[0.5,0.5]","[1,0]",s,"[0.5564554358066998,0.6362005814239964]","[0.44354456419330024,0.3637994185760036]",159.9136,162.3096,1,d,1,0.8667,,-0.018937289,0.534405895,0.553343183,162.3123,162.3123,0,32,32,32,1,0.147403227,0.147403227,shape_difference3,1,,TRUE,,intensity,0.1,0.05,0.7,0.3,0.82,20,400,1E-11,3.5,0.01,0.5,0.1,,,,,,,,,,,,,,,,,,,,,,,,,,,,,,,,,,,,,,,,,,,,,,,,,,,,,,,,,,,,,,,,,,,,,,,,,,,,,,,,,
,,,,,197640,001,2025-03-14_12h20.24.150,Utility_discrimination_2024_2cat,2024.2.4,MacIntel,61.34969325,,,,,,,,1,"[0.5,0.5]","[0.924,0.383]",d,"[0.6971371521097935,0.5]","[0.3028628478902064,0.5]",162.3148,164.9096,1,d,1,1.0698,,-0.078138993,0.387434732,0.465573725,164.9133,164.9133,0,33,33,33,1,0.197137152,0.197137152,shape_difference0,1,,TRUE,,intensity,0.1,0.05,0.7,0.3,0.82,20,400,1E-11,3.5,0.01,0.5,0.1,,,,,,,,,,,,,,,,,,,,,,,,,,,,,,,,,,,,,,,,,,,,,,,,,,,,,,,,,,,,,,,,,,,,,,,,,,,,,,,,,
,,,,,197640,001,2025-03-14_12h20.24.150,Utility_discrimination_2024_2cat,2024.2.4,MacIntel,61.34969325,,,,,,,,3,"[0.5,0.5]","[0.383,0.924]",d,"[0.6362005814239964,0.5564554358066998]","[0.3637994185760036,0.44354456419330024]",164.9144,167.4755,1,d,1,1.0376,,-0.090658615,0.352456116,0.443114731,167.478,167.478,0,34,34,34,1,0.147403227,0.147403227,shape_difference1,1,,TRUE,,intensity,0.1,0.05,0.7,0.3,0.82,20,400,1E-11,3.5,0.01,0.5,0.1,,,,,,,,,,,,,,,,,,,,,,,,,,,,,,,,,,,,,,,,,,,,,,,,,,,,,,,,,,,,,,,,,,,,,,,,,,,,,,,,,
,,,,,197640,001,2025-03-14_12h20.24.150,Utility_discrimination_2024_2cat,2024.2.4,MacIntel,61.34969325,,,,,,,,1,"[0.5,0.5]","[0.924,0.383]",d,"[0.5476267178801084,0.6149010112825593]","[0.45237328211989153,0.3850989887174407]",167.4796,169.6921,1,s,1,0.6849,,-0.090658615,0.352456116,0.443114731,169.6957,169.6957,0,35,35,35,1,0.124351744,0.124351744,shape_difference3,1,,TRUE,,intensity,0.1,0.05,0.7,0.3,0.82,20,400,1E-11,3.5,0.01,0.5,0.1,,,,,,,,,,,,,,,,,,,,,,,,,,,,,,,,,,,,,,,,,,,,,,,,,,,,,,,,,,,,,,,,,,,,,,,,,,,,,,,,,
,,,,,197640,001,2025-03-14_12h20.24.150,Utility_discrimination_2024_2cat,2024.2.4,MacIntel,61.34969325,,,,,,,,4,"[0.5,0.5]","[0,1]",s,"[0.6149010112825593,0.5476267178801084]","[0.3850989887174407,0.45237328211989153]",169.6967,172.2919,1,d,1,1.0724,,-0.090658615,0.352456116,0.443114731,172.2948,172.2948,0,36,36,36,1,0.124351744,0.124351744,shape_difference1,1,,TRUE,,intensity,0.1,0.05,0.7,0.3,0.82,20,400,1E-11,3.5,0.01,0.5,0.1,,,,,,,,,,,,,,,,,,,,,,,,,,,,,,,,,,,,,,,,,,,,,,,,,,,,,,,,,,,,,,,,,,,,,,,,,,,,,,,,,
,,,,,197640,001,2025-03-14_12h20.24.150,Utility_discrimination_2024_2cat,2024.2.4,MacIntel,61.34969325,,,,,,,,0,"[0.5,0.5]","[1,0]",d,"[0.5,0.6243517438122936]","[0.5,0.3756482561877064]",172.2958,174.6262,1,s,1,0.8041,,-0.037207083,0.475072436,0.512279519,174.6291,174.6292,0,37,37,37,1,0.124351744,0.124351744,shape_difference4,1,,TRUE,,intensity,0.1,0.05,0.7,0.3,0.82,20,400,1E-11,3.5,0.01,0.5,0.1,,,,,,,,,,,,,,,,,,,,,,,,,,,,,,,,,,,,,,,,,,,,,,,,,,,,,,,,,,,,,,,,,,,,,,,,,,,,,,,,,
,,,,,197640,001,2025-03-14_12h20.24.150,Utility_discrimination_2024_2cat,2024.2.4,MacIntel,61.34969325,,,,,,,,2,"[0.5,0.5]","[0.707,0.707]",s,"[0.6687579417639199,0.5]","[0.3312420582360801,0.5]",174.6304,177.0596,1,d,1,0.9038,,-0.090658615,0.352456116,0.443114731,177.062,177.062,0,38,38,38,1,0.168757942,0.168757942,shape_difference0,1,,TRUE,,intensity,0.1,0.05,0.7,0.3,0.82,20,400,1E-11,3.5,0.01,0.5,0.1,,,,,,,,,,,,,,,,,,,,,,,,,,,,,,,,,,,,,,,,,,,,,,,,,,,,,,,,,,,,,,,,,,,,,,,,,,,,,,,,,
,,,,,197640,001,2025-03-14_12h20.24.150,Utility_discrimination_2024_2cat,2024.2.4,MacIntel,61.34969325,,,,,,,,1,"[0.5,0.5]","[0.924,0.383]",d,"[0.5879166828752915,0.5879166828752915]","[0.4120833171247084,0.4120833171247084]",177.0627,179.4261,1,s,1,0.8327,,-0.099810016,0.302017827,0.401827843,179.4299,179.4299,0,39,39,39,1,0.124351744,0.124351744,shape_difference2,1,,TRUE,,intensity,0.1,0.05,0.7,0.3,0.82,20,400,1E-11,3.5,0.01,0.5,0.1,,,,,,,,,,,,,,,,,,,,,,,,,,,,,,,,,,,,,,,,,,,,,,,,,,,,,,,,,,,,,,,,,,,,,,,,,,,,,,,,,
,,,,,197640,001,2025-03-14_12h20.24.150,Utility_discrimination_2024_2cat,2024.2.4,MacIntel,61.34969325,,,,,,,,0,"[0.5,0.5]","[1,0]",s,"[0.5913841818646277,0.5378789411841476]","[0.40861581813537234,0.4621210588158524]",179.4307,181.7262,1,s,1,0.7665,,-0.049578866,0.408345939,0.457924805,181.7289,181.7289,0,40,40,40,1,0.09890063,0.09890063,shape_difference1,1,,TRUE,,intensity,0.1,0.05,0.7,0.3,0.82,20,400,1E-11,3.5,0.01,0.5,0.1,,,,,,,,,,,,,,,,,,,,,,,,,,,,,,,,,,,,,,,,,,,,,,,,,,,,,,,,,,,,,,,,,,,,,,,,,,,,,,,,,
,,,,,197640,001,2025-03-14_12h20.24.150,Utility_discrimination_2024_2cat,2024.2.4,MacIntel,61.34969325,,,,,,,,3,"[0.5,0.5]","[0.383,0.924]",s,"[0.6449338562578305,0.5]","[0.3550661437421695,0.5]",181.7298,184.3429,0,s,0,1.0822,,-0.099810016,0.302017827,0.401827843,184.3463,184.3463,0,41,41,41,1,0.144933856,0.144933856,shape_difference0,1,,TRUE,,intensity,0.1,0.05,0.7,0.3,0.82,20,400,1E-11,3.5,0.01,0.5,0.1,,,,,,,,,,,,,,,,,,,,,,,,,,,,,,,,,,,,,,,,,,,,,,,,,,,,,,,,,,,,,,,,,,,,,,,,,,,,,,,,,
,,,,,197640,001,2025-03-14_12h20.24.150,Utility_discrimination_2024_2cat,2024.2.4,MacIntel,61.34969325,,,,,,,,4,"[0.5,0.5]","[0,1]",d,"[0.5378789411841476,0.5913841818646277]","[0.4621210588158524,0.40861581813537234]",184.3472,186.6754,1,s,1,0.8098,,-0.099810016,0.302017827,0.401827843,186.6786,186.6786,0,42,42,42,1,0.09890063,0.09890063,shape_difference3,1,,TRUE,,intensity,0.1,0.05,0.7,0.3,0.82,20,400,1E-11,3.5,0.01,0.5,0.1,,,,,,,,,,,,,,,,,,,,,,,,,,,,,,,,,,,,,,,,,,,,,,,,,,,,,,,,,,,,,,,,,,,,,,,,,,,,,,,,,
,,,,,197640,001,2025-03-14_12h20.24.150,Utility_discrimination_2024_2cat,2024.2.4,MacIntel,61.34969325,,,,,,,,2,"[0.5,0.5]","[0.707,0.707]",s,"[0.5,0.598900629723623]","[0.5,0.401099370276377]",186.6794,188.9762,1,s,1,0.7684,,-0.099810016,0.302017827,0.401827843,188.9789,188.9789,0,43,43,43,1,0.09890063,0.09890063,shape_difference4,1,,TRUE,,intensity,0.1,0.05,0.7,0.3,0.82,20,400,1E-11,3.5,0.01,0.5,0.1,,,,,,,,,,,,,,,,,,,,,,,,,,,,,,,,,,,,,,,,,,,,,,,,,,,,,,,,,,,,,,,,,,,,,,,,,,,,,,,,,
,,,,,197640,001,2025-03-14_12h20.24.150,Utility_discrimination_2024_2cat,2024.2.4,MacIntel,61.34969325,,,,,,,,4,"[0.5,0.5]","[0,1]",s,"[0.5699227452146015,0.5699227452146015]","[0.43007725478539854,0.43007725478539854]",188.9797,191.4427,1,d,1,0.9441,,-0.147620511,0.278358432,0.425978943,191.4453,191.4453,0,44,44,44,1,0.09890063,0.09890063,shape_difference2,1,,TRUE,,intensity,0.1,0.05,0.7,0.3,0.82,20,400,1E-11,3.5,0.01,0.5,0.1,,,,,,,,,,,,,,,,,,,,,,,,,,,,,,,,,,,,,,,,,,,,,,,,,,,,,,,,,,,,,,,,,,,,,,,,,,,,,,,,,
,,,,,197640,001,2025-03-14_12h20.24.150,Utility_discrimination_2024_2cat,2024.2.4,MacIntel,61.34969325,,,,,,,,2,"[0.5,0.5]","[0.707,0.707]",d,"[0.5,0.581567474290307]","[0.5,0.41843252570969297]",191.4462,193.8927,0,s,0,0.9265,,-0.147620511,0.278358432,0.425978943,193.8955,193.8955,0,45,45,45,1,0.081567474,0.081567474,shape_difference4,1,,TRUE,,intensity,0.1,0.05,0.7,0.3,0.82,20,400,1E-11,3.5,0.01,0.5,0.1,,,,,,,,,,,,,,,,,,,,,,,,,,,,,,,,,,,,,,,,,,,,,,,,,,,,,,,,,,,,,,,,,,,,,,,,,,,,,,,,,
,,,,,197640,001,2025-03-14_12h20.24.150,Utility_discrimination_2024_2cat,2024.2.4,MacIntel,61.34969325,,,,,,,,3,"[0.5,0.5]","[0.383,0.924]",d,"[0.557668204323247,0.557668204323247]","[0.44233179567675296,0.44233179567675296]",193.8965,196.1927,1,s,1,0.7664,,-0.147620511,0.278358432,0.425978943,196.196,196.196,0,46,46,46,1,0.081567474,0.081567474,shape_difference2,1,,TRUE,,intensity,0.1,0.05,0.7,0.3,0.82,20,400,1E-11,3.5,0.01,0.5,0.1,,,,,,,,,,,,,,,,,,,,,,,,,,,,,,,,,,,,,,,,,,,,,,,,,,,,,,,,,,,,,,,,,,,,,,,,,,,,,,,,,
,,,,,197640,001,2025-03-14_12h20.24.150,Utility_discrimination_2024_2cat,2024.2.4,MacIntel,61.34969325,,,,,,,,1,"[0.5,0.5]","[0.924,0.383]",s,"[0.5312403426531875,0.5753683462442437]","[0.4687596573468124,0.4246316537557563]",196.197,198.6094,0,s,0,0.8831,,-0.147620511,0.278358432,0.425978943,198.6119,198.6119,0,47,47,47,1,0.081567474,0.081567474,shape_difference3,1,,TRUE,,intensity,0.1,0.05,0.7,0.3,0.82,20,400,1E-11,3.5,0.01,0.5,0.1,,,,,,,,,,,,,,,,,,,,,,,,,,,,,,,,,,,,,,,,,,,,,,,,,,,,,,,,,,,,,,,,,,,,,,,,,,,,,,,,,
,,,,,197640,001,2025-03-14_12h20.24.150,Utility_discrimination_2024_2cat,2024.2.4,MacIntel,61.34969325,,,,,,,,0,"[0.5,0.5]","[1,0]",d,"[0.5753683462442437,0.5312403426531875]","[0.4246316537557563,0.4687596573468124]",198.6134,200.8928,1,s,1,0.7508,,0.013553054,0.492259556,0.478706502,200.8962,200.8963,0,48,48,48,1,0.081567474,0.081567474,shape_difference1,1,,TRUE,,intensity,0.1,0.05,0.7,0.3,0.82,20,400,1E-11,3.5,0.01,0.5,0.1,,,,,,,,,,,,,,,,,,,,,,,,,,,,,,,,,,,,,,,,,,,,,,,,,,,,,,,,,,,,,,,,,,,,,,,,,,,,,,,,,
,,,,,197640,001,2025-03-14_12h20.24.150,Utility_discrimination_2024_2cat,2024.2.4,MacIntel,61.34969325,,,,,,,,1,"[0.5,0.5]","[0.924,0.383]",s,"[0.6948671710754937,0.5]","[0.3051328289245063,0.5]",200.8971,203.1927,0,s,0,0.7661,,-0.182423137,0.248987787,0.431410924,203.1955,203.1956,0,49,49,49,1,0.194867171,0.194867171,shape_difference0,1,,TRUE,,intensity,0.1,0.05,0.7,0.3,0.82,20,400,1E-11,3.5,0.01,0.5,0.1,,,,,,,,,,,,,,,,,,,,,,,,,,,,,,,,,,,,,,,,,,,,,,,,,,,,,,,,,,,,,,,,,,,,,,,,,,,,,,,,,
,,,,,197640,001,2025-03-14_12h20.24.150,Utility_discrimination_2024_2cat,2024.2.4,MacIntel,61.34969325,,,,,,,,0,"[0.5,0.5]","[1,0]",d,"[0.5617099302226933,0.525578899648584]","[0.43829006977730667,0.47442110035141605]",203.197,205.5093,1,s,1,0.7839,,0.087977311,0.596918461,0.508941149,205.5128,205.5128,0,50,50,50,1,0.066785639,0.066785639,shape_difference1,1,,TRUE,,intensity,0.1,0.05,0.7,0.3,0.82,20,400,1E-11,3.5,0.01,0.5,0.1,,,,,,,,,,,,,,,,,,,,,,,,,,,,,,,,,,,,,,,,,,,,,,,,,,,,,,,,,,,,,,,,,,,,,,,,,,,,,,,,,
,,,,,197640,001,2025-03-14_12h20.24.150,Utility_discrimination_2024_2cat,2024.2.4,MacIntel,61.34969325,,,,,,,,2,"[0.5,0.5]","[0.707,0.707]",s,"[0.787267972355204,0.5]","[0.21273202764479604,0.5]",205.5136,208.4593,0,s,0,1.426,,-0.182423137,0.248987787,0.431410924,208.4615,208.4615,0,51,51,51,1,0.287267972,0.287267972,shape_difference0,1,,TRUE,,intensity,0.1,0.05,0.7,0.3,0.82,20,400,1E-11,3.5,0.01,0.5,0.1,,,,,,,,,,,,,,,,,,,,,,,,,,,,,,,,,,,,,,,,,,,,,,,,,,,,,,,,,,,,,,,,,,,,,,,,,,,,,,,,,
,,,,,197640,001,2025-03-14_12h20.24.150,Utility_discrimination_2024_2cat,2024.2.4,MacIntel,61.34969325,,,,,,,,4,"[0.5,0.5]","[0,1]",d,"[0.5472174466097881,0.5472174466097881]","[0.4527825533902119,0.4527825533902119]",208.463,210.8259,0,s,0,0.8327,,-0.007884523,0.363798324,0.371682847,210.8294,210.8294,0,52,52,52,1,0.066785639,0.066785639,shape_difference2,1,,TRUE,,intensity,0.1,0.05,0.7,0.3,0.82,20,400,1E-11,3.5,0.01,0.5,0.1,,,,,,,,,,,,,,,,,,,,,,,,,,,,,,,,,,,,,,,,,,,,,,,,,,,,,,,,,,,,,,,,,,,,,,,,,,,,,,,,,
,,,,,197640,001,2025-03-14_12h20.24.150,Utility_discrimination_2024_2cat,2024.2.4,MacIntel,61.34969325,,,,,,,,3,"[0.5,0.5]","[0.383,0.924]",d,"[0.5,0.648883028316844]","[0.5,0.35111697168315603]",210.8303,213.1259,1,d,1,0.7669,,-0.007884523,0.363798324,0.371682847,213.1282,213.1282,0,53,53,53,1,0.148883028,0.148883028,shape_difference4,1,,TRUE,,intensity,0.1,0.05,0.7,0.3,0.82,20,400,1E-11,3.5,0.01,0.5,0.1,,,,,,,,,,,,,,,,,,,,,,,,,,,,,,,,,,,,,,,,,,,,,,,,,,,,,,,,,,,,,,,,,,,,,,,,,,,,,,,,,
,,,,,197640,001,2025-03-14_12h20.24.150,Utility_discrimination_2024_2cat,2024.2.4,MacIntel,61.34969325,,,,,,,,0,"[0.5,0.5]","[1,0]",d,"[0.5570221998453513,0.6375679181647639]","[0.44297780015464877,0.3624320818352361]",213.1291,215.3926,1,s,1,0.7348,,0.167129288,0.701600188,0.5344709,215.3958,215.3958,0,54,54,54,1,0.148883028,0.148883028,shape_difference3,1,,TRUE,,intensity,0.1,0.05,0.7,0.3,0.82,20,400,1E-11,3.5,0.01,0.5,0.1,,,,,,,,,,,,,,,,,,,,,,,,,,,,,,,,,,,,,,,,,,,,,,,,,,,,,,,,,,,,,,,,,,,,,,,,,,,,,,,,,
,,,,,197640,001,2025-03-14_12h20.24.150,Utility_discrimination_2024_2cat,2024.2.4,MacIntel,61.34969325,,,,,,,,3,"[0.5,0.5]","[0.383,0.924]",s,"[0.9036692475378104,0.5]","[0.09633075246218958,0.5]",215.3967,217.8083,1,d,1,0.8826,,-0.030834103,0.325906026,0.356740129,217.8106,217.8106,0,55,55,55,1,0.403669248,0.403669248,shape_difference0,1,,TRUE,,intensity,0.1,0.05,0.7,0.3,0.82,20,400,1E-11,3.5,0.01,0.5,0.1,,,,,,,,,,,,,,,,,,,,,,,,,,,,,,,,,,,,,,,,,,,,,,,,,,,,,,,,,,,,,,,,,,,,,,,,,,,,,,,,,
,,,,,197640,001,2025-03-14_12h20.24.150,Utility_discrimination_2024_2cat,2024.2.4,MacIntel,61.34969325,,,,,,,,4,"[0.5,0.5]","[0,1]",d,"[0.5506906514116517,0.6222928509252381]","[0.44930934858834826,0.3777071490747619]",217.8118,220.1593,0,s,0,0.8166,,-0.030834103,0.325906026,0.356740129,220.1627,220.1628,0,56,56,56,1,0.13235157,0.13235157,shape_difference3,1,,TRUE,,intensity,0.1,0.05,0.7,0.3,0.82,20,400,1E-11,3.5,0.01,0.5,0.1,,,,,,,,,,,,,,,,,,,,,,,,,,,,,,,,,,,,,,,,,,,,,,,,,,,,,,,,,,,,,,,,,,,,,,,,,,,,,,,,,
,,,,,197640,001,2025-03-14_12h20.24.150,Utility_discrimination_2024_2cat,2024.2.4,MacIntel,61.34969325,,,,,,,,1,"[0.5,0.5]","[0.924,0.383]",d,"[0.5,0.6323515702654092]","[0.5,0.3676484297345908]",220.1636,222.7416,1,d,1,1.0503,,-0.215370371,0.208591518,0.423961888,222.7439,222.7439,0,57,57,57,1,0.13235157,0.13235157,shape_difference4,1,,TRUE,,intensity,0.1,0.05,0.7,0.3,0.82,20,400,1E-11,3.5,0.01,0.5,0.1,,,,,,,,,,,,,,,,,,,,,,,,,,,,,,,,,,,,,,,,,,,,,,,,,,,,,,,,,,,,,,,,,,,,,,,,,,,,,,,,,
,,,,,197640,001,2025-03-14_12h20.24.150,Utility_discrimination_2024_2cat,2024.2.4,MacIntel,61.34969325,,,,,,,,2,"[0.5,0.5]","[0.707,0.707]",d,"[0.549528109676036,0.5205295086644175]","[0.45047189032396395,0.47947049133558245]",222.7448,225.1416,0,s,0,0.8664,,-0.030834103,0.325906026,0.356740129,225.1448,225.1448,0,58,58,58,1,0.05360185,0.05360185,shape_difference1,1,,TRUE,,intensity,0.1,0.05,0.7,0.3,0.82,20,400,1E-11,3.5,0.01,0.5,0.1,,,,,,,,,,,,,,,,,,,,,,,,,,,,,,,,,,,,,,,,,,,,,,,,,,,,,,,,,,,,,,,,,,,,,,,,,,,,,,,,,
,,,,,197640,001,2025-03-14_12h20.24.150,Utility_discrimination_2024_2cat,2024.2.4,MacIntel,61.34969325,,,,,,,,0,"[0.5,0.5]","[1,0]",d,"[0.5935725601776443,0.5935725601776443]","[0.4064274398223557,0.4064274398223557]",225.1459,227.3591,1,d,1,0.6831,,0.15212783,0.661404273,0.509276443,227.3617,227.3618,0,59,59,59,1,0.13235157,0.13235157,shape_difference2,1,,TRUE,,intensity,0.1,0.05,0.7,0.3,0.82,20,400,1E-11,3.5,0.01,0.5,0.1,,,,,,,,,,,,,,,,,,,,,,,,,,,,,,,,,,,,,,,,,,,,,,,,,,,,,,,,,,,,,,,,,,,,,,,,,,,,,,,,,
,,,,,197640,001,2025-03-14_12h20.24.150,Utility_discrimination_2024_2cat,2024.2.4,MacIntel,61.34969325,,,,,,,,1,"[0.5,0.5]","[0.924,0.383]",d,"[0.8713825555889827,0.5]","[0.1286174444110173,0.5]",227.3626,229.8925,1,s,1,0.9995,,-0.047088471,0.292394034,0.339482504,229.8959,229.8959,0,60,60,60,1,0.371382556,0.371382556,shape_difference0,1,,TRUE,,intensity,0.1,0.05,0.7,0.3,0.82,20,400,1E-11,3.5,0.01,0.5,0.1,,,,,,,,,,,,,,,,,,,,,,,,,,,,,,,,,,,,,,,,,,,,,,,,,,,,,,,,,,,,,,,,,,,,,,,,,,,,,,,,,
,,,,,197640,001,2025-03-14_12h20.24.150,Utility_discrimination_2024_2cat,2024.2.4,MacIntel,61.34969325,,,,,,,,2,"[0.5,0.5]","[0.707,0.707]",s,"[0.60568302887889,0.5438058442214447]","[0.39431697112110997,0.4561941557785553]",229.897,232.1925,1,s,1,0.7694,,-0.047088471,0.292394034,0.339482504,232.195,232.1951,0,61,61,61,1,0.114375572,0.114375572,shape_difference1,1,,TRUE,,intensity,0.1,0.05,0.7,0.3,0.82,20,400,1E-11,3.5,0.01,0.5,0.1,,,,,,,,,,,,,,,,,,,,,,,,,,,,,,,,,,,,,,,,,,,,,,,,,,,,,,,,,,,,,,,,,,,,,,,,,,,,,,,,,
,,,,,197640,001,2025-03-14_12h20.24.150,Utility_discrimination_2024_2cat,2024.2.4,MacIntel,61.34969325,,,,,,,,4,"[0.5,0.5]","[0,1]",s,"[0.580863529672484,0.580863529672484]","[0.41913647032751594,0.41913647032751594]",232.1959,234.6591,1,s,1,0.9348,,-0.047088471,0.292394034,0.339482504,234.6622,234.6622,0,62,62,62,1,0.114375572,0.114375572,shape_difference2,1,,TRUE,,intensity,0.1,0.05,0.7,0.3,0.82,20,400,1E-11,3.5,0.01,0.5,0.1,,,,,,,,,,,,,,,,,,,,,,,,,,,,,,,,,,,,,,,,,,,,,,,,,,,,,,,,,,,,,,,,,,,,,,,,,,,,,,,,,
,,,,,197640,001,2025-03-14_12h20.24.150,Utility_discrimination_2024_2cat,2024.2.4,MacIntel,61.34969325,,,,,,,,3,"[0.5,0.5]","[0.383,0.924]",s,"[0.5,0.6143755723797512]","[0.5,0.38562442762024884]",234.6631,237.1257,1,s,1,0.9441,,0.012909116,0.389307595,0.37639848,237.1276,237.1276,0,63,63,63,1,0.114375572,0.114375572,shape_difference4,1,,TRUE,,intensity,0.1,0.05,0.7,0.3,0.82,20,400,1E-11,3.5,0.01,0.5,0.1,,,,,,,,,,,,,,,,,,,,,,,,,,,,,,,,,,,,,,,,,,,,,,,,,,,,,,,,,,,,,,,,,,,,,,,,,,,,,,,,,
,,,,,197640,001,2025-03-14_12h20.24.150,Utility_discrimination_2024_2cat,2024.2.4,MacIntel,61.34969325,,,,,,,,3,"[0.5,0.5]","[0.383,0.924]",s,"[0.5656388206454688,0.6583557970663527]","[0.4343611793545313,0.3416442029336473]",237.1285,239.3257,1,d,1,0.6656,,0.010017237,0.3536385,0.343621263,239.3292,239.3292,0,64,64,64,1,0.171380733,0.171380733,shape_difference3,1,,TRUE,,intensity,0.1,0.05,0.7,0.3,0.82,20,400,1E-11,3.5,0.01,0.5,0.1,,,,,,,,,,,,,,,,,,,,,,,,,,,,,,,,,,,,,,,,,,,,,,,,,,,,,,,,,,,,,,,,,,,,,,,,,,,,,,,,,
,,,,,197640,001,2025-03-14_12h20.24.150,Utility_discrimination_2024_2cat,2024.2.4,MacIntel,61.34969325,,,,,,,,2,"[0.5,0.5]","[0.707,0.707]",d,"[0.5604384261610735,0.6458096756470808]","[0.43956157383892647,0.35419032435291925]",239.33,241.809,0,d,0,0.9493,,-0.058847401,0.273474928,0.332322328,241.8127,241.8127,0,65,65,65,1,0.157802679,0.157802679,shape_difference3,1,,TRUE,,intensity,0.1,0.05,0.7,0.3,0.82,20,400,1E-11,3.5,0.01,0.5,0.1,,,,,,,,,,,,,,,,,,,,,,,,,,,,,,,,,,,,,,,,,,,,,,,,,,,,,,,,,,,,,,,,,,,,,,,,,,,,,,,,,
,,,,,197640,001,2025-03-14_12h20.24.150,Utility_discrimination_2024_2cat,2024.2.4,MacIntel,61.34969325,,,,,,,,1,"[0.5,0.5]","[0.924,0.383]",s,"[0.568246806946396,0.568246806946396]","[0.4317531930536041,0.4317531930536041]",241.8143,244.0414,0,s,0,0.6996,,-0.058847401,0.273474928,0.332322328,244.0451,244.0452,0,66,66,66,1,0.096530137,0.096530137,shape_difference2,1,,TRUE,,intensity,0.1,0.05,0.7,0.3,0.82,20,400,1E-11,3.5,0.01,0.5,0.1,,,,,,,,,,,,,,,,,,,,,,,,,,,,,,,,,,,,,,,,,,,,,,,,,,,,,,,,,,,,,,,,,,,,,,,,,,,,,,,,,
,,,,,197640,001,2025-03-14_12h20.24.150,Utility_discrimination_2024_2cat,2024.2.4,MacIntel,61.34969325,,,,,,,,4,"[0.5,0.5]","[0,1]",d,"[0.5891938467022204,0.5369710425183446]","[0.4108061532977796,0.4630289574816554]",244.0461,246.1591,1,s,1,0.5829,,-0.058847401,0.273474928,0.332322328,246.1621,246.1622,0,67,67,67,1,0.096530137,0.096530137,shape_difference1,1,,TRUE,,intensity,0.1,0.05,0.7,0.3,0.82,20,400,1E-11,3.5,0.01,0.5,0.1,,,,,,,,,,,,,,,,,,,,,,,,,,,,,,,,,,,,,,,,,,,,,,,,,,,,,,,,,,,,,,,,,,,,,,,,,,,,,,,,,
,,,,,197640,001,2025-03-14_12h20.24.150,Utility_discrimination_2024_2cat,2024.2.4,MacIntel,61.34969325,,,,,,,,0,"[0.5,0.5]","[1,0]",s,"[0.5,0.5965301371236151]","[0.5,0.40346986287638487]",246.1631,250.1423,0,s,0,2.4499,,0.141997974,0.600743903,0.458745929,250.1456,250.1456,0,68,68,68,1,0.096530137,0.096530137,shape_difference4,1,,TRUE,,intensity,0.1,0.05,0.7,0.3,0.82,20,400,1E-11,3.5,0.01,0.5,0.1,,,,,,,,,,,,,,,,,,,,,,,,,,,,,,,,,,,,,,,,,,,,,,,,,,,,,,,,,,,,,,,,,,,,,,,,,,,,,,,,,
,,,,,197640,001,2025-03-14_12h20.24.150,Utility_discrimination_2024_2cat,2024.2.4,MacIntel,61.34969325,,,,,,,,1,"[0.5,0.5]","[0.924,0.383]",d,"[0.8450136933368029,0.5]","[0.15498630666319713,0.5]",250.1465,252.3422,1,d,1,0.6696,,-0.067536027,0.249396668,0.316932695,252.3445,252.3445,0,69,69,69,1,0.345013693,0.345013693,shape_difference0,1,,TRUE,,intensity,0.1,0.05,0.7,0.3,0.82,20,400,1E-11,3.5,0.01,0.5,0.1,,,,,,,,,,,,,,,,,,,,,,,,,,,,,,,,,,,,,,,,,,,,,,,,,,,,,,,,,,,,,,,,,,,,,,,,,,,,,,,,,
,,,,,197640,001,2025-03-14_12h20.24.150,Utility_discrimination_2024_2cat,2024.2.4,MacIntel,61.34969325,,,,,,,,0,"[0.5,0.5]","[1,0]",d,"[0.5790473270316886,0.5327652881527454]","[0.4209526729683114,0.4672347118472546]",252.3454,254.7081,0,s,0,0.833,,0.131650563,0.569116809,0.437466246,254.7115,254.7115,0,70,70,70,1,0.085549055,0.085549055,shape_difference1,1,,TRUE,,intensity,0.1,0.05,0.7,0.3,0.82,20,400,1E-11,3.5,0.01,0.5,0.1,,,,,,,,,,,,,,,,,,,,,,,,,,,,,,,,,,,,,,,,,,,,,,,,,,,,,,,,,,,,,,,,,,,,,,,,,,,,,,,,,
,,,,,197640,001,2025-03-14_12h20.24.150,Utility_discrimination_2024_2cat,2024.2.4,MacIntel,61.34969325,,,,,,,,4,"[0.5,0.5]","[0,1]",d,"[0.8192074924026272,0.5]","[0.18079250759737275,0.5]",254.7123,275.9585,1,s,1,19.7162,,0.006402873,0.329896138,0.323493265,275.9612,275.9613,0,71,71,71,1,0.319207492,0.319207492,shape_difference0,1,,TRUE,,intensity,0.1,0.05,0.7,0.3,0.82,20,400,1E-11,3.5,0.01,0.5,0.1,,,,,,,,,,,,,,,,,,,,,,,,,,,,,,,,,,,,,,,,,,,,,,,,,,,,,,,,,,,,,,,,,,,,,,,,,,,,,,,,,
,,,,,197640,001,2025-03-14_12h20.24.150,Utility_discrimination_2024_2cat,2024.2.4,MacIntel,61.34969325,,,,,,,,3,"[0.5,0.5]","[0.383,0.924]",s,"[0.5,0.6454596060044764]","[0.5,0.35454039399552356]",275.9622,278.1421,1,s,1,0.6605,,0.049739149,0.461929175,0.412190026,278.1451,278.1451,0,72,72,72,1,0.145459606,0.145459606,shape_difference4,1,,TRUE,,intensity,0.1,0.05,0.7,0.3,0.82,20,400,1E-11,3.5,0.01,0.5,0.1,,,,,,,,,,,,,,,,,,,,,,,,,,,,,,,,,,,,,,,,,,,,,,,,,,,,,,,,,,,,,,,,,,,,,,,,,,,,,,,,,
,,,,,197640,001,2025-03-14_12h20.24.150,Utility_discrimination_2024_2cat,2024.2.4,MacIntel,61.34969325,,,,,,,,2,"[0.5,0.5]","[0.707,0.707]",s,"[0.5843815978206732,0.7035733587109715]","[0.4156184021793268,0.2964266412890285]",278.1459,280.3588,1,d,1,0.6835,,0.006402873,0.329896138,0.323493265,280.3622,280.3622,0,73,73,73,1,0.220317488,0.220317488,shape_difference3,1,,TRUE,,intensity,0.1,0.05,0.7,0.3,0.82,20,400,1E-11,3.5,0.01,0.5,0.1,,,,,,,,,,,,,,,,,,,,,,,,,,,,,,,,,,,,,,,,,,,,,,,,,,,,,,,,,,,,,,,,,,,,,,,,,,,,,,,,,
,,,,,197640,001,2025-03-14_12h20.24.150,Utility_discrimination_2024_2cat,2024.2.4,MacIntel,61.34969325,,,,,,,,0,"[0.5,0.5]","[1,0]",d,"[0.6028399414451648,0.6028399414451648]","[0.39716005855483516,0.39716005855483516]",280.3631,282.6579,1,d,1,0.7703,,0.124424605,0.524572475,0.400147871,282.66,282.6601,0,74,74,74,1,0.145459606,0.145459606,shape_difference2,1,,TRUE,,intensity,0.1,0.05,0.7,0.3,0.82,20,400,1E-11,3.5,0.01,0.5,0.1,,,,,,,,,,,,,,,,,,,,,,,,,,,,,,,,,,,,,,,,,,,,,,,,,,,,,,,,,,,,,,,,,,,,,,,,,,,,,,,,,
,,,,,197640,001,2025-03-14_12h20.24.150,Utility_discrimination_2024_2cat,2024.2.4,MacIntel,61.34969325,,,,,,,,4,"[0.5,0.5]","[0,1]",d,"[0.7947370446990079,0.5]","[0.20526295530099214,0.5]",282.6609,285.0254,1,s,1,0.8345,,0.003819047,0.295670698,0.291851651,285.0286,285.0287,0,75,75,75,1,0.294737045,0.294737045,shape_difference0,1,,TRUE,,intensity,0.1,0.05,0.7,0.3,0.82,20,400,1E-11,3.5,0.01,0.5,0.1,,,,,,,,,,,,,,,,,,,,,,,,,,,,,,,,,,,,,,,,,,,,,,,,,,,,,,,,,,,,,,,,,,,,,,,,,,,,,,,,,
,,,,,197640,001,2025-03-14_12h20.24.150,Utility_discrimination_2024_2cat,2024.2.4,MacIntel,61.34969325,,,,,,,,3,"[0.5,0.5]","[0.383,0.924]",s,"[0.5,0.6318652452980444]","[0.5,0.36813475470195556]",285.0307,287.3912,1,s,1,0.8331,,0.03909109,0.413372581,0.374281491,287.3941,287.3941,0,76,76,76,1,0.131865245,0.131865245,shape_difference4,1,,TRUE,,intensity,0.1,0.05,0.7,0.3,0.82,20,400,1E-11,3.5,0.01,0.5,0.1,,,,,,,,,,,,,,,,,,,,,,,,,,,,,,,,,,,,,,,,,,,,,,,,,,,,,,,,,,,,,,,,,,,,,,,,,,,,,,,,,
,,,,,197640,001,2025-03-14_12h20.24.150,Utility_discrimination_2024_2cat,2024.2.4,MacIntel,61.34969325,,,,,,,,2,"[0.5,0.5]","[0.707,0.707]",s,"[0.5757064710437056,0.6826443322307678]","[0.4242935289562943,0.3173556677692322]",287.3952,291.9577,1,s,1,3.0325,,0.003819047,0.295670698,0.291851651,291.9594,291.9595,0,77,77,77,1,0.197667026,0.197667026,shape_difference3,1,,TRUE,,intensity,0.1,0.05,0.7,0.3,0.82,20,400,1E-11,3.5,0.01,0.5,0.1,,,,,,,,,,,,,,,,,,,,,,,,,,,,,,,,,,,,,,,,,,,,,,,,,,,,,,,,,,,,,,,,,,,,,,,,,,,,,,,,,
,,,,,197640,001,2025-03-14_12h20.24.150,Utility_discrimination_2024_2cat,2024.2.4,MacIntel,61.34969325,,,,,,,,1,"[0.5,0.5]","[0.924,0.383]",s,"[0.5932287284257174,0.5932287284257174]","[0.4067712715742826,0.4067712715742826]",291.9608,294.1419,1,s,1,0.6486,,0.003819047,0.295670698,0.291851651,294.1442,294.1443,0,78,78,78,1,0.131865245,0.131865245,shape_difference2,1,,TRUE,,intensity,0.1,0.05,0.7,0.3,0.82,20,400,1E-11,3.5,0.01,0.5,0.1,,,,,,,,,,,,,,,,,,,,,,,,,,,,,,,,,,,,,,,,,,,,,,,,,,,,,,,,,,,,,,,,,,,,,,,,,,,,,,,,,
,,,,,197640,001,2025-03-14_12h20.24.150,Utility_discrimination_2024_2cat,2024.2.4,MacIntel,61.34969325,,,,,,,,4,"[0.5,0.5]","[0,1]",s,"[0.621843486655393,0.550504388949151]","[0.3781565133446069,0.449495611050849]",294.1456,296.4254,1,d,1,0.751,,0.001459546,0.280411462,0.278951915,296.4286,296.4286,0,79,79,79,1,0.131865245,0.131865245,shape_difference1,1,,TRUE,,intensity,0.1,0.05,0.7,0.3,0.82,20,400,1E-11,3.5,0.01,0.5,0.1,,,,,,,,,,,,,,,,,,,,,,,,,,,,,,,,,,,,,,,,,,,,,,,,,,,,,,,,,,,,,,,,,,,,,,,,,,,,,,,,,
,,,,,197640,001,2025-03-14_12h20.24.150,Utility_discrimination_2024_2cat,2024.2.4,MacIntel,61.34969325,,,,,,,,0,"[0.5,0.5]","[1,0]",d,"[0.5,0.61711379830531]","[0.5,0.38288620169469]",296.4294,298.9419,1,d,1,0.9826,,0.119245235,0.485633336,0.366388101,298.9447,298.9447,0,80,80,80,1,0.117113798,0.117113798,shape_difference4,1,,TRUE,,intensity,0.1,0.05,0.7,0.3,0.82,20,400,1E-11,3.5,0.01,0.5,0.1,,,,,,,,,,,,,,,,,,,,,,,,,,,,,,,,,,,,,,,,,,,,,,,,,,,,,,,,,,,,,,,,,,,,,,,,,,,,,,,,,
,,,,,197640,001,2025-03-14_12h20.24.150,Utility_discrimination_2024_2cat,2024.2.4,MacIntel,61.34969325,,,,,,,,1,"[0.5,0.5]","[0.924,0.383]",d,"[0.7801087446748269,0.5]","[0.21989125532517306,0.5]",298.9455,301.2086,1,s,1,0.7341,,0.001459546,0.280411462,0.278951915,301.2119,301.2119,0,81,81,81,1,0.280108745,0.280108745,shape_difference0,1,,TRUE,,intensity,0.1,0.05,0.7,0.3,0.82,20,400,1E-11,3.5,0.01,0.5,0.1,,,,,,,,,,,,,,,,,,,,,,,,,,,,,,,,,,,,,,,,,,,,,,,,,,,,,,,,,,,,,,,,,,,,,,,,,,,,,,,,,
,,,,,197640,001,2025-03-14_12h20.24.150,Utility_discrimination_2024_2cat,2024.2.4,MacIntel,61.34969325,,,,,,,,2,"[0.5,0.5]","[0.707,0.707]",s,"[0.6082131496341064,0.5448545847509337]","[0.39178685036589356,0.45514541524906627]",301.2127,303.5419,1,s,1,0.801,,0.001459546,0.280411462,0.278951915,303.5445,303.5445,0,82,82,82,1,0.117113798,0.117113798,shape_difference1,1,,TRUE,,intensity,0.1,0.05,0.7,0.3,0.82,20,400,1E-11,3.5,0.01,0.5,0.1,,,,,,,,,,,,,,,,,,,,,,,,,,,,,,,,,,,,,,,,,,,,,,,,,,,,,,,,,,,,,,,,,,,,,,,,,,,,,,,,,
,,,,,197640,001,2025-03-14_12h20.24.150,Utility_discrimination_2024_2cat,2024.2.4,MacIntel,61.34969325,,,,,,,,3,"[0.5,0.5]","[0.383,0.924]",s,"[0.5827994554018542,0.5827994554018542]","[0.4172005445981458,0.4172005445981458]",303.5454,306.042,1,s,1,0.9656,,0.031438642,0.381183202,0.349744561,306.0448,306.0448,0,83,83,83,1,0.117113798,0.117113798,shape_difference2,1,,TRUE,,intensity,0.1,0.05,0.7,0.3,0.82,20,400,1E-11,3.5,0.01,0.5,0.1,,,,,,,,,,,,,,,,,,,,,,,,,,,,,,,,,,,,,,,,,,,,,,,,,,,,,,,,,,,,,,,,,,,,,,,,,,,,,,,,,
,,,,,197640,001,2025-03-14_12h20.24.150,Utility_discrimination_2024_2cat,2024.2.4,MacIntel,61.34969325,,,,,,,,4,"[0.5,0.5]","[0,1]",s,"[0.5709696749297075,0.6712166570105738]","[0.4290303250702925,0.32878334298942624]",306.0455,308.2742,1,d,1,0.6993,,-0.007860321,0.261670995,0.269531316,308.2776,308.2776,0,84,84,84,1,0.185299412,0.185299412,shape_difference3,1,,TRUE,,intensity,0.1,0.05,0.7,0.3,0.82,20,400,1E-11,3.5,0.01,0.5,0.1,,,,,,,,,,,,,,,,,,,,,,,,,,,,,,,,,,,,,,,,,,,,,,,,,,,,,,,,,,,,,,,,,,,,,,,,,,,,,,,,,
,,,,,197640,001,2025-03-14_12h20.24.150,Utility_discrimination_2024_2cat,2024.2.4,MacIntel,61.34969325,,,,,,,,1,"[0.5,0.5]","[0.924,0.383]",d,"[0.5,0.6005925833148524]","[0.5,0.3994074166851476]",308.2784,310.8919,1,d,1,1.0827,,-0.007860321,0.261670995,0.269531316,310.8947,310.8947,0,85,85,85,1,0.100592583,0.100592583,shape_difference4,1,,TRUE,,intensity,0.1,0.05,0.7,0.3,0.82,20,400,1E-11,3.5,0.01,0.5,0.1,,,,,,,,,,,,,,,,,,,,,,,,,,,,,,,,,,,,,,,,,,,,,,,,,,,,,,,,,,,,,,,,,,,,,,,,,,,,,,,,,
,,,,,197640,001,2025-03-14_12h20.24.150,Utility_discrimination_2024_2cat,2024.2.4,MacIntel,61.34969325,,,,,,,,0,"[0.5,0.5]","[1,0]",d,"[0.5929475469829236,0.5385269594095885]","[0.4070524530170764,0.46147304059041155]",310.8955,313.7083,1,d,1,1.2839,,0.11543375,0.455023588,0.339589838,313.7113,313.7113,0,86,86,86,1,0.100592583,0.100592583,shape_difference1,1,,TRUE,,intensity,0.1,0.05,0.7,0.3,0.82,20,400,1E-11,3.5,0.01,0.5,0.1,,,,,,,,,,,,,,,,,,,,,,,,,,,,,,,,,,,,,,,,,,,,,,,,,,,,,,,,,,,,,,,,,,,,,,,,,,,,,,,,,
,,,,,197640,001,2025-03-14_12h20.24.150,Utility_discrimination_2024_2cat,2024.2.4,MacIntel,61.34969325,,,,,,,,2,"[0.5,0.5]","[0.707,0.707]",d,"[0.7679239478258509,0.5]","[0.23207605217414906,0.5]",313.7121,316.2911,1,d,1,1.0584,,-0.007860321,0.261670995,0.269531316,316.2929,316.2929,0,87,87,87,1,0.267923948,0.267923948,shape_difference0,1,,TRUE,,intensity,0.1,0.05,0.7,0.3,0.82,20,400,1E-11,3.5,0.01,0.5,0.1,,,,,,,,,,,,,,,,,,,,,,,,,,,,,,,,,,,,,,,,,,,,,,,,,,,,,,,,,,,,,,,,,,,,,,,,,,,,,,,,,
,,,,,197640,001,2025-03-14_12h20.24.150,Utility_discrimination_2024_2cat,2024.2.4,MacIntel,61.34969325,,,,,,,,3,"[0.5,0.5]","[0.383,0.924]",d,"[0.5711189564036007,0.5711189564036007]","[0.42888104359639934,0.42888104359639934]",316.2936,318.6909,1,s,1,0.877,,0.0258108,0.351167918,0.325357118,318.6931,318.6931,0,88,88,88,1,0.100592583,0.100592583,shape_difference2,1,,TRUE,,intensity,0.1,0.05,0.7,0.3,0.82,20,400,1E-11,3.5,0.01,0.5,0.1,,,,,,,,,,,,,,,,,,,,,,,,,,,,,,,,,,,,,,,,,,,,,,,,,,,,,,,,,,,,,,,,,,,,,,,,,,,,,,,,,
,,,,,197640,001,2025-03-14_12h20.24.150,Utility_discrimination_2024_2cat,2024.2.4,MacIntel,61.34969325,,,,,,,,2,"[0.5,0.5]","[0.707,0.707]",s,"[0.5671093320743716,0.6619034538817739]","[0.43289066792562836,0.33809654611822615]",318.6939,320.975,1,d,1,0.7609,,-0.026055231,0.237876473,0.263931704,320.977,320.977,0,89,89,89,1,0.175220188,0.175220188,shape_difference3,1,,TRUE,,intensity,0.1,0.05,0.7,0.3,0.82,20,400,1E-11,3.5,0.01,0.5,0.1,,,,,,,,,,,,,,,,,,,,,,,,,,,,,,,,,,,,,,,,,,,,,,,,,,,,,,,,,,,,,,,,,,,,,,,,,,,,,,,,,
,,,,,197640,001,2025-03-14_12h20.24.150,Utility_discrimination_2024_2cat,2024.2.4,MacIntel,61.34969325,,,,,,,,0,"[0.5,0.5]","[1,0]",d,"[0.564209966880232,0.564209966880232]","[0.43579003311976805,0.43579003311976805]",320.9778,323.5751,1,d,1,1.0658,,0.112554803,0.413853301,0.301298497,323.5778,323.5778,0,90,90,90,1,0.090820321,0.090820321,shape_difference2,1,,TRUE,,intensity,0.1,0.05,0.7,0.3,0.82,20,400,1E-11,3.5,0.01,0.5,0.1,,,,,,,,,,,,,,,,,,,,,,,,,,,,,,,,,,,,,,,,,,,,,,,,,,,,,,,,,,,,,,,,,,,,,,,,,,,,,,,,,
,,,,,197640,001,2025-03-14_12h20.24.150,Utility_discrimination_2024_2cat,2024.2.4,MacIntel,61.34969325,,,,,,,,1,"[0.5,0.5]","[0.924,0.383]",d,"[0.7573393427727282,0.5]","[0.24266065722727176,0.5]",323.5792,325.8418,1,s,1,0.7341,,-0.026055231,0.237876473,0.263931704,325.8447,325.8447,0,91,91,91,1,0.257339343,0.257339343,shape_difference0,1,,TRUE,,intensity,0.1,0.05,0.7,0.3,0.82,20,400,1E-11,3.5,0.01,0.5,0.1,,,,,,,,,,,,,,,,,,,,,,,,,,,,,,,,,,,,,,,,,,,,,,,,,,,,,,,,,,,,,,,,,,,,,,,,,,,,,,,,,
,,,,,197640,001,2025-03-14_12h20.24.150,Utility_discrimination_2024_2cat,2024.2.4,MacIntel,61.34969325,,,,,,,,4,"[0.5,0.5]","[0,1]",s,"[0.5839179765167387,0.53478418290683]","[0.41608202348326123,0.46521581709316995]",325.8455,328.0909,1,s,1,0.7158,,-0.026055231,0.237876473,0.263931704,328.0933,328.0933,0,92,92,92,1,0.090820321,0.090820321,shape_difference1,1,,TRUE,,intensity,0.1,0.05,0.7,0.3,0.82,20,400,1E-11,3.5,0.01,0.5,0.1,,,,,,,,,,,,,,,,,,,,,,,,,,,,,,,,,,,,,,,,,,,,,,,,,,,,,,,,,,,,,,,,,,,,,,,,,,,,,,,,,
,,,,,197640,001,2025-03-14_12h20.24.150,Utility_discrimination_2024_2cat,2024.2.4,MacIntel,61.34969325,,,,,,,,3,"[0.5,0.5]","[0.383,0.924]",s,"[0.5,0.5908203209055614]","[0.5,0.4091796790944386]",328.0942,330.2407,1,s,1,0.6171,,0.021579912,0.31149503,0.289915118,330.2426,330.2427,0,93,93,93,1,0.090820321,0.090820321,shape_difference4,1,,TRUE,,intensity,0.1,0.05,0.7,0.3,0.82,20,400,1E-11,3.5,0.01,0.5,0.1,,,,,,,,,,,,,,,,,,,,,,,,,,,,,,,,,,,,,,,,,,,,,,,,,,,,,,,,,,,,,,,,,,,,,,,,,,,,,,,,,
,,,,,197640,001,2025-03-14_12h20.24.150,Utility_discrimination_2024_2cat,2024.2.4,MacIntel,61.34969325,,,,,,,,2,"[0.5,0.5]","[0.707,0.707]",s,"[0.5638521050644187,0.654045287413898]","[0.43614789493558126,0.345954712586102]",330.2441,332.425,1,d,1,0.6503,,-0.03978079,0.206820701,0.246601491,332.4283,332.4285,0,94,94,94,1,0.166715679,0.166715679,shape_difference3,1,,TRUE,,intensity,0.1,0.05,0.7,0.3,0.82,20,400,1E-11,3.5,0.01,0.5,0.1,,,,,,,,,,,,,,,,,,,,,,,,,,,,,,,,,,,,,,,,,,,,,,,,,,,,,,,,,,,,,,,,,,,,,,,,,,,,,,,,,
,,,,,197640,001,2025-03-14_12h20.24.150,Utility_discrimination_2024_2cat,2024.2.4,MacIntel,61.34969325,,,,,,,,0,"[0.5,0.5]","[1,0]",d,"[0.5587282884251707,0.5587282884251707]","[0.44127171157482925,0.44127171157482925]",332.4297,334.9742,0,s,0,1.0273,,0.110324412,0.390820502,0.28049609,334.9762,334.9762,0,95,95,95,1,0.083066886,0.083066886,shape_difference2,1,,TRUE,,intensity,0.1,0.05,0.7,0.3,0.82,20,400,1E-11,3.5,0.01,0.5,0.1,,,,,,,,,,,,,,,,,,,,,,,,,,,,,,,,,,,,,,,,,,,,,,,,,,,,,,,,,,,,,,,,,,,,,,,,,,,,,,,,,
,,,,,197640,001,2025-03-14_12h20.24.150,Utility_discrimination_2024_2cat,2024.2.4,MacIntel,61.34969325,,,,,,,,3,"[0.5,0.5]","[0.383,0.924]",d,"[0.7477263670952439,0.5]","[0.2522736329047561,0.5]",334.9772,337.324,1,s,1,0.8159,,0.018333202,0.292056341,0.273723139,337.3272,337.3273,0,96,96,96,1,0.247726367,0.247726367,shape_difference0,1,,TRUE,,intensity,0.1,0.05,0.7,0.3,0.82,20,400,1E-11,3.5,0.01,0.5,0.1,,,,,,,,,,,,,,,,,,,,,,,,,,,,,,,,,,,,,,,,,,,,,,,,,,,,,,,,,,,,,,,,,,,,,,,,,,,,,,,,,
,,,,,197640,001,2025-03-14_12h20.24.150,Utility_discrimination_2024_2cat,2024.2.4,MacIntel,61.34969325,,,,,,,,1,"[0.5,0.5]","[0.924,0.383]",s,"[0.5609965033926227,0.647156055182202]","[0.4390034966073773,0.35284394481779796]",337.3283,339.825,1,d,1,0.9661,,-0.03978079,0.206820701,0.246601491,339.8275,339.8275,0,97,97,97,1,0.1592598,0.1592598,shape_difference3,1,,TRUE,,intensity,0.1,0.05,0.7,0.3,0.82,20,400,1E-11,3.5,0.01,0.5,0.1,,,,,,,,,,,,,,,,,,,,,,,,,,,,,,,,,,,,,,,,,,,,,,,,,,,,,,,,,,,,,,,,,,,,,,,,,,,,,,,,,
,,,,,197640,001,2025-03-14_12h20.24.150,Utility_discrimination_2024_2cat,2024.2.4,MacIntel,61.34969325,,,,,,,,4,"[0.5,0.5]","[0,1]",d,"[0.5767538026942826,0.5318146173505522]","[0.4232461973057174,0.4681853826494478]",339.8287,342.8741,1,s,1,1.5167,,-0.03978079,0.206820701,0.246601491,342.8773,342.8773,0,98,98,98,1,0.083066886,0.083066886,shape_difference1,1,,TRUE,,intensity,0.1,0.05,0.7,0.3,0.82,20,400,1E-11,3.5,0.01,0.5,0.1,,,,,,,,,,,,,,,,,,,,,,,,,,,,,,,,,,,,,,,,,,,,,,,,,,,,,,,,,,,,,,,,,,,,,,,,,,,,,,,,,
,,,,,197640,001,2025-03-14_12h20.24.150,Utility_discrimination_2024_2cat,2024.2.4,MacIntel,61.34969325,,,,,,,,0,"[0.5,0.5]","[1,0]",s,"[0.5,0.5830668860327733]","[0.5,0.41693311396722665]",342.8783,345.6249,1,d,1,1.2156,,0.107972633,0.379577515,0.271604882,345.6274,345.6274,0,99,99,99,1,0.083066886,0.083066886,shape_difference4,1,,TRUE,,intensity,0.1,0.05,0.7,0.3,0.82,20,400,1E-11,3.5,0.01,0.5,0.1,,,,,,,,,,,,,,,,,,,,,,,,,,,,,,,,,,,,,,,,,,,,,,,,,,,,,,,,,,,,,,,,,,,,,,,,,,,,,,,,,
,,,,,197640,001,2025-03-14_12h20.24.150,Utility_discrimination_2024_2cat,2024.2.4,MacIntel,61.34969325,,,,,,,,3,"[0.5,0.5]","[0.383,0.924]",d,"[0.7379063474296202,0.5]","[0.26209365257037975,0.5]",345.6283,347.9407,1,s,1,0.7868,,0.015794284,0.280890013,0.265095729,347.9442,347.9442,0,100,100,100,1,0.237906347,0.237906347,shape_difference0,1,,TRUE,,intensity,0.1,0.05,0.7,0.3,0.82,20,400,1E-11,3.5,0.01,0.5,0.1,,,,,,,,,,,,,,,,,,,,,,,,,,,,,,,,,,,,,,,,,,,,,,,,,,,,,,,,,,,,,,,,,,,,,,,,,,,,,,,,,
,,,,,197640,001,2025-03-14_12h20.24.150,Utility_discrimination_2024_2cat,2024.2.4,MacIntel,61.34969325,,,,,,,,1,"[0.5,0.5]","[0.924,0.383]",s,"[0.5583897186634527,0.6408671019452488]","[0.4416102813365473,0.3591328980547512]",347.9453,350.1916,1,d,1,0.7175,,-0.050303056,0.195096419,0.245399476,350.1942,350.1942,0,101,101,101,1,0.152453574,0.152453574,shape_difference3,1,,TRUE,,intensity,0.1,0.05,0.7,0.3,0.82,20,400,1E-11,3.5,0.01,0.5,0.1,,,,,,,,,,,,,,,,,,,,,,,,,,,,,,,,,,,,,,,,,,,,,,,,,,,,,,,,,,,,,,,,,,,,,,,,,,,,,,,,,
,,,,,197640,001,2025-03-14_12h20.24.150,Utility_discrimination_2024_2cat,2024.2.4,MacIntel,61.34969325,,,,,,,,4,"[0.5,0.5]","[0,1]",d,"[0.5708173869463935,0.5293539601736674]","[0.4291826130536065,0.4706460398263326]",350.1951,352.4907,1,s,1,0.7774,,-0.050303056,0.195096419,0.245399476,352.4933,352.4933,0,102,102,102,1,0.076642194,0.076642194,shape_difference1,1,,TRUE,,intensity,0.1,0.05,0.7,0.3,0.82,20,400,1E-11,3.5,0.01,0.5,0.1,,,,,,,,,,,,,,,,,,,,,,,,,,,,,,,,,,,,,,,,,,,,,,,,,,,,,,,,,,,,,,,,,,,,,,,,,,,,,,,,,
,,,,,197640,001,2025-03-14_12h20.24.150,Utility_discrimination_2024_2cat,2024.2.4,MacIntel,61.34969325,,,,,,,,2,"[0.5,0.5]","[0.707,0.707]",s,"[0.5,0.576642193664928]","[0.5,0.423357806335072]",352.4942,354.7739,1,s,1,0.7497,,0.005914016,0.267250492,0.261336477,354.7763,354.7763,0,103,103,103,1,0.076642194,0.076642194,shape_difference4,1,,TRUE,,intensity,0.1,0.05,0.7,0.3,0.82,20,400,1E-11,3.5,0.01,0.5,0.1,,,,,,,,,,,,,,,,,,,,,,,,,,,,,,,,,,,,,,,,,,,,,,,,,,,,,,,,,,,,,,,,,,,,,,,,,,,,,,,,,
,,,,,197640,001,2025-03-14_12h20.24.150,Utility_discrimination_2024_2cat,2024.2.4,MacIntel,61.34969325,,,,,,,,4,"[0.5,0.5]","[0,1]",s,"[0.5827848443041937,0.5827848443041937]","[0.41721515569580625,0.41721515569580625]",354.7771,357.0249,1,d,1,0.7195,,-0.058492428,0.188843367,0.247335795,357.027,357.0271,0,104,104,104,1,0.117093132,0.117093132,shape_difference2,1,,TRUE,,intensity,0.1,0.05,0.7,0.3,0.82,20,400,1E-11,3.5,0.01,0.5,0.1,,,,,,,,,,,,,,,,,,,,,,,,,,,,,,,,,,,,,,,,,,,,,,,,,,,,,,,,,,,,,,,,,,,,,,,,,,,,,,,,,
,,,,,197640,001,2025-03-14_12h20.24.150,Utility_discrimination_2024_2cat,2024.2.4,MacIntel,61.34969325,,,,,,,,1,"[0.5,0.5]","[0.924,0.383]",d,"[0.5,0.5712033716874956]","[0.5,0.4287966283125044]",357.0282,359.5417,1,s,1,0.9952,,-0.058492428,0.188843367,0.247335795,359.5437,359.5437,0,105,105,105,1,0.071203372,0.071203372,shape_difference4,1,,TRUE,,intensity,0.1,0.05,0.7,0.3,0.82,20,400,1E-11,3.5,0.01,0.5,0.1,,,,,,,,,,,,,,,,,,,,,,,,,,,,,,,,,,,,,,,,,,,,,,,,,,,,,,,,,,,,,,,,,,,,,,,,,,,,,,,,,
,,,,,197640,001,2025-03-14_12h20.24.150,Utility_discrimination_2024_2cat,2024.2.4,MacIntel,61.34969325,,,,,,,,0,"[0.5,0.5]","[1,0]",s,"[0.5657919154392459,0.5272708913563108]","[0.4342080845607541,0.4727291086436892]",359.5446,362.0748,1,s,1,0.9996,,0.105921163,0.365950626,0.260029463,362.078,362.0781,0,106,106,106,1,0.071203372,0.071203372,shape_difference1,1,,TRUE,,intensity,0.1,0.05,0.7,0.3,0.82,20,400,1E-11,3.5,0.01,0.5,0.1,,,,,,,,,,,,,,,,,,,,,,,,,,,,,,,,,,,,,,,,,,,,,,,,,,,,,,,,,,,,,,,,,,,,,,,,,,,,,,,,,
,,,,,197640,001,2025-03-14_12h20.24.150,Utility_discrimination_2024_2cat,2024.2.4,MacIntel,61.34969325,,,,,,,,3,"[0.5,0.5]","[0.383,0.924]",s,"[0.7272019021504604,0.5]","[0.27279809784953957,0.5]",362.079,365.0081,0,d,0,1.4006,,0.013774634,0.268326959,0.254552325,365.011,365.0111,0,107,107,107,1,0.227201902,0.227201902,shape_difference0,1,,TRUE,,intensity,0.1,0.05,0.7,0.3,0.82,20,400,1E-11,3.5,0.01,0.5,0.1,,,,,,,,,,,,,,,,,,,,,,,,,,,,,,,,,,,,,,,,,,,,,,,,,,,,,,,,,,,,,,,,,,,,,,,,,,,,,,,,,
,,,,,197640,001,2025-03-14_12h20.24.150,Utility_discrimination_2024_2cat,2024.2.4,MacIntel,61.34969325,,,,,,,,2,"[0.5,0.5]","[0.707,0.707]",s,"[0.5559117251533637,0.6348888617276973]","[0.4440882748466363,0.3651111382723027]",365.012,367.3919,1,s,1,0.8611,,0.004427944,0.247468404,0.24304046,367.3944,367.3944,0,108,108,108,1,0.145983617,0.145983617,shape_difference3,1,,TRUE,,intensity,0.1,0.05,0.7,0.3,0.82,20,400,1E-11,3.5,0.01,0.5,0.1,,,,,,,,,,,,,,,,,,,,,,,,,,,,,,,,,,,,,,,,,,,,,,,,,,,,,,,,,,,,,,,,,,,,,,,,,,,,,,,,,
,,,,,197640,001,2025-03-14_12h20.24.150,Utility_discrimination_2024_2cat,2024.2.4,MacIntel,61.34969325,,,,,,,,0,"[0.5,0.5]","[1,0]",s,"[0.5725279271033884,0.5725279271033884]","[0.4274720728966116,0.4274720728966116]",367.3953,369.5914,1,s,1,0.6672,,0.114433117,0.390748134,0.276315017,369.5943,369.5943,0,109,109,109,1,0.10258547,0.10258547,shape_difference2,1,,TRUE,,intensity,0.1,0.05,0.7,0.3,0.82,20,400,1E-11,3.5,0.01,0.5,0.1,,,,,,,,,,,,,,,,,,,,,,,,,,,,,,,,,,,,,,,,,,,,,,,,,,,,,,,,,,,,,,,,,,,,,,,,,,,,,,,,,
,,,,,197640,001,2025-03-14_12h20.24.150,Utility_discrimination_2024_2cat,2024.2.4,MacIntel,61.34969325,,,,,,,,3,"[0.5,0.5]","[0.383,0.924]",s,"[0.7532345869712842,0.5]","[0.2467654130287158,0.5]",369.5954,420.9406,1,s,1,49.8174,,0.011788076,0.255839603,0.244051527,420.9428,420.9429,0,110,110,110,1,0.253234587,0.253234587,shape_difference0,1,,TRUE,,intensity,0.1,0.05,0.7,0.3,0.82,20,400,1E-11,3.5,0.01,0.5,0.1,,,,,,,,,,,,,,,,,,,,,,,,,,,,,,,,,,,,,,,,,,,,,,,,,,,,,,,,,,,,,,,,,,,,,,,,,,,,,,,,,
,,,,,197640,001,2025-03-14_12h20.24.150,Utility_discrimination_2024_2cat,2024.2.4,MacIntel,61.34969325,,,,,,,,4,"[0.5,0.5]","[0,1]",s,"[0.5531999862194095,0.6283467030463038]","[0.44680001378059053,0.3716532969536962]",420.9437,423.3069,1,d,1,0.8441,,-0.064956007,0.182086067,0.247042074,423.3101,423.3101,0,111,111,111,1,0.138903358,0.138903358,shape_difference3,1,,TRUE,,intensity,0.1,0.05,0.7,0.3,0.82,20,400,1E-11,3.5,0.01,0.5,0.1,,,,,,,,,,,,,,,,,,,,,,,,,,,,,,,,,,,,,,,,,,,,,,,,,,,,,,,,,,,,,,,,,,,,,,,,,,,,,,,,,
,,,,,197640,001,2025-03-14_12h20.24.150,Utility_discrimination_2024_2cat,2024.2.4,MacIntel,61.34969325,,,,,,,,1,"[0.5,0.5]","[0.924,0.383]",d,"[0.5,0.5664853660985087]","[0.5,0.4335146339014912]",423.3112,425.574,1,s,1,0.7372,,-0.064956007,0.182086067,0.247042074,425.5758,425.5758,0,112,112,112,1,0.066485366,0.066485366,shape_difference4,1,,TRUE,,intensity,0.1,0.05,0.7,0.3,0.82,20,400,1E-11,3.5,0.01,0.5,0.1,,,,,,,,,,,,,,,,,,,,,,,,,,,,,,,,,,,,,,,,,,,,,,,,,,,,,,,,,,,,,,,,,,,,,,,,,,,,,,,,,
,,,,,197640,001,2025-03-14_12h20.24.150,Utility_discrimination_2024_2cat,2024.2.4,MacIntel,61.34969325,,,,,,,,2,"[0.5,0.5]","[0.707,0.707]",s,"[0.5614324782750222,0.5254638952157289]","[0.43856752172497787,0.4745361047842711]",425.5766,428.3245,0,d,0,1.2287,,0.003042523,0.222203179,0.219160656,428.3269,428.3269,0,113,113,113,1,0.066485366,0.066485366,shape_difference1,1,,TRUE,,intensity,0.1,0.05,0.7,0.3,0.82,20,400,1E-11,3.5,0.01,0.5,0.1,,,,,,,,,,,,,,,,,,,,,,,,,,,,,,,,,,,,,,,,,,,,,,,,,,,,,,,,,,,,,,,,,,,,,,,,,,,,,,,,,
,,,,,197640,001,2025-03-14_12h20.24.150,Utility_discrimination_2024_2cat,2024.2.4,MacIntel,61.34969325,,,,,,,,0,"[0.5,0.5]","[1,0]",s,"[0.5656351339295955,0.5656351339295955]","[0.4343648660704045,0.4343648660704045]",428.3277,430.491,1,s,1,0.6315,,0.112455185,0.378208279,0.265753094,430.4939,430.494,0,114,114,114,1,0.092836116,0.092836116,shape_difference2,1,,TRUE,,intensity,0.1,0.05,0.7,0.3,0.82,20,400,1E-11,3.5,0.01,0.5,0.1,,,,,,,,,,,,,,,,,,,,,,,,,,,,,,,,,,,,,,,,,,,,,,,,,,,,,,,,,,,,,,,,,,,,,,,,,,,,,,,,,
,,,,,197640,001,2025-03-14_12h20.24.150,Utility_discrimination_2024_2cat,2024.2.4,MacIntel,61.34969325,,,,,,,,2,"[0.5,0.5]","[0.707,0.707]",s,"[0.7453842200447852,0.5]","[0.2546157799552148,0.5]",430.4955,432.8243,0,s,0,0.7987,,0.001700423,0.19852274,0.196822316,432.8271,432.8271,0,115,115,115,1,0.24538422,0.24538422,shape_difference0,1,,TRUE,,intensity,0.1,0.05,0.7,0.3,0.82,20,400,1E-11,3.5,0.01,0.5,0.1,,,,,,,,,,,,,,,,,,,,,,,,,,,,,,,,,,,,,,,,,,,,,,,,,,,,,,,,,,,,,,,,,,,,,,,,,,,,,,,,,
,,,,,197640,001,2025-03-14_12h20.24.150,Utility_discrimination_2024_2cat,2024.2.4,MacIntel,61.34969325,,,,,,,,1,"[0.5,0.5]","[0.924,0.383]",d,"[0.5606417432680395,0.5606417432680395]","[0.4393582567319605,0.4393582567319605]",432.8282,435.2575,0,s,0,0.8998,,0.001700423,0.19852274,0.196822316,435.2604,435.2605,0,116,116,116,1,0.085773329,0.085773329,shape_difference2,1,,TRUE,,intensity,0.1,0.05,0.7,0.3,0.82,20,400,1E-11,3.5,0.01,0.5,0.1,,,,,,,,,,,,,,,,,,,,,,,,,,,,,,,,,,,,,,,,,,,,,,,,,,,,,,,,,,,,,,,,,,,,,,,,,,,,,,,,,
,,,,,197640,001,2025-03-14_12h20.24.150,Utility_discrimination_2024_2cat,2024.2.4,MacIntel,61.34969325,,,,,,,,4,"[0.5,0.5]","[0,1]",d,"[0.5792545555582298,0.5328511848255433]","[0.42074544444177014,0.46714881517445667]",435.2614,437.6743,0,d,0,0.8822,,-0.070123409,0.174515687,0.244639096,437.6776,437.6776,0,117,117,117,1,0.085773329,0.085773329,shape_difference1,1,,TRUE,,intensity,0.1,0.05,0.7,0.3,0.82,20,400,1E-11,3.5,0.01,0.5,0.1,,,,,,,,,,,,,,,,,,,,,,,,,,,,,,,,,,,,,,,,,,,,,,,,,,,,,,,,,,,,,,,,,,,,,,,,,,,,,,,,,
,,,,,197640,001,2025-03-14_12h20.24.150,Utility_discrimination_2024_2cat,2024.2.4,MacIntel,61.34969325,,,,,,,,3,"[0.5,0.5]","[0.383,0.924]",s,"[0.5,0.5622787470163502]","[0.5,0.43772125298364983]",437.6785,440.1573,1,d,1,0.9508,,0.010145256,0.240308229,0.230162973,440.1599,440.1599,0,118,118,118,1,0.062278747,0.062278747,shape_difference4,1,,TRUE,,intensity,0.1,0.05,0.7,0.3,0.82,20,400,1E-11,3.5,0.01,0.5,0.1,,,,,,,,,,,,,,,,,,,,,,,,,,,,,,,,,,,,,,,,,,,,,,,,,,,,,,,,,,,,,,,,,,,,,,,,,,,,,,,,,
,,,,,197640,001,2025-03-14_12h20.24.150,Utility_discrimination_2024_2cat,2024.2.4,MacIntel,61.34969325,,,,,,,,2,"[0.5,0.5]","[0.707,0.707]",d,"[0.5501951991299014,0.621097556125402]","[0.4498048008700985,0.378902443874598]",440.1609,442.5908,1,d,1,0.9041,,0.007877677,0.253072254,0.245194578,442.5932,442.5932,0,119,119,119,1,0.131057961,0.131057961,shape_difference3,1,,TRUE,,intensity,0.1,0.05,0.7,0.3,0.82,20,400,1E-11,3.5,0.01,0.5,0.1,,,,,,,,,,,,,,,,,,,,,,,,,,,,,,,,,,,,,,,,,,,,,,,,,,,,,,,,,,,,,,,,,,,,,,,,,,,,,,,,,
,,,,,197640,001,2025-03-14_12h20.24.150,Utility_discrimination_2024_2cat,2024.2.4,MacIntel,61.34969325,,,,,,,,4,"[0.5,0.5]","[0,1]",d,"[0.5822634250748154,0.5822634250748154]","[0.41773657492518457,0.41773657492518457]",442.5943,444.9408,1,s,1,0.8169,,-0.074303048,0.165763896,0.240066944,444.9436,444.9436,0,120,120,120,1,0.116355622,0.116355622,shape_difference2,1,,TRUE,,intensity,0.1,0.05,0.7,0.3,0.82,20,400,1E-11,3.5,0.01,0.5,0.1,,,,,,,,,,,,,,,,,,,,,,,,,,,,,,,,,,,,,,,,,,,,,,,,,,,,,,,,,,,,,,,,,,,,,,,,,,,,,,,,,
,,,,,197640,001,2025-03-14_12h20.24.150,Utility_discrimination_2024_2cat,2024.2.4,MacIntel,61.34969325,,,,,,,,1,"[0.5,0.5]","[0.924,0.383]",s,"[0.5,0.5584137566198095]","[0.5,0.44158624338019054]",444.9446,447.4899,1,d,1,1.0162,,0.007877677,0.253072254,0.245194578,447.4934,447.4934,0,121,121,121,1,0.058413757,0.058413757,shape_difference4,1,,TRUE,,intensity,0.1,0.05,0.7,0.3,0.82,20,400,1E-11,3.5,0.01,0.5,0.1,,,,,,,,,,,,,,,,,,,,,,,,,,,,,,,,,,,,,,,,,,,,,,,,,,,,,,,,,,,,,,,,,,,,,,,,,,,,,,,,,
,,,,,197640,001,2025-03-14_12h20.24.150,Utility_discrimination_2024_2cat,2024.2.4,MacIntel,61.34969325,,,,,,,,0,"[0.5,0.5]","[1,0]",d,"[0.6075125951472835,0.544564203399794]","[0.3924874048527165,0.45543579660020606]",447.4943,454.6241,0,s,0,5.6017,,0.121404752,0.395698619,0.274293866,454.6269,454.6269,0,122,122,122,1,0.116355622,0.116355622,shape_difference1,1,,TRUE,,intensity,0.1,0.05,0.7,0.3,0.82,20,400,1E-11,3.5,0.01,0.5,0.1,,,,,,,,,,,,,,,,,,,,,,,,,,,,,,,,,,,,,,,,,,,,,,,,,,,,,,,,,,,,,,,,,,,,,,,,,,,,,,,,,
,,,,,197640,001,2025-03-14_12h20.24.150,Utility_discrimination_2024_2cat,2024.2.4,MacIntel,61.34969325,,,,,,,,3,"[0.5,0.5]","[0.383,0.924]",d,"[0.7635710732979362,0.5]","[0.23642892670206378,0.5]",454.6278,457.3908,1,d,1,1.2368,,0.008762988,0.220617399,0.211854411,457.394,457.3941,0,123,123,123,1,0.263571073,0.263571073,shape_difference0,1,,TRUE,,intensity,0.1,0.05,0.7,0.3,0.82,20,400,1E-11,3.5,0.01,0.5,0.1,,,,,,,,,,,,,,,,,,,,,,,,,,,,,,,,,,,,,,,,,,,,,,,,,,,,,,,,,,,,,,,,,,,,,,,,,,,,,,,,,
,,,,,197640,001,2025-03-14_12h20.24.150,Utility_discrimination_2024_2cat,2024.2.4,MacIntel,61.34969325,,,,,,,,2,"[0.5,0.5]","[0.707,0.707]",d,"[0.5467964369541289,0.6128979314506923]","[0.45320356304587106,0.38710206854930773]",457.395,460.9907,1,s,1,2.0655,,0.00675075,0.231389384,0.224638634,460.9932,460.9932,0,124,124,124,1,0.122183908,0.122183908,shape_difference3,1,,TRUE,,intensity,0.1,0.05,0.7,0.3,0.82,20,400,1E-11,3.5,0.01,0.5,0.1,,,,,,,,,,,,,,,,,,,,,,,,,,,,,,,,,,,,,,,,,,,,,,,,,,,,,,,,,,,,,,,,,,,,,,,,,,,,,,,,,
,,,,,197640,001,2025-03-14_12h20.24.150,Utility_discrimination_2024_2cat,2024.2.4,MacIntel,61.34969325,,,,,,,,4,"[0.5,0.5]","[0,1]",s,"[0.572879272452599,0.572879272452599]","[0.42712072754740105,0.42712072754740105]",460.9941,463.2064,1,s,1,0.6874,,-0.077719506,0.15537711,0.233096616,463.2088,463.2089,0,125,125,125,1,0.103082422,0.103082422,shape_difference2,1,,TRUE,,intensity,0.1,0.05,0.7,0.3,0.82,20,400,1E-11,3.5,0.01,0.5,0.1,,,,,,,,,,,,,,,,,,,,,,,,,,,,,,,,,,,,,,,,,,,,,,,,,,,,,,,,,,,,,,,,,,,,,,,,,,,,,,,,,
,,,,,197640,001,2025-03-14_12h20.24.150,Utility_discrimination_2024_2cat,2024.2.4,MacIntel,61.34969325,,,,,,,,3,"[0.5,0.5]","[0.383,0.924]",s,"[0.5,0.5547486625415246]","[0.5,0.4452513374584754]",463.2097,465.3573,1,s,1,0.6259,,0.007576324,0.199507592,0.191931268,465.3599,465.3599,0,126,126,126,1,0.054748663,0.054748663,shape_difference4,1,,TRUE,,intensity,0.1,0.05,0.7,0.3,0.82,20,400,1E-11,3.5,0.01,0.5,0.1,,,,,,,,,,,,,,,,,,,,,,,,,,,,,,,,,,,,,,,,,,,,,,,,,,,,,,,,,,,,,,,,,,,,,,,,,,,,,,,,,
,,,,,197640,001,2025-03-14_12h20.24.150,Utility_discrimination_2024_2cat,2024.2.4,MacIntel,61.34969325,,,,,,,,0,"[0.5,0.5]","[1,0]",s,"[0.5428882460892619,0.6034692934372794]","[0.4571117539107381,0.3965307065627206]",465.3609,467.6739,1,s,1,0.7874,,0.118388676,0.385436314,0.267047638,467.6759,467.6759,0,127,127,127,1,0.111979755,0.111979755,shape_difference3,1,,TRUE,,intensity,0.1,0.05,0.7,0.3,0.82,20,400,1E-11,3.5,0.01,0.5,0.1,,,,,,,,,,,,,,,,,,,,,,,,,,,,,,,,,,,,,,,,,,,,,,,,,,,,,,,,,,,,,,,,,,,,,,,,,,,,,,,,,
,,,,,197640,001,2025-03-14_12h20.24.150,Utility_discrimination_2024_2cat,2024.2.4,MacIntel,61.34969325,,,,,,,,1,"[0.5,0.5]","[0.924,0.383]",s,"[0.7568915040634693,0.5]","[0.24310849593653072,0.5]",467.6767,479.974,1,s,1,10.7659,,0.013044799,0.284687741,0.271642943,479.9776,479.9776,0,128,128,128,1,0.256891504,0.256891504,shape_difference0,1,,TRUE,,intensity,0.1,0.05,0.7,0.3,0.82,20,400,1E-11,3.5,0.01,0.5,0.1,,,,,,,,,,,,,,,,,,,,,,,,,,,,,,,,,,,,,,,,,,,,,,,,,,,,,,,,,,,,,,,,,,,,,,,,,,,,,,,,,
,,,,,197640,001,2025-03-14_12h20.24.150,Utility_discrimination_2024_2cat,2024.2.4,MacIntel,61.34969325,,,,,,,,0,"[0.5,0.5]","[1,0]",s,"[0.6341409198222161,0.5556017016146199]","[0.3658590801777839,0.44439829838538014]",479.9787,482.2071,1,d,1,0.7115,,0.116007216,0.374097026,0.25808981,482.2099,482.2099,0,129,129,129,1,0.145174156,0.145174156,shape_difference1,1,,TRUE,,intensity,0.1,0.05,0.7,0.3,0.82,20,400,1E-11,3.5,0.01,0.5,0.1,,,,,,,,,,,,,,,,,,,,,,,,,,,,,,,,,,,,,,,,,,,,,,,,,,,,,,,,,,,,,,,,,,,,,,,,,,,,,,,,,
,,,,,197640,001,2025-03-14_12h20.24.150,Utility_discrimination_2024_2cat,2024.2.4,MacIntel,61.34969325,,,,,,,,2,"[0.5,0.5]","[0.707,0.707]",d,"[0.7506798753850248,0.5]","[0.2493201246149752,0.5]",482.2107,484.8574,1,s,1,1.1163,,0.005758662,0.203478826,0.197720163,484.8606,484.8607,0,130,130,130,1,0.250679875,0.250679875,shape_difference0,1,,TRUE,,intensity,0.1,0.05,0.7,0.3,0.82,20,400,1E-11,3.5,0.01,0.5,0.1,,,,,,,,,,,,,,,,,,,,,,,,,,,,,,,,,,,,,,,,,,,,,,,,,,,,,,,,,,,,,,,,,,,,,,,,,,,,,,,,,
,,,,,197640,001,2025-03-14_12h20.24.150,Utility_discrimination_2024_2cat,2024.2.4,MacIntel,61.34969325,,,,,,,,1,"[0.5,0.5]","[0.924,0.383]",s,"[0.5662130316034558,0.5662130316034558]","[0.43378696839654424,0.43378696839654424]",484.8618,487.6408,1,s,1,1.2595,,0.011299618,0.272085377,0.260785759,487.648,487.6481,0,131,131,131,1,0.09365351,0.09365351,shape_difference2,1,,TRUE,,intensity,0.1,0.05,0.7,0.3,0.82,20,400,1E-11,3.5,0.01,0.5,0.1,,,,,,,,,,,,,,,,,,,,,,,,,,,,,,,,,,,,,,,,,,,,,,,,,,,,,,,,,,,,,,,,,,,,,,,,,,,,,,,,,
,,,,,197640,001,2025-03-14_12h20.24.150,Utility_discrimination_2024_2cat,2024.2.4,MacIntel,61.34969325,,,,,,,,4,"[0.5,0.5]","[0,1]",s,"[0.6258859709195475,0.552180007426609]","[0.37411402908045255,0.44781999257339106]",487.649,490.6396,0,d,0,1.4731,,-0.080538639,0.142783066,0.223321705,490.642,490.642,0,132,132,132,1,0.136240228,0.136240228,shape_difference1,1,,TRUE,,intensity,0.1,0.05,0.7,0.3,0.82,20,400,1E-11,3.5,0.01,0.5,0.1,,,,,,,,,,,,,,,,,,,,,,,,,,,,,,,,,,,,,,,,,,,,,,,,,,,,,,,,,,,,,,,,,,,,,,,,,,,,,,,,,
,,,,,197640,001,2025-03-14_12h20.24.150,Utility_discrimination_2024_2cat,2024.2.4,MacIntel,61.34969325,,,,,,,,3,"[0.5,0.5]","[0.383,0.924]",s,"[0.5,0.5511610896187775]","[0.5,0.4488389103812224]",490.6429,492.8572,0,s,0,0.6848,,0.006533644,0.196599517,0.190065874,492.8599,492.8599,0,133,133,133,1,0.05116109,0.05116109,shape_difference4,1,,TRUE,,intensity,0.1,0.05,0.7,0.3,0.82,20,400,1E-11,3.5,0.01,0.5,0.1,,,,,,,,,,,,,,,,,,,,,,,,,,,,,,,,,,,,,,,,,,,,,,,,,,,,,,,,,,,,,,,,,,,,,,,,,,,,,,,,,
,,,,,197640,001,2025-03-14_12h20.24.150,Utility_discrimination_2024_2cat,2024.2.4,MacIntel,61.34969325,,,,,,,,1,"[0.5,0.5]","[0.924,0.383]",d,"[0.5383361633807127,0.5924872453362363]","[0.46166383661928734,0.40751275466376374]",492.8612,496.5734,1,d,1,2.1918,,0.017741121,0.294412248,0.276671127,496.5754,496.5754,0,134,134,134,1,0.100094421,0.100094421,shape_difference3,1,,TRUE,,intensity,0.1,0.05,0.7,0.3,0.82,20,400,1E-11,3.5,0.01,0.5,0.1,,,,,,,,,,,,,,,,,,,,,,,,,,,,,,,,,,,,,,,,,,,,,,,,,,,,,,,,,,,,,,,,,,,,,,,,,,,,,,,,,
,,,,,197640,001,2025-03-14_12h20.24.150,Utility_discrimination_2024_2cat,2024.2.4,MacIntel,61.34969325,,,,,,,,0,"[0.5,0.5]","[1,0]",d,"[0.6454590156485228,0.5602930768326669]","[0.3545409843514772,0.43970692316733306]",496.5763,499.0071,1,s,1,0.9005,,0.114098624,0.361015937,0.246917313,499.0104,499.0105,0,135,135,135,1,0.157423177,0.157423177,shape_difference1,1,,TRUE,,intensity,0.1,0.05,0.7,0.3,0.82,20,400,1E-11,3.5,0.01,0.5,0.1,,,,,,,,,,,,,,,,,,,,,,,,,,,,,,,,,,,,,,,,,,,,,,,,,,,,,,,,,,,,,,,,,,,,,,,,,,,,,,,,,
,,,,,197640,001,2025-03-14_12h20.24.150,Utility_discrimination_2024_2cat,2024.2.4,MacIntel,61.34969325,,,,,,,,3,"[0.5,0.5]","[0.383,0.924]",s,"[0.7446756040246683,0.5]","[0.2553243959753317,0.5]",499.0113,501.1738,1,s,1,0.6321,,0.005593064,0.193650951,0.188057887,501.1773,501.1773,0,136,136,136,1,0.244675604,0.244675604,shape_difference0,1,,TRUE,,intensity,0.1,0.05,0.7,0.3,0.82,20,400,1E-11,3.5,0.01,0.5,0.1,,,,,,,,,,,,,,,,,,,,,,,,,,,,,,,,,,,,,,,,,,,,,,,,,,,,,,,,,,,,,,,,,,,,,,,,,,,,,,,,,
,,,,,197640,001,2025-03-14_12h20.24.150,Utility_discrimination_2024_2cat,2024.2.4,MacIntel,61.34969325,,,,,,,,2,"[0.5,0.5]","[0.707,0.707]",s,"[0.5354314149938142,0.5854794450503508]","[0.46456858500618575,0.41452055494964923]",501.1781,503.3905,1,s,1,0.694,,0.004856599,0.196194606,0.191338007,503.3929,503.3929,0,137,137,137,1,0.092510222,0.092510222,shape_difference3,1,,TRUE,,intensity,0.1,0.05,0.7,0.3,0.82,20,400,1E-11,3.5,0.01,0.5,0.1,,,,,,,,,,,,,,,,,,,,,,,,,,,,,,,,,,,,,,,,,,,,,,,,,,,,,,,,,,,,,,,,,,,,,,,,,,,,,,,,,
,,,,,197640,001,2025-03-14_12h20.24.150,Utility_discrimination_2024_2cat,2024.2.4,MacIntel,61.34969325,,,,,,,,4,"[0.5,0.5]","[0,1]",s,"[0.5614897780631235,0.5614897780631235]","[0.4385102219368765,0.4385102219368765]",503.3938,505.5071,1,s,1,0.5923,,-0.038353935,0.176515447,0.214869382,505.5096,505.5097,0,138,138,138,1,0.086972812,0.086972812,shape_difference2,1,,TRUE,,intensity,0.1,0.05,0.7,0.3,0.82,20,400,1E-11,3.5,0.01,0.5,0.1,,,,,,,,,,,,,,,,,,,,,,,,,,,,,,,,,,,,,,,,,,,,,,,,,,,,,,,,,,,,,,,,,,,,,,,,,,,,,,,,,
,,,,,197640,001,2025-03-14_12h20.24.150,Utility_discrimination_2024_2cat,2024.2.4,MacIntel,61.34969325,,,,,,,,0,"[0.5,0.5]","[1,0]",s,"[0.5,0.567757836796504]","[0.5,0.43224216320349595]",505.5104,507.9068,0,s,0,0.8653,,0.112241086,0.347613065,0.235371979,507.9093,507.9094,0,139,139,139,1,0.067757837,0.067757837,shape_difference4,1,,TRUE,,intensity,0.1,0.05,0.7,0.3,0.82,20,400,1E-11,3.5,0.01,0.5,0.1,,,,,,,,,,,,,,,,,,,,,,,,,,,,,,,,,,,,,,,,,,,,,,,,,,,,,,,,,,,,,,,,,,,,,,,,,,,,,,,,,
,,,,,197640,001,2025-03-14_12h20.24.150,Utility_discrimination_2024_2cat,2024.2.4,MacIntel,61.34969325,,,,,,,,3,"[0.5,0.5]","[0.383,0.924]",d,"[0.7379249798710845,0.5]","[0.2620750201289155,0.5]",507.91,510.3894,0,d,0,0.9603,,0.004719763,0.190568477,0.185848714,510.3921,510.3921,0,140,140,140,1,0.23792498,0.23792498,shape_difference0,1,,TRUE,,intensity,0.1,0.05,0.7,0.3,0.82,20,400,1E-11,3.5,0.01,0.5,0.1,,,,,,,,,,,,,,,,,,,,,,,,,,,,,,,,,,,,,,,,,,,,,,,,,,,,,,,,,,,,,,,,,,,,,,,,,,,,,,,,,
,,,,,197640,001,2025-03-14_12h20.24.150,Utility_discrimination_2024_2cat,2024.2.4,MacIntel,61.34969325,,,,,,,,4,"[0.5,0.5]","[0,1]",s,"[0.5330527526650706,0.5797408445496741]","[0.4669472473349295,0.42025915545032594]",510.3929,512.7229,1,d,1,0.7989,,0.004008135,0.191865838,0.187857703,512.7255,512.7256,0,141,141,141,1,0.086299615,0.086299615,shape_difference3,1,,TRUE,,intensity,0.1,0.05,0.7,0.3,0.82,20,400,1E-11,3.5,0.01,0.5,0.1,,,,,,,,,,,,,,,,,,,,,,,,,,,,,,,,,,,,,,,,,,,,,,,,,,,,,,,,,,,,,,,,,,,,,,,,,,,,,,,,,
,,,,,197640,001,2025-03-14_12h20.24.150,Utility_discrimination_2024_2cat,2024.2.4,MacIntel,61.34969325,,,,,,,,1,"[0.5,0.5]","[0.924,0.383]",d,"[0.5,0.581533929916256]","[0.5,0.41846607008374404]",512.7265,515.1397,1,d,1,0.884,,0.015457478,0.281890641,0.266433163,515.1429,515.1429,0,142,142,142,1,0.08153393,0.08153393,shape_difference4,1,,TRUE,,intensity,0.1,0.05,0.7,0.3,0.82,20,400,1E-11,3.5,0.01,0.5,0.1,,,,,,,,,,,,,,,,,,,,,,,,,,,,,,,,,,,,,,,,,,,,,,,,,,,,,,,,,,,,,,,,,,,,,,,,,,,,,,,,,
,,,,,197640,001,2025-03-14_12h20.24.150,Utility_discrimination_2024_2cat,2024.2.4,MacIntel,61.34969325,,,,,,,,2,"[0.5,0.5]","[0.707,0.707]",d,"[0.6388451317181079,0.5575516076277439]","[0.3611548682818921,0.44244839237225614]",515.1438,517.6564,1,s,1,0.9852,,0.004008135,0.191865838,0.187857703,517.6588,517.659,0,143,143,143,1,0.150265294,0.150265294,shape_difference1,1,,TRUE,,intensity,0.1,0.05,0.7,0.3,0.82,20,400,1E-11,3.5,0.01,0.5,0.1,,,,,,,,,,,,,,,,,,,,,,,,,,,,,,,,,,,,,,,,,,,,,,,,,,,,,,,,,,,,,,,,,,,,,,,,,,,,,,,,,
,,,,,197640,001,2025-03-14_12h20.24.150,Utility_discrimination_2024_2cat,2024.2.4,MacIntel,61.34969325,,,,,,,,1,"[0.5,0.5]","[0.924,0.383]",s,"[0.557644488450793,0.557644488450793]","[0.44235551154920705,0.44235551154920705]",517.6603,520.4736,1,d,1,1.283,,0.01365438,0.267921901,0.254267522,520.4771,520.4772,0,144,144,144,1,0.08153393,0.08153393,shape_difference2,1,,TRUE,,intensity,0.1,0.05,0.7,0.3,0.82,20,400,1E-11,3.5,0.01,0.5,0.1,,,,,,,,,,,,,,,,,,,,,,,,,,,,,,,,,,,,,,,,,,,,,,,,,,,,,,,,,,,,,,,,,,,,,,,,,,,,,,,,,
,,,,,197640,001,2025-03-14_12h20.24.150,Utility_discrimination_2024_2cat,2024.2.4,MacIntel,61.34969325,,,,,,,,2,"[0.5,0.5]","[0.707,0.707]",d,"[0.6325422226177326,0.554939038162978]","[0.3674577773822673,0.44506096183702204]",520.4782,522.8237,1,d,1,0.8159,,0.003182621,0.187328708,0.184146087,522.8262,522.8262,0,145,145,145,1,0.143443964,0.143443964,shape_difference1,1,,TRUE,,intensity,0.1,0.05,0.7,0.3,0.82,20,400,1E-11,3.5,0.01,0.5,0.1,,,,,,,,,,,,,,,,,,,,,,,,,,,,,,,,,,,,,,,,,,,,,,,,,,,,,,,,,,,,,,,,,,,,,,,,,,,,,,,,,
,,,,,197640,001,2025-03-14_12h20.24.150,Utility_discrimination_2024_2cat,2024.2.4,MacIntel,61.34969325,,,,,,,,0,"[0.5,0.5]","[1,0]",d,"[0.5544878944437376,0.5544878944437376]","[0.44551210555626247,0.44551210555626247]",522.8278,525.1733,1,s,1,0.8174,,0.119208856,0.372106802,0.252897946,525.1762,525.1763,0,146,146,146,1,0.077069158,0.077069158,shape_difference2,1,,TRUE,,intensity,0.1,0.05,0.7,0.3,0.82,20,400,1E-11,3.5,0.01,0.5,0.1,,,,,,,,,,,,,,,,,,,,,,,,,,,,,,,,,,,,,,,,,,,,,,,,,,,,,,,,,,,,,,,,,,,,,,,,,,,,,,,,,
,,,,,197640,001,2025-03-14_12h20.24.150,Utility_discrimination_2024_2cat,2024.2.4,MacIntel,61.34969325,,,,,,,,3,"[0.5,0.5]","[0.383,0.924]",s,"[0.7542805240162579,0.5]","[0.2457194759837421,0.5]",525.1775,527.5893,1,s,1,0.8839,,0.003883971,0.187251808,0.183367837,527.5935,527.5935,0,147,147,147,1,0.254280524,0.254280524,shape_difference0,1,,TRUE,,intensity,0.1,0.05,0.7,0.3,0.82,20,400,1E-11,3.5,0.01,0.5,0.1,,,,,,,,,,,,,,,,,,,,,,,,,,,,,,,,,,,,,,,,,,,,,,,,,,,,,,,,,,,,,,,,,,,,,,,,,,,,,,,,,
,,,,,197640,001,2025-03-14_12h20.24.150,Utility_discrimination_2024_2cat,2024.2.4,MacIntel,61.34969325,,,,,,,,4,"[0.5,0.5]","[0,1]",s,"[0.531085213334101,0.57499409169898]","[0.46891478666589903,0.4250059083010201]",527.5947,530.206,1,d,1,1.0845,,0.003182621,0.187328708,0.184146087,530.2086,530.2087,0,148,148,148,1,0.081162437,0.081162437,shape_difference3,1,,TRUE,,intensity,0.1,0.05,0.7,0.3,0.82,20,400,1E-11,3.5,0.01,0.5,0.1,,,,,,,,,,,,,,,,,,,,,,,,,,,,,,,,,,,,,,,,,,,,,,,,,,,,,,,,,,,,,,,,,,,,,,,,,,,,,,,,,
,,,,,197640,001,2025-03-14_12h20.24.150,Utility_discrimination_2024_2cat,2024.2.4,MacIntel,61.34969325,,,,,,,,4,"[0.5,0.5]","[0,1]",d,"[0.5,0.5770691576290489]","[0.5,0.42293084237095113]",530.2102,532.5569,0,s,0,0.8194,,0.00698543,0.197972303,0.190986873,532.5594,532.5595,0,149,149,149,1,0.077069158,0.077069158,shape_difference4,1,,TRUE,,intensity,0.1,0.05,0.7,0.3,0.82,20,400,1E-11,3.5,0.01,0.5,0.1,,,,,,,,,,,,,,,,,,,,,,,,,,,,,,,,,,,,,,,,,,,,,,,,,,,,,,,,,,,,,,,,,,,,,,,,,,,,,,,,,
,,,,,197640,001,2025-03-14_12h20.24.150,Utility_discrimination_2024_2cat,2024.2.4,MacIntel,61.34969325,,,,,,,,0,"[0.5,0.5]","[1,0]",d,"[0.5,0.5940279856709992]","[0.5,0.40597201432900076]",532.5604,534.9402,1,s,1,0.8496,,0.116877288,0.359886065,0.243008777,534.9437,534.9437,0,150,150,150,1,0.094027986,0.094027986,shape_difference4,1,,TRUE,,intensity,0.1,0.05,0.7,0.3,0.82,20,400,1E-11,3.5,0.01,0.5,0.1,,,,,,,,,,,,,,,,,,,,,,,,,,,,,,,,,,,,,,,,,,,,,,,,,,,,,,,,,,,,,,,,,,,,,,,,,,,,,,,,,
,,,,,197640,001,2025-03-14_12h20.24.150,Utility_discrimination_2024_2cat,2024.2.4,MacIntel,61.34969325,,,,,,,,2,"[0.5,0.5]","[0.707,0.707]",s,"[0.7492771566588174,0.5]","[0.2507228433411825,0.5]",534.9446,537.1068,1,s,1,0.6372,,0.002353245,0.182426496,0.180073251,537.1093,537.1094,0,151,151,151,1,0.249277157,0.249277157,shape_difference0,1,,TRUE,,intensity,0.1,0.05,0.7,0.3,0.82,20,400,1E-11,3.5,0.01,0.5,0.1,,,,,,,,,,,,,,,,,,,,,,,,,,,,,,,,,,,,,,,,,,,,,,,,,,,,,,,,,,,,,,,,,,,,,,,,,,,,,,,,,
,,,,,197640,001,2025-03-14_12h20.24.150,Utility_discrimination_2024_2cat,2024.2.4,MacIntel,61.34969325,,,,,,,,1,"[0.5,0.5]","[0.924,0.383]",s,"[0.5518729522872918,0.5518729522872918]","[0.4481270477127082,0.4481270477127082]",537.1102,540.4735,1,d,1,1.8334,,0.01196374,0.254138294,0.242174554,540.4768,540.4768,0,152,152,152,1,0.073370512,0.073370512,shape_difference2,1,,TRUE,,intensity,0.1,0.05,0.7,0.3,0.82,20,400,1E-11,3.5,0.01,0.5,0.1,,,,,,,,,,,,,,,,,,,,,,,,,,,,,,,,,,,,,,,,,,,,,,,,,,,,,,,,,,,,,,,,,,,,,,,,,,,,,,,,,
,,,,,197640,001,2025-03-14_12h20.24.150,Utility_discrimination_2024_2cat,2024.2.4,MacIntel,61.34969325,,,,,,,,3,"[0.5,0.5]","[0.383,0.924]",d,"[0.6255891585195119,0.5520569780443432]","[0.3744108414804881,0.44794302195565683]",540.4778,542.9225,0,s,0,0.916,,0.003059413,0.183589756,0.180530343,542.9259,542.9259,0,153,153,153,1,0.135919003,0.135919003,shape_difference1,1,,TRUE,,intensity,0.1,0.05,0.7,0.3,0.82,20,400,1E-11,3.5,0.01,0.5,0.1,,,,,,,,,,,,,,,,,,,,,,,,,,,,,,,,,,,,,,,,,,,,,,,,,,,,,,,,,,,,,,,,,,,,,,,,,,,,,,,,,
,,,,,197640,001,2025-03-14_12h20.24.150,Utility_discrimination_2024_2cat,2024.2.4,MacIntel,61.34969325,,,,,,,,0,"[0.5,0.5]","[1,0]",d,"[0.5294474017950294,0.5710428179075905]","[0.47055259820497064,0.4289571820924096]",542.9268,545.2568,1,s,1,0.7994,,0.114633272,0.34751399,0.232880718,545.2595,545.2595,0,154,154,154,1,0.076886167,0.076886167,shape_difference3,1,,TRUE,,intensity,0.1,0.05,0.7,0.3,0.82,20,400,1E-11,3.5,0.01,0.5,0.1,,,,,,,,,,,,,,,,,,,,,,,,,,,,,,,,,,,,,,,,,,,,,,,,,,,,,,,,,,,,,,,,,,,,,,,,,,,,,,,,,
,,,,,197640,001,2025-03-14_12h20.24.150,Utility_discrimination_2024_2cat,2024.2.4,MacIntel,61.34969325,,,,,,,,1,"[0.5,0.5]","[0.924,0.383]",s,"[0.7438013427483469,0.5]","[0.25619865725165314,0.5]",545.2611,547.7731,1,s,1,0.9937,,0.018207174,0.279105237,0.260898063,547.7745,547.7745,0,155,155,155,1,0.243801343,0.243801343,shape_difference0,1,,TRUE,,intensity,0.1,0.05,0.7,0.3,0.82,20,400,1E-11,3.5,0.01,0.5,0.1,,,,,,,,,,,,,,,,,,,,,,,,,,,,,,,,,,,,,,,,,,,,,,,,,,,,,,,,,,,,,,,,,,,,,,,,,,,,,,,,,
,,,,,197640,001,2025-03-14_12h20.24.150,Utility_discrimination_2024_2cat,2024.2.4,MacIntel,61.34969325,,,,,,,,3,"[0.5,0.5]","[0.383,0.924]",s,"[0.6423539876560963,0.5590060360089664]","[0.3576460123439037,0.44099396399103363]",547.7749,550.3058,1,d,1,0.9993,,0.00222209,0.179455617,0.177233527,550.3085,550.3085,0,156,156,156,1,0.154062757,0.154062757,shape_difference1,1,,TRUE,,intensity,0.1,0.05,0.7,0.3,0.82,20,400,1E-11,3.5,0.01,0.5,0.1,,,,,,,,,,,,,,,,,,,,,,,,,,,,,,,,,,,,,,,,,,,,,,,,,,,,,,,,,,,,,,,,,,,,,,,,,,,,,,,,,
,,,,,197640,001,2025-03-14_12h20.24.150,Utility_discrimination_2024_2cat,2024.2.4,MacIntel,61.34969325,,,,,,,,4,"[0.5,0.5]","[0,1]",d,"[0.5280739541199811,0.5677293305662209]","[0.4719260458800188,0.43227066943377906]",550.3103,552.7566,0,d,0,0.9183,,0.006285845,0.194239002,0.187953156,552.7587,552.7587,0,157,157,157,1,0.073300141,0.073300141,shape_difference3,1,,TRUE,,intensity,0.1,0.05,0.7,0.3,0.82,20,400,1E-11,3.5,0.01,0.5,0.1,,,,,,,,,,,,,,,,,,,,,,,,,,,,,,,,,,,,,,,,,,,,,,,,,,,,,,,,,,,,,,,,,,,,,,,,,,,,,,,,,
,,,,,197640,001,2025-03-14_12h20.24.150,Utility_discrimination_2024_2cat,2024.2.4,MacIntel,61.34969325,,,,,,,,2,"[0.5,0.5]","[0.707,0.707]",s,"[0.5,0.5875657647195822]","[0.5,0.4124342352804177]",552.7595,555.2065,1,s,1,0.9175,,0.001495562,0.176985909,0.175490346,555.2099,555.2099,0,158,158,158,1,0.087565765,0.087565765,shape_difference4,1,,TRUE,,intensity,0.1,0.05,0.7,0.3,0.82,20,400,1E-11,3.5,0.01,0.5,0.1,,,,,,,,,,,,,,,,,,,,,,,,,,,,,,,,,,,,,,,,,,,,,,,,,,,,,,,,,,,,,,,,,,,,,,,,,,,,,,,,,
,,,,,197640,001,2025-03-14_12h20.24.150,Utility_discrimination_2024_2cat,2024.2.4,MacIntel,61.34969325,,,,,,,,3,"[0.5,0.5]","[0.383,0.924]",s,"[0.549684135728491,0.549684135728491]","[0.4503158642715091,0.4503158642715091]",555.2108,558.2224,0,s,0,1.4825,,0.006224074,0.189777251,0.183553178,558.2248,558.2248,0,159,159,159,1,0.070274591,0.070274591,shape_difference2,1,,TRUE,,intensity,0.1,0.05,0.7,0.3,0.82,20,400,1E-11,3.5,0.01,0.5,0.1,,,,,,,,,,,,,,,,,,,,,,,,,,,,,,,,,,,,,,,,,,,,,,,,,,,,,,,,,,,,,,,,,,,,,,,,,,,,,,,,,
,,,,,197640,001,2025-03-14_12h20.24.150,Utility_discrimination_2024_2cat,2024.2.4,MacIntel,61.34969325,,,,,,,,0,"[0.5,0.5]","[1,0]",d,"[0.5334019986534633,0.5805834118950394]","[0.46659800134653673,0.41941658810496063]",558.2265,560.5233,1,s,1,0.7657,,0.112815323,0.332135061,0.219319738,560.5266,560.5267,0,160,160,160,1,0.087211485,0.087211485,shape_difference3,1,,TRUE,,intensity,0.1,0.05,0.7,0.3,0.82,20,400,1E-11,3.5,0.01,0.5,0.1,,,,,,,,,,,,,,,,,,,,,,,,,,,,,,,,,,,,,,,,,,,,,,,,,,,,,,,,,,,,,,,,,,,,,,,,,,,,,,,,,
,,,,,197640,001,2025-03-14_12h20.24.150,Utility_discrimination_2024_2cat,2024.2.4,MacIntel,61.34969325,,,,,,,,2,"[0.5,0.5]","[0.707,0.707]",s,"[0.7377479215720015,0.5]","[0.26225207842799847,0.5]",560.5275,562.9058,1,d,1,0.8537,,0.005664494,0.190396485,0.184731992,562.908,562.908,0,161,161,161,1,0.237747922,0.237747922,shape_difference0,1,,TRUE,,intensity,0.1,0.05,0.7,0.3,0.82,20,400,1E-11,3.5,0.01,0.5,0.1,,,,,,,,,,,,,,,,,,,,,,,,,,,,,,,,,,,,,,,,,,,,,,,,,,,,,,,,,,,,,,,,,,,,,,,,,,,,,,,,,
,,,,,197640,001,2025-03-14_12h20.24.150,Utility_discrimination_2024_2cat,2024.2.4,MacIntel,61.34969325,,,,,,,,1,"[0.5,0.5]","[0.924,0.383]",d,"[0.5581874341586003,0.5581874341586003]","[0.4418125658413997,0.4418125658413997]",562.9088,565.3901,1,d,1,0.9512,,0.016007646,0.266218301,0.250210655,565.3931,565.3931,0,162,162,162,1,0.082301887,0.082301887,shape_difference2,1,,TRUE,,intensity,0.1,0.05,0.7,0.3,0.82,20,400,1E-11,3.5,0.01,0.5,0.1,,,,,,,,,,,,,,,,,,,,,,,,,,,,,,,,,,,,,,,,,,,,,,,,,,,,,,,,,,,,,,,,,,,,,,,,,,,,,,,,,
,,,,,197640,001,2025-03-14_12h20.24.150,Utility_discrimination_2024_2cat,2024.2.4,MacIntel,61.34969325,,,,,,,,4,"[0.5,0.5]","[0,1]",d,"[0.6371101723772243,0.5568324632256244]","[0.36288982762277566,0.44316753677437565]",565.3941,567.7734,0,s,0,0.8502,,0.005664494,0.190396485,0.184731992,567.7762,567.7763,0,163,163,163,1,0.148387632,0.148387632,shape_difference1,1,,TRUE,,intensity,0.1,0.05,0.7,0.3,0.82,20,400,1E-11,3.5,0.01,0.5,0.1,,,,,,,,,,,,,,,,,,,,,,,,,,,,,,,,,,,,,,,,,,,,,,,,,,,,,,,,,,,,,,,,,,,,,,,,,,,,,,,,,
,,,,,197640,001,2025-03-14_12h20.24.150,Utility_discrimination_2024_2cat,2024.2.4,MacIntel,61.34969325,,,,,,,,2,"[0.5,0.5]","[0.707,0.707]",d,"[0.5,0.582301887070156]","[0.5,0.417698112929844]",567.7778,570.1057,1,s,1,0.8004,,0.005096929,0.186319996,0.181223067,570.1092,570.1093,0,164,164,164,1,0.082301887,0.082301887,shape_difference4,1,,TRUE,,intensity,0.1,0.05,0.7,0.3,0.82,20,400,1E-11,3.5,0.01,0.5,0.1,,,,,,,,,,,,,,,,,,,,,,,,,,,,,,,,,,,,,,,,,,,,,,,,,,,,,,,,,,,,,,,,,,,,,,,,,,,,,,,,,
,,,,,197640,001,2025-03-14_12h20.24.150,Utility_discrimination_2024_2cat,2024.2.4,MacIntel,61.34969325,,,,,,,,0,"[0.5,0.5]","[1,0]",s,"[0.5551392150037344,0.5551392150037344]","[0.4448607849962655,0.4448607849962655]",570.1102,572.4067,1,s,1,0.7762,,0.111333124,0.312712525,0.201379401,572.4086,572.4086,0,165,165,165,1,0.077990403,0.077990403,shape_difference2,1,,TRUE,,intensity,0.1,0.05,0.7,0.3,0.82,20,400,1E-11,3.5,0.01,0.5,0.1,,,,,,,,,,,,,,,,,,,,,,,,,,,,,,,,,,,,,,,,,,,,,,,,,,,,,,,,,,,,,,,,,,,,,,,,,,,,,,,,,
,,,,,197640,001,2025-03-14_12h20.24.150,Utility_discrimination_2024_2cat,2024.2.4,MacIntel,61.34969325,,,,,,,,1,"[0.5,0.5]","[0.924,0.383]",s,"[0.7309228018705596,0.5]","[0.26907719812944036,0.5]",572.4101,574.7899,0,s,0,0.8549,,0.025503363,0.284638818,0.259135456,574.7923,574.7924,0,166,166,166,1,0.230922802,0.230922802,shape_difference0,1,,TRUE,,intensity,0.1,0.05,0.7,0.3,0.82,20,400,1E-11,3.5,0.01,0.5,0.1,,,,,,,,,,,,,,,,,,,,,,,,,,,,,,,,,,,,,,,,,,,,,,,,,,,,,,,,,,,,,,,,,,,,,,,,,,,,,,,,,
,,,,,197640,001,2025-03-14_12h20.24.150,Utility_discrimination_2024_2cat,2024.2.4,MacIntel,61.34969325,,,,,,,,3,"[0.5,0.5]","[0.383,0.924]",d,"[0.6493786550213506,0.5619177758367719]","[0.3506213449786494,0.43808222416322806]",574.7934,577.3565,0,s,0,1.0325,,0.005616176,0.186749717,0.181133541,577.3589,577.3589,0,167,167,167,1,0.161665211,0.161665211,shape_difference1,1,,TRUE,,intensity,0.1,0.05,0.7,0.3,0.82,20,400,1E-11,3.5,0.01,0.5,0.1,,,,,,,,,,,,,,,,,,,,,,,,,,,,,,,,,,,,,,,,,,,,,,,,,,,,,,,,,,,,,,,,,,,,,,,,,,,,,,,,,
,,,,,197640,001,2025-03-14_12h20.24.150,Utility_discrimination_2024_2cat,2024.2.4,MacIntel,61.34969325,,,,,,,,4,"[0.5,0.5]","[0,1]",d,"[0.5314689734164852,0.5759199254225389]","[0.46853102658351475,0.42408007457746116]",577.3605,579.7056,1,s,1,0.8166,,0.005096929,0.186319996,0.181223067,579.7086,579.7086,0,168,168,168,1,0.082164421,0.082164421,shape_difference3,1,,TRUE,,intensity,0.1,0.05,0.7,0.3,0.82,20,400,1E-11,3.5,0.01,0.5,0.1,,,,,,,,,,,,,,,,,,,,,,,,,,,,,,,,,,,,,,,,,,,,,,,,,,,,,,,,,,,,,,,,,,,,,,,,,,,,,,,,,
,,,,,197640,001,2025-03-14_12h20.24.150,Utility_discrimination_2024_2cat,2024.2.4,MacIntel,61.34969325,,,,,,,,2,"[0.5,0.5]","[0.707,0.707]",s,"[0.5,0.5779904031170219]","[0.5,0.4220095968829781]",579.7095,582.3065,1,d,1,1.0672,,0.00456268,0.181875556,0.177312876,582.3096,582.3097,0,169,169,169,1,0.077990403,0.077990403,shape_difference4,1,,TRUE,,intensity,0.1,0.05,0.7,0.3,0.82,20,400,1E-11,3.5,0.01,0.5,0.1,,,,,,,,,,,,,,,,,,,,,,,,,,,,,,,,,,,,,,,,,,,,,,,,,,,,,,,,,,,,,,,,,,,,,,,,,,,,,,,,,
,,,,,197640,001,2025-03-14_12h20.24.150,Utility_discrimination_2024_2cat,2024.2.4,MacIntel,61.34969325,,,,,,,,3,"[0.5,0.5]","[0.383,0.924]",d,"[0.5526282166401466,0.5526282166401466]","[0.44737178335985345,0.44737178335985345]",582.3115,584.6564,0,s,0,0.8287,,0.005054048,0.183385767,0.178331718,584.6586,584.6586,0,170,170,170,1,0.074438779,0.074438779,shape_difference2,1,,TRUE,,intensity,0.1,0.05,0.7,0.3,0.82,20,400,1E-11,3.5,0.01,0.5,0.1,,,,,,,,,,,,,,,,,,,,,,,,,,,,,,,,,,,,,,,,,,,,,,,,,,,,,,,,,,,,,,,,,,,,,,,,,,,,,,,,,
,,,,,197640,001,2025-03-14_12h20.24.150,Utility_discrimination_2024_2cat,2024.2.4,MacIntel,61.34969325,,,,,,,,0,"[0.5,0.5]","[1,0]",d,"[0.5298679609261975,0.5720574305373536]","[0.4701320390738026,0.4279425694626464]",584.6596,612.6396,0,s,0,26.4542,,0.116911389,0.348973571,0.232062182,612.6415,612.6416,0,171,171,171,1,0.077984232,0.077984232,shape_difference3,1,,TRUE,,intensity,0.1,0.05,0.7,0.3,0.82,20,400,1E-11,3.5,0.01,0.5,0.1,,,,,,,,,,,,,,,,,,,,,,,,,,,,,,,,,,,,,,,,,,,,,,,,,,,,,,,,,,,,,,,,,,,,,,,,,,,,,,,,,
,,,,,197640,001,2025-03-14_12h20.24.150,Utility_discrimination_2024_2cat,2024.2.4,MacIntel,61.34969325,,,,,,,,1,"[0.5,0.5]","[0.924,0.383]",d,"[0.7478959484541733,0.5]","[0.2521040515458267,0.5]",612.643,614.823,1,s,1,0.6514,,0.087180092,0.338115191,0.250935099,614.8261,614.8261,0,172,172,172,1,0.247895948,0.247895948,shape_difference0,1,,TRUE,,intensity,0.1,0.05,0.7,0.3,0.82,20,400,1E-11,3.5,0.01,0.5,0.1,,,,,,,,,,,,,,,,,,,,,,,,,,,,,,,,,,,,,,,,,,,,,,,,,,,,,,,,,,,,,,,,,,,,,,,,,,,,,,,,,
,,,,,197640,001,2025-03-14_12h20.24.150,Utility_discrimination_2024_2cat,2024.2.4,MacIntel,61.34969325,,,,,,,,4,"[0.5,0.5]","[0,1]",s,"[0.6698159793612403,0.570389091012289]","[0.33018402063875973,0.429610908987711]",614.8272,617.2396,1,d,1,0.8921,,0.00456268,0.181875556,0.177312876,617.2418,617.2419,0,173,173,173,1,0.183783527,0.183783527,shape_difference1,1,,TRUE,,intensity,0.1,0.05,0.7,0.3,0.82,20,400,1E-11,3.5,0.01,0.5,0.1,,,,,,,,,,,,,,,,,,,,,,,,,,,,,,,,,,,,,,,,,,,,,,,,,,,,,,,,,,,,,,,,,,,,,,,,,,,,,,,,,
,,,,,197640,001,2025-03-14_12h20.24.150,Utility_discrimination_2024_2cat,2024.2.4,MacIntel,61.34969325,,,,,,,,0,"[0.5,0.5]","[1,0]",d,"[0.5,0.5744387788403771]","[0.5,0.42556122115962297]",617.2432,621.6562,1,d,1,2.8848,,0.114728994,0.334825966,0.220096972,621.6589,621.659,0,174,174,174,1,0.074438779,0.074438779,shape_difference4,1,,TRUE,,intensity,0.1,0.05,0.7,0.3,0.82,20,400,1E-11,3.5,0.01,0.5,0.1,,,,,,,,,,,,,,,,,,,,,,,,,,,,,,,,,,,,,,,,,,,,,,,,,,,,,,,,,,,,,,,,,,,,,,,,,,,,,,,,,
,,,,,197640,001,2025-03-14_12h20.24.150,Utility_discrimination_2024_2cat,2024.2.4,MacIntel,61.34969325,,,,,,,,1,"[0.5,0.5]","[0.924,0.383]",d,"[0.7427861906098784,0.5]","[0.2572138093901216,0.5]",621.6599,624.5895,1,d,1,1.4116,,0.071677092,0.301229515,0.229552422,624.5917,624.5918,0,175,175,175,1,0.242786191,0.242786191,shape_difference0,1,,TRUE,,intensity,0.1,0.05,0.7,0.3,0.82,20,400,1E-11,3.5,0.01,0.5,0.1,,,,,,,,,,,,,,,,,,,,,,,,,,,,,,,,,,,,,,,,,,,,,,,,,,,,,,,,,,,,,,,,,,,,,,,,,,,,,,,,,
,,,,,197640,001,2025-03-14_12h20.24.150,Utility_discrimination_2024_2cat,2024.2.4,MacIntel,61.34969325,,,,,,,,2,"[0.5,0.5]","[0.707,0.707]",d,"[0.6641360144404479,0.5680347332583242]","[0.3358639855595521,0.4319652667416758]",624.5927,626.9728,1,s,1,0.8599,,0.006940583,0.192646342,0.185705759,626.9758,626.9758,0,176,176,176,1,0.177636379,0.177636379,shape_difference1,1,,TRUE,,intensity,0.1,0.05,0.7,0.3,0.82,20,400,1E-11,3.5,0.01,0.5,0.1,,,,,,,,,,,,,,,,,,,,,,,,,,,,,,,,,,,,,,,,,,,,,,,,,,,,,,,,,,,,,,,,,,,,,,,,,,,,,,,,,
,,,,,197640,001,2025-03-14_12h20.24.150,Utility_discrimination_2024_2cat,2024.2.4,MacIntel,61.34969325,,,,,,,,3,"[0.5,0.5]","[0.383,0.924]",s,"[0.5621711740908673,0.5621711740908673]","[0.43782882590913275,0.43782882590913275]",626.9768,629.1728,1,s,1,0.6665,,0.007504785,0.191660186,0.184155401,629.1759,629.1759,0,177,177,177,1,0.087936597,0.087936597,shape_difference2,1,,TRUE,,intensity,0.1,0.05,0.7,0.3,0.82,20,400,1E-11,3.5,0.01,0.5,0.1,,,,,,,,,,,,,,,,,,,,,,,,,,,,,,,,,,,,,,,,,,,,,,,,,,,,,,,,,,,,,,,,,,,,,,,,,,,,,,,,,
,,,,,197640,001,2025-03-14_12h20.24.150,Utility_discrimination_2024_2cat,2024.2.4,MacIntel,61.34969325,,,,,,,,4,"[0.5,0.5]","[0,1]",s,"[0.535973797192163,0.5867879598056359]","[0.464026202807837,0.413212040194364]",629.1769,631.4552,1,s,1,0.7593,,0.00404407,0.176914762,0.172870692,631.4581,631.4581,0,178,178,178,1,0.093926363,0.093926363,shape_difference3,1,,TRUE,,intensity,0.1,0.05,0.7,0.3,0.82,20,400,1E-11,3.5,0.01,0.5,0.1,,,,,,,,,,,,,,,,,,,,,,,,,,,,,,,,,,,,,,,,,,,,,,,,,,,,,,,,,,,,,,,,,,,,,,,,,,,,,,,,,
,,,,,197640,001,2025-03-14_12h20.24.150,Utility_discrimination_2024_2cat,2024.2.4,MacIntel,61.34969325,,,,,,,,3,"[0.5,0.5]","[0.383,0.924]",s,"[0.5,0.5714949645457793]","[0.5,0.4285050354542207]",631.459,634.6062,0,d,0,1.6164,,0.006917687,0.18909806,0.182180374,634.6096,634.6097,0,179,179,179,1,0.071494965,0.071494965,shape_difference4,1,,TRUE,,intensity,0.1,0.05,0.7,0.3,0.82,20,400,1E-11,3.5,0.01,0.5,0.1,,,,,,,,,,,,,,,,,,,,,,,,,,,,,,,,,,,,,,,,,,,,,,,,,,,,,,,,,,,,,,,,,,,,,,,,,,,,,,,,,
,,,,,197640,001,2025-03-14_12h20.24.150,Utility_discrimination_2024_2cat,2024.2.4,MacIntel,61.34969325,,,,,,,,4,"[0.5,0.5]","[0,1]",s,"[0.5336398149607703,0.5811571514980464]","[0.4663601850392297,0.41884284850195364]",634.6105,637.1228,1,s,1,0.9828,,0.006422682,0.189172856,0.182750174,637.1251,637.1251,0,180,180,180,1,0.087832415,0.087832415,shape_difference3,1,,TRUE,,intensity,0.1,0.05,0.7,0.3,0.82,20,400,1E-11,3.5,0.01,0.5,0.1,,,,,,,,,,,,,,,,,,,,,,,,,,,,,,,,,,,,,,,,,,,,,,,,,,,,,,,,,,,,,,,,,,,,,,,,,,,,,,,,,
,,,,,197640,001,2025-03-14_12h20.24.150,Utility_discrimination_2024_2cat,2024.2.4,MacIntel,61.34969325,,,,,,,,2,"[0.5,0.5]","[0.707,0.707]",s,"[0.5,0.5827612955730501]","[0.5,0.4172387044269499]",637.1261,639.7395,1,d,1,1.085,,0.006422682,0.189172856,0.182750174,639.7422,639.7422,0,181,181,181,1,0.082761296,0.082761296,shape_difference4,1,,TRUE,,intensity,0.1,0.05,0.7,0.3,0.82,20,400,1E-11,3.5,0.01,0.5,0.1,,,,,,,,,,,,,,,,,,,,,,,,,,,,,,,,,,,,,,,,,,,,,,,,,,,,,,,,,,,,,,,,,,,,,,,,,,,,,,,,,
,,,,,197640,001,2025-03-14_12h20.24.150,Utility_discrimination_2024_2cat,2024.2.4,MacIntel,61.34969325,,,,,,,,1,"[0.5,0.5]","[0.924,0.383]",d,"[0.5585122359701464,0.5585122359701464]","[0.44148776402985357,0.44148776402985357]",639.7431,642.9885,0,d,0,1.718,,0.059684755,0.292802039,0.233117285,642.9905,642.9905,0,182,182,182,1,0.082761296,0.082761296,shape_difference2,1,,TRUE,,intensity,0.1,0.05,0.7,0.3,0.82,20,400,1E-11,3.5,0.01,0.5,0.1,,,,,,,,,,,,,,,,,,,,,,,,,,,,,,,,,,,,,,,,,,,,,,,,,,,,,,,,,,,,,,,,,,,,,,,,,,,,,,,,,
,,,,,197640,001,2025-03-14_12h20.24.150,Utility_discrimination_2024_2cat,2024.2.4,MacIntel,61.34969325,,,,,,,,0,"[0.5,0.5]","[1,0]",s,"[0.6594713423383098,0.5661012165752951]","[0.3405286576616902,0.43389878342470495]",642.9914,645.4552,0,s,0,0.9441,,0.112956532,0.317117653,0.204161121,645.4574,645.4576,0,183,183,183,1,0.172588033,0.172588033,shape_difference1,1,,TRUE,,intensity,0.1,0.05,0.7,0.3,0.82,20,400,1E-11,3.5,0.01,0.5,0.1,,,,,,,,,,,,,,,,,,,,,,,,,,,,,,,,,,,,,,,,,,,,,,,,,,,,,,,,,,,,,,,,,,,,,,,,,,,,,,,,,
,,,,,197640,001,2025-03-14_12h20.24.150,Utility_discrimination_2024_2cat,2024.2.4,MacIntel,61.34969325,,,,,,,,4,"[0.5,0.5]","[0,1]",d,"[0.7370754902989844,0.5]","[0.26292450970101555,0.5]",645.4585,648.0217,1,s,1,1.032,,0.005971701,0.18543923,0.179467529,648.0249,648.0249,0,184,184,184,1,0.23707549,0.23707549,shape_difference0,1,,TRUE,,intensity,0.1,0.05,0.7,0.3,0.82,20,400,1E-11,3.5,0.01,0.5,0.1,,,,,,,,,,,,,,,,,,,,,,,,,,,,,,,,,,,,,,,,,,,,,,,,,,,,,,,,,,,,,,,,,,,,,,,,,,,,,,,,,
,,,,,197640,001,2025-03-14_12h20.24.150,Utility_discrimination_2024_2cat,2024.2.4,MacIntel,61.34969325,,,,,,,,1,"[0.5,0.5]","[0.924,0.383]",s,"[0.5,0.5785191003941378]","[0.5,0.4214808996058622]",648.0258,650.306,0,s,0,0.7492,,0.10456646,0.348707743,0.244141283,650.309,650.309,0,185,185,185,1,0.0785191,0.0785191,shape_difference4,1,,TRUE,,intensity,0.1,0.05,0.7,0.3,0.82,20,400,1E-11,3.5,0.01,0.5,0.1,,,,,,,,,,,,,,,,,,,,,,,,,,,,,,,,,,,,,,,,,,,,,,,,,,,,,,,,,,,,,,,,,,,,,,,,,,,,,,,,,
,,,,,197640,001,2025-03-14_12h20.24.150,Utility_discrimination_2024_2cat,2024.2.4,MacIntel,61.34969325,,,,,,,,0,"[0.5,0.5]","[1,0]",d,"[0.6774420179667509,0.5735501005208502]","[0.3225579820332491,0.4264498994791498]",650.3101,652.6058,1,s,1,0.7704,,0.111510349,0.29955145,0.188041101,652.6078,652.6078,0,186,186,186,1,0.192036816,0.192036816,shape_difference1,1,,TRUE,,intensity,0.1,0.05,0.7,0.3,0.82,20,400,1E-11,3.5,0.01,0.5,0.1,,,,,,,,,,,,,,,,,,,,,,,,,,,,,,,,,,,,,,,,,,,,,,,,,,,,,,,,,,,,,,,,,,,,,,,,,,,,,,,,,
,,,,,197640,001,2025-03-14_12h20.24.150,Utility_discrimination_2024_2cat,2024.2.4,MacIntel,61.34969325,,,,,,,,3,"[0.5,0.5]","[0.383,0.924]",s,"[0.730581501197976,0.5]","[0.26941849880202395,0.5]",652.6086,654.9562,1,s,1,0.8184,,0.006410111,0.186287731,0.17987762,654.9586,654.9586,0,187,187,187,1,0.230581501,0.230581501,shape_difference0,1,,TRUE,,intensity,0.1,0.05,0.7,0.3,0.82,20,400,1E-11,3.5,0.01,0.5,0.1,,,,,,,,,,,,,,,,,,,,,,,,,,,,,,,,,,,,,,,,,,,,,,,,,,,,,,,,,,,,,,,,,,,,,,,,,,,,,,,,,
,,,,,197640,001,2025-03-14_12h20.24.150,Utility_discrimination_2024_2cat,2024.2.4,MacIntel,61.34969325,,,,,,,,2,"[0.5,0.5]","[0.707,0.707]",s,"[0.5317141139739033,0.5765113350179809]","[0.46828588602609666,0.42348866498201915]",654.9611,662.0225,1,d,1,5.5416,,0.008490497,0.197279239,0.188788743,662.0248,662.0248,0,188,188,188,1,0.082804475,0.082804475,shape_difference3,1,,TRUE,,intensity,0.1,0.05,0.7,0.3,0.82,20,400,1E-11,3.5,0.01,0.5,0.1,,,,,,,,,,,,,,,,,,,,,,,,,,,,,,,,,,,,,,,,,,,,,,,,,,,,,,,,,,,,,,,,,,,,,,,,,,,,,,,,,
,,,,,197640,001,2025-03-14_12h20.24.150,Utility_discrimination_2024_2cat,2024.2.4,MacIntel,61.34969325,,,,,,,,0,"[0.5,0.5]","[1,0]",d,"[0.5730498205742306,0.5730498205742306]","[0.4269501794257694,0.4269501794257694]",662.0258,664.7891,1,s,1,1.2412,,0.110324976,0.297516664,0.187191688,664.7915,664.7916,0,189,189,189,1,0.10332365,0.10332365,shape_difference2,1,,TRUE,,intensity,0.1,0.05,0.7,0.3,0.82,20,400,1E-11,3.5,0.01,0.5,0.1,,,,,,,,,,,,,,,,,,,,,,,,,,,,,,,,,,,,,,,,,,,,,,,,,,,,,,,,,,,,,,,,,,,,,,,,,,,,,,,,,
,,,,,197640,001,2025-03-14_12h20.24.150,Utility_discrimination_2024_2cat,2024.2.4,MacIntel,61.34969325,,,,,,,,4,"[0.5,0.5]","[0,1]",s,"[0.7230951452822751,0.5]","[0.27690485471772486,0.5]",664.7924,667.1391,1,s,1,0.8196,,0.007811868,0.19437001,0.186558142,667.1419,667.142,0,190,190,190,1,0.223095145,0.223095145,shape_difference0,1,,TRUE,,intensity,0.1,0.05,0.7,0.3,0.82,20,400,1E-11,3.5,0.01,0.5,0.1,,,,,,,,,,,,,,,,,,,,,,,,,,,,,,,,,,,,,,,,,,,,,,,,,,,,,,,,,,,,,,,,,,,,,,,,,,,,,,,,,
