Consent.started,Consent.stopped,key_resp.keys,key_resp.rt,key_resp.duration,participant,session,date,expName,psychopyVersion,OS,frameRate,SetupExperiment.started,SetupExperiment.stopped,DiscrimInstructions_Pre.started,DiscrimInstructions_Pre.stopped,KeyboardResponse.keys,KeyboardResponse.rt,KeyboardResponse.duration,feature_index,feature_center,feature_vector,correct_answer,coord1,coord2,DiscriminationTrial.started,DiscriminationTrial.stopped,PreTest.response,Resp_s_or_d.keys,Resp_s_or_d.corr,Resp_s_or_d.rt,Resp_s_or_d.duration,PreTest.CI_lower,PreTest.CI_upper,PreTest.CI_width,CrashPretest_2.started,CrashPretest_2.stopped,PreTest.thisRepN,PreTest.thisTrialN,PreTest.thisN,PreTest.thisIndex,PreTest.ran,PreTest.intensity,intensity,PreTest.label,PreTest.nReps,PreTest.method,PreTest.autoLog,PreTest.seed,PreTest.varName,PreTest.startVal,PreTest.minVal,PreTest.maxVal,PreTest.startValSd,PreTest.pThreshold,PreTest.nTrials,PreTest.maxTrials,PreTest.stopInterval,PreTest.beta,PreTest.delta,PreTest.gamma,PreTest.grain,WelcomeToCategorizationTask.started,WelcomeToCategorizationTask.stopped,PressAnyKey3.keys,PressAnyKey3.rt,PressAnyKey3.duration,shape_coordinates,category_center,category_sigma,subspace_center,subspace_vector1,subspace_vector2,CategorizationTrial.started,CategorizationTrial.stopped,Respond_1or2.keys,Respond_1or2.rt,Respond_1or2.duration,Feedback.started,Feedback.stopped,xcoord,ycoord,shape_coord,numeric_response_minus1,correctness,truecategory,mixture_index,respAifA,respBifA,respAifB,respBifB,trial_number,D,muAx,muAy,muBx,muBy,sigmaA,sigmaB,priorA,priorB,TrialLoop.thisRepN,TrialLoop.thisTrialN,TrialLoop.thisN,TrialLoop.thisIndex,TrialLoop.ran,DiscriminationInstructions_Post.started,DiscriminationInstructions_Post.stopped,key_resp_2.keys,key_resp_2.rt,key_resp_2.duration,PostTest.response,PostTest.CI_lower,PostTest.CI_upper,PostTest.CI_width,CrashPosttest.started,CrashPosttest.stopped,PostTest.thisRepN,PostTest.thisTrialN,PostTest.thisN,PostTest.thisIndex,PostTest.ran,PostTest.intensity,PostTest.label,PostTest.nReps,PostTest.method,PostTest.autoLog,PostTest.seed,PostTest.varName,PostTest.startVal,PostTest.minVal,PostTest.maxVal,PostTest.startValSd,PostTest.pThreshold,PostTest.nTrials,PostTest.maxTrials,PostTest.stopInterval,PostTest.beta,PostTest.delta,PostTest.gamma,PostTest.grain,Thanks.started,Thanks.stopped
0.0025,46.3558,y,46.3371,,215334,001,2025-03-15_20h35.35.895,Utility_discrimination_2024_2cat,2024.2.4,Win32,60.24096386,,,,,,,,,,,,,,,,,,,,,,,,,,,,,,,,,,,,,,,,,,,,,,,,,,,,,,,,,,,,,,,,,,,,,,,,,,,,,,,,,,,,,,,,,,,,,,,,,,,,,,,,,,,,,,,,,,,,,,,,,,,,,,,,,,,
,,,,,215334,001,2025-03-15_20h35.35.895,Utility_discrimination_2024_2cat,2024.2.4,Win32,60.24096386,46.3562,46.3565,,,,,,,,,,,,,,,,,,,,,,,,,,,,,,,,,,,,,,,,,,,,,,,,,,,,,,,,,,,,,,,,,,,,,,,,,,,,,,,,,,,,,,,,,,,,,,,,,,,,,,,,,,,,,,,,,,,,,,,,,,,,,,,,,
,,,,,215334,001,2025-03-15_20h35.35.895,Utility_discrimination_2024_2cat,2024.2.4,Win32,60.24096386,,,46.3565,74.4689,space,28.0782,,,,,,,,,,,,,,,,,,,,,,,,,,,,,,,,,,,,,,,,,,,,,,,,,,,,,,,,,,,,,,,,,,,,,,,,,,,,,,,,,,,,,,,,,,,,,,,,,,,,,,,,,,,,,,,,,,,,,,,,,,,,,
,,,,,215334,001,2025-03-15_20h35.35.895,Utility_discrimination_2024_2cat,2024.2.4,Win32,60.24096386,,,,,,,,2,"[0.5,0.5]","[0.707,0.707]",,"[0.6185239449756466,0.5]","[0.3814760550243534,0.5]",74.4917,76.6684,0,s,0,0.6592,,-0.447967632,0.547967632,0.995935263,76.6724,76.6724,0,0,0,0,1,0.118523945,0.118523945,shape_difference4,1,,TRUE,,intensity,0.1,0.05,0.7,0.3,0.82,20,400,1E-11,3.5,0.01,0.5,0.1,,,,,,,,,,,,,,,,,,,,,,,,,,,,,,,,,,,,,,,,,,,,,,,,,,,,,,,,,,,,,,,,,,,,,,,,,,,,,,,,,
,,,,,215334,001,2025-03-15_20h35.35.895,Utility_discrimination_2024_2cat,2024.2.4,Win32,60.24096386,,,,,,,,3,"[0.5,0.5]","[0.383,0.924]",d,"[0.5837964290977822,0.5837964290977822]","[0.4162035709022178,0.4162035709022178]",76.6734,78.6329,1,s,1,0.4344,,-0.447967632,0.547967632,0.995935263,78.6369,78.6369,0,1,1,1,1,0.118523945,0.118523945,shape_difference2,1,,TRUE,,intensity,0.1,0.05,0.7,0.3,0.82,20,400,1E-11,3.5,0.01,0.5,0.1,,,,,,,,,,,,,,,,,,,,,,,,,,,,,,,,,,,,,,,,,,,,,,,,,,,,,,,,,,,,,,,,,,,,,,,,,,,,,,,,,
,,,,,215334,001,2025-03-15_20h35.35.895,Utility_discrimination_2024_2cat,2024.2.4,Win32,60.24096386,,,,,,,,0,"[0.5,0.5]","[1,0]",s,"[0.5453946709256726,0.6095161251574974]","[0.4546053290743273,0.3904838748425025]",78.638,80.5144,1,s,1,0.3586,,-0.447967632,0.547967632,0.995935263,80.5167,80.5168,0,2,2,2,1,0.118523945,0.118523945,shape_difference3,1,,TRUE,,intensity,0.1,0.05,0.7,0.3,0.82,20,400,1E-11,3.5,0.01,0.5,0.1,,,,,,,,,,,,,,,,,,,,,,,,,,,,,,,,,,,,,,,,,,,,,,,,,,,,,,,,,,,,,,,,,,,,,,,,,,,,,,,,,
,,,,,215334,001,2025-03-15_20h35.35.895,Utility_discrimination_2024_2cat,2024.2.4,Win32,60.24096386,,,,,,,,1,"[0.5,0.5]","[0.924,0.383]",s,"[0.6185239449756466,0.5]","[0.3814760550243534,0.5]",80.5175,82.3974,0,s,0,0.3493,,-0.447967632,0.547967632,0.995935263,82.3998,82.3999,0,3,3,3,1,0.118523945,0.118523945,shape_difference0,1,,TRUE,,intensity,0.1,0.05,0.7,0.3,0.82,20,400,1E-11,3.5,0.01,0.5,0.1,,,,,,,,,,,,,,,,,,,,,,,,,,,,,,,,,,,,,,,,,,,,,,,,,,,,,,,,,,,,,,,,,,,,,,,,,,,,,,,,,
,,,,,215334,001,2025-03-15_20h35.35.895,Utility_discrimination_2024_2cat,2024.2.4,Win32,60.24096386,,,,,,,,2,"[0.5,0.5]","[0.707,0.707]",d,"[0.6095161251574974,0.5453946709256726]","[0.3904838748425025,0.4546053290743273]",82.4005,84.3129,1,s,1,0.386,,-0.479157219,0.478510979,0.957668197,84.3173,84.3173,0,4,4,4,1,0.118523945,0.118523945,shape_difference1,1,,TRUE,,intensity,0.1,0.05,0.7,0.3,0.82,20,400,1E-11,3.5,0.01,0.5,0.1,,,,,,,,,,,,,,,,,,,,,,,,,,,,,,,,,,,,,,,,,,,,,,,,,,,,,,,,,,,,,,,,,,,,,,,,,,,,,,,,,
,,,,,215334,001,2025-03-15_20h35.35.895,Utility_discrimination_2024_2cat,2024.2.4,Win32,60.24096386,,,,,,,,0,"[0.5,0.5]","[1,0]",s,"[0.5261601218135545,0.5261601218135545]","[0.4738398781864455,0.4738398781864455]",84.3181,86.1119,0,s,0,0.2663,,0.008797352,0.664308158,0.655510806,86.1155,86.1155,0,5,5,5,1,0.037001587,0.037001587,shape_difference2,1,,TRUE,,intensity,0.1,0.05,0.7,0.3,0.82,20,400,1E-11,3.5,0.01,0.5,0.1,,,,,,,,,,,,,,,,,,,,,,,,,,,,,,,,,,,,,,,,,,,,,,,,,,,,,,,,,,,,,,,,,,,,,,,,,,,,,,,,,
,,,,,215334,001,2025-03-15_20h35.35.895,Utility_discrimination_2024_2cat,2024.2.4,Win32,60.24096386,,,,,,,,4,"[0.5,0.5]","[0,1]",d,"[0.8247185585179694,0.5]","[0.17528144148203062,0.5]",86.1163,88.1611,0,s,0,0.522,,0.008797352,0.664308158,0.655510806,88.1643,88.1643,0,6,6,6,1,0.324718559,0.324718559,shape_difference0,1,,TRUE,,intensity,0.1,0.05,0.7,0.3,0.82,20,400,1E-11,3.5,0.01,0.5,0.1,,,,,,,,,,,,,,,,,,,,,,,,,,,,,,,,,,,,,,,,,,,,,,,,,,,,,,,,,,,,,,,,,,,,,,,,,,,,,,,,,
,,,,,215334,001,2025-03-15_20h35.35.895,Utility_discrimination_2024_2cat,2024.2.4,Win32,60.24096386,,,,,,,,1,"[0.5,0.5]","[0.924,0.383]",d,"[0.5,0.8247185585179694]","[0.5,0.17528144148203062]",88.1652,89.9771,1,s,1,0.2834,,-0.479157219,0.478510979,0.957668197,89.9814,89.9814,0,7,7,7,1,0.324718559,0.324718559,shape_difference4,1,,TRUE,,intensity,0.1,0.05,0.7,0.3,0.82,20,400,1E-11,3.5,0.01,0.5,0.1,,,,,,,,,,,,,,,,,,,,,,,,,,,,,,,,,,,,,,,,,,,,,,,,,,,,,,,,,,,,,,,,,,,,,,,,,,,,,,,,,
,,,,,215334,001,2025-03-15_20h35.35.895,Utility_discrimination_2024_2cat,2024.2.4,Win32,60.24096386,,,,,,,,3,"[0.5,0.5]","[0.383,0.924]",s,"[0.5341894661325662,0.5141716077151222]","[0.46581053386743376,0.48582839228487784]",89.9822,91.8091,0,s,0,0.3001,,-0.479157219,0.478510979,0.957668197,91.8124,91.8125,0,8,8,8,1,0.037001587,0.037001587,shape_difference1,1,,TRUE,,intensity,0.1,0.05,0.7,0.3,0.82,20,400,1E-11,3.5,0.01,0.5,0.1,,,,,,,,,,,,,,,,,,,,,,,,,,,,,,,,,,,,,,,,,,,,,,,,,,,,,,,,,,,,,,,,,,,,,,,,,,,,,,,,,
,,,,,215334,001,2025-03-15_20h35.35.895,Utility_discrimination_2024_2cat,2024.2.4,Win32,60.24096386,,,,,,,,2,"[0.5,0.5]","[0.707,0.707]",d,"[0.5141716077151222,0.5341894661325662]","[0.48582839228487784,0.46581053386743376]",91.8135,93.7422,1,s,1,0.4097,,-0.090065158,0.591798206,0.681863364,93.7452,93.7453,0,9,9,9,1,0.037001587,0.037001587,shape_difference3,1,,TRUE,,intensity,0.1,0.05,0.7,0.3,0.82,20,400,1E-11,3.5,0.01,0.5,0.1,,,,,,,,,,,,,,,,,,,,,,,,,,,,,,,,,,,,,,,,,,,,,,,,,,,,,,,,,,,,,,,,,,,,,,,,,,,,,,,,,
,,,,,215334,001,2025-03-15_20h35.35.895,Utility_discrimination_2024_2cat,2024.2.4,Win32,60.24096386,,,,,,,,1,"[0.5,0.5]","[0.924,0.383]",s,"[0.6595431560132976,0.6595431560132976]","[0.3404568439867024,0.3404568439867024]",93.746,95.8736,0,s,0,0.605,,-0.090065158,0.591798206,0.681863364,95.8773,95.8773,0,10,10,10,1,0.225662173,0.225662173,shape_difference2,1,,TRUE,,intensity,0.1,0.05,0.7,0.3,0.82,20,400,1E-11,3.5,0.01,0.5,0.1,,,,,,,,,,,,,,,,,,,,,,,,,,,,,,,,,,,,,,,,,,,,,,,,,,,,,,,,,,,,,,,,,,,,,,,,,,,,,,,,,
,,,,,215334,001,2025-03-15_20h35.35.895,Utility_discrimination_2024_2cat,2024.2.4,Win32,60.24096386,,,,,,,,0,"[0.5,0.5]","[1,0]",d,"[0.7085118474629236,0.586428612097727]","[0.2914881525370764,0.413571387902273]",95.8781,97.9396,1,s,1,0.5339,,0.200901354,0.758241115,0.557339761,97.9425,97.9425,0,11,11,11,1,0.225662173,0.225662173,shape_difference1,1,,TRUE,,intensity,0.1,0.05,0.7,0.3,0.82,20,400,1E-11,3.5,0.01,0.5,0.1,,,,,,,,,,,,,,,,,,,,,,,,,,,,,,,,,,,,,,,,,,,,,,,,,,,,,,,,,,,,,,,,,,,,,,,,,,,,,,,,,
,,,,,215334,001,2025-03-15_20h35.35.895,Utility_discrimination_2024_2cat,2024.2.4,Win32,60.24096386,,,,,,,,4,"[0.5,0.5]","[0,1]",s,"[0.9604328418247562,0.5]","[0.03956715817524381,0.5]",97.9438,99.7385,1,s,1,0.2705,,-0.003741292,0.604569979,0.608311271,99.7425,99.7425,0,12,12,12,1,0.460432842,0.460432842,shape_difference0,1,,TRUE,,intensity,0.1,0.05,0.7,0.3,0.82,20,400,1E-11,3.5,0.01,0.5,0.1,,,,,,,,,,,,,,,,,,,,,,,,,,,,,,,,,,,,,,,,,,,,,,,,,,,,,,,,,,,,,,,,,,,,,,,,,,,,,,,,,
,,,,,215334,001,2025-03-15_20h35.35.895,Utility_discrimination_2024_2cat,2024.2.4,Win32,60.24096386,,,,,,,,3,"[0.5,0.5]","[0.383,0.924]",s,"[0.5,0.7748173464265704]","[0.5,0.22518265357342954]",99.7433,101.5208,1,s,1,0.2542,,-0.510435314,0.404710629,0.915145943,101.5248,101.5248,0,13,13,13,1,0.274817346,0.274817346,shape_difference4,1,,TRUE,,intensity,0.1,0.05,0.7,0.3,0.82,20,400,1E-11,3.5,0.01,0.5,0.1,,,,,,,,,,,,,,,,,,,,,,,,,,,,,,,,,,,,,,,,,,,,,,,,,,,,,,,,,,,,,,,,,,,,,,,,,,,,,,,,,
,,,,,215334,001,2025-03-15_20h35.35.895,Utility_discrimination_2024_2cat,2024.2.4,Win32,60.24096386,,,,,,,,1,"[0.5,0.5]","[0.924,0.383]",s,"[0.48572626012287257,0.46556413669330093]","[0.5142737398771274,0.5344358633066991]",101.5254,103.337,0,s,0,0.2838,,-0.09936101,0.537490534,0.636851544,103.341,103.341,0,14,14,14,1,-0.03726825,-0.03726825,shape_difference3,1,,TRUE,,intensity,0.1,0.05,0.7,0.3,0.82,20,400,1E-11,3.5,0.01,0.5,0.1,,,,,,,,,,,,,,,,,,,,,,,,,,,,,,,,,,,,,,,,,,,,,,,,,,,,,,,,,,,,,,,,,,,,,,,,,,,,,,,,,
,,,,,215334,001,2025-03-15_20h35.35.895,Utility_discrimination_2024_2cat,2024.2.4,Win32,60.24096386,,,,,,,,0,"[0.5,0.5]","[1,0]",d,"[0.658672159494192,0.5657699535565752]","[0.341327840505808,0.4342300464434248]",103.3418,104.9197,1,s,1,0.0508,,0.183787094,0.698673471,0.514886377,104.9239,104.9239,0,15,15,15,1,0.171723116,0.171723116,shape_difference1,1,,TRUE,,intensity,0.1,0.05,0.7,0.3,0.82,20,400,1E-11,3.5,0.01,0.5,0.1,,,,,,,,,,,,,,,,,,,,,,,,,,,,,,,,,,,,,,,,,,,,,,,,,,,,,,,,,,,,,,,,,,,,,,,,,,,,,,,,,
,,,,,215334,001,2025-03-15_20h35.35.895,Utility_discrimination_2024_2cat,2024.2.4,Win32,60.24096386,,,,,,,,4,"[0.5,0.5]","[0,1]",s,"[0.925032215409972,0.5]","[0.07496778459002795,0.5]",104.925,106.7181,1,s,1,0.2746,,-0.026700702,0.552121039,0.578821741,106.7214,106.7216,0,16,16,16,1,0.425032215,0.425032215,shape_difference0,1,,TRUE,,intensity,0.1,0.05,0.7,0.3,0.82,20,400,1E-11,3.5,0.01,0.5,0.1,,,,,,,,,,,,,,,,,,,,,,,,,,,,,,,,,,,,,,,,,,,,,,,,,,,,,,,,,,,,,,,,,,,,,,,,,,,,,,,,,
,,,,,215334,001,2025-03-15_20h35.35.895,Utility_discrimination_2024_2cat,2024.2.4,Win32,60.24096386,,,,,,,,3,"[0.5,0.5]","[0.383,0.924]",s,"[0.5,0.7361666255365733]","[0.5,0.26383337446342664]",106.7222,108.4683,1,s,1,0.2178,,-0.118157943,0.566731222,0.684889165,108.4719,108.472,0,17,17,17,1,0.236166626,0.236166626,shape_difference4,1,,TRUE,,intensity,0.1,0.05,0.7,0.3,0.82,20,400,1E-11,3.5,0.01,0.5,0.1,,,,,,,,,,,,,,,,,,,,,,,,,,,,,,,,,,,,,,,,,,,,,,,,,,,,,,,,,,,,,,,,,,,,,,,,,,,,,,,,,
,,,,,215334,001,2025-03-15_20h35.35.895,Utility_discrimination_2024_2cat,2024.2.4,Win32,60.24096386,,,,,,,,2,"[0.5,0.5]","[0.707,0.707]",s,"[0.570651951224009,0.6704501382010035]","[0.429348048775991,0.3295498617989964]",108.473,110.4502,1,d,1,0.4516,,0.100128431,0.691751185,0.591622754,110.4538,110.4538,0,18,18,18,1,0.184469847,0.184469847,shape_difference3,1,,TRUE,,intensity,0.1,0.05,0.7,0.3,0.82,20,400,1E-11,3.5,0.01,0.5,0.1,,,,,,,,,,,,,,,,,,,,,,,,,,,,,,,,,,,,,,,,,,,,,,,,,,,,,,,,,,,,,,,,,,,,,,,,,,,,,,,,,
,,,,,215334,001,2025-03-15_20h35.35.895,Utility_discrimination_2024_2cat,2024.2.4,Win32,60.24096386,,,,,,,,4,"[0.5,0.5]","[0,1]",d,"[0.7652778944192422,0.7652778944192422]","[0.23472210558075773,0.23472210558075773]",110.4547,112.3827,1,d,1,0.4008,,-0.050981617,0.494068035,0.545049652,112.3866,112.3866,0,19,19,19,1,0.375216258,0.375216258,shape_difference2,1,,TRUE,,intensity,0.1,0.05,0.7,0.3,0.82,20,400,1E-11,3.5,0.01,0.5,0.1,,,,,,,,,,,,,,,,,,,,,,,,,,,,,,,,,,,,,,,,,,,,,,,,,,,,,,,,,,,,,,,,,,,,,,,,,,,,,,,,,
,,,,,215334,001,2025-03-15_20h35.35.895,Utility_discrimination_2024_2cat,2024.2.4,Win32,60.24096386,,,,,,,,0,"[0.5,0.5]","[1,0]",d,"[0.5,0.69671503713367]","[0.5,0.30328496286633]",112.3874,114.3978,1,d,1,0.4928,,0.161915205,0.663473103,0.501557898,114.4007,114.4007,0,20,20,20,1,0.196715037,0.196715037,shape_difference4,1,,TRUE,,intensity,0.1,0.05,0.7,0.3,0.82,20,400,1E-11,3.5,0.01,0.5,0.1,,,,,,,,,,,,,,,,,,,,,,,,,,,,,,,,,,,,,,,,,,,,,,,,,,,,,,,,,,,,,,,,,,,,,,,,,,,,,,,,,
,,,,,215334,001,2025-03-15_20h35.35.895,Utility_discrimination_2024_2cat,2024.2.4,Win32,60.24096386,,,,,,,,3,"[0.5,0.5]","[0.383,0.924]",d,"[0.8898988171215777,0.5]","[0.1101011828784223,0.5]",114.4014,116.331,1,s,1,0.4018,,-0.138426098,0.496127593,0.634553691,116.335,116.335,0,21,21,21,1,0.389898817,0.389898817,shape_difference0,1,,TRUE,,intensity,0.1,0.05,0.7,0.3,0.82,20,400,1E-11,3.5,0.01,0.5,0.1,,,,,,,,,,,,,,,,,,,,,,,,,,,,,,,,,,,,,,,,,,,,,,,,,,,,,,,,,,,,,,,,,,,,,,,,,,,,,,,,,
,,,,,215334,001,2025-03-15_20h35.35.895,Utility_discrimination_2024_2cat,2024.2.4,Win32,60.24096386,,,,,,,,2,"[0.5,0.5]","[0.707,0.707]",s,"[0.551976190646757,0.6253942562861707]","[0.4480238093532431,0.37460574371382926]",116.3356,118.3125,0,s,0,0.453,,0.07990875,0.64259131,0.56268256,118.3158,118.3159,0,22,22,22,1,0.13570807,0.13570807,shape_difference3,1,,TRUE,,intensity,0.1,0.05,0.7,0.3,0.82,20,400,1E-11,3.5,0.01,0.5,0.1,,,,,,,,,,,,,,,,,,,,,,,,,,,,,,,,,,,,,,,,,,,,,,,,,,,,,,,,,,,,,,,,,,,,,,,,,,,,,,,,,
,,,,,215334,001,2025-03-15_20h35.35.895,Utility_discrimination_2024_2cat,2024.2.4,Win32,60.24096386,,,,,,,,1,"[0.5,0.5]","[0.924,0.383]",d,"[0.7371207684382894,0.7371207684382894]","[0.26287923156171056,0.26287923156171056]",118.3168,120.2454,1,d,1,0.4024,,-0.120490743,0.470685176,0.591175919,120.249,120.2491,0,23,23,23,1,0.335390054,0.335390054,shape_difference2,1,,TRUE,,intensity,0.1,0.05,0.7,0.3,0.82,20,400,1E-11,3.5,0.01,0.5,0.1,,,,,,,,,,,,,,,,,,,,,,,,,,,,,,,,,,,,,,,,,,,,,,,,,,,,,,,,,,,,,,,,,,,,,,,,,,,,,,,,,
,,,,,215334,001,2025-03-15_20h35.35.895,Utility_discrimination_2024_2cat,2024.2.4,Win32,60.24096386,,,,,,,,2,"[0.5,0.5]","[0.707,0.707]",d,"[0.6206851331604658,0.550024248918245]","[0.3793148668395342,0.44997575108175497]",120.25,122.2275,1,s,1,0.4491,,0.058226883,0.589904361,0.531677478,122.2311,122.2311,0,24,24,24,1,0.130611616,0.130611616,shape_difference1,1,,TRUE,,intensity,0.1,0.05,0.7,0.3,0.82,20,400,1E-11,3.5,0.01,0.5,0.1,,,,,,,,,,,,,,,,,,,,,,,,,,,,,,,,,,,,,,,,,,,,,,,,,,,,,,,,,,,,,,,,,,,,,,,,,,,,,,,,,
,,,,,215334,001,2025-03-15_20h35.35.895,Utility_discrimination_2024_2cat,2024.2.4,Win32,60.24096386,,,,,,,,3,"[0.5,0.5]","[0.383,0.924]",s,"[0.7085998856805951,0.7085998856805951]","[0.29140011431940493,0.29140011431940493]",122.2327,124.2427,1,d,1,0.4828,,0.003001688,0.59577868,0.592776992,124.2451,124.2451,0,25,25,25,1,0.295049343,0.295049343,shape_difference2,1,,TRUE,,intensity,0.1,0.05,0.7,0.3,0.82,20,400,1E-11,3.5,0.01,0.5,0.1,,,,,,,,,,,,,,,,,,,,,,,,,,,,,,,,,,,,,,,,,,,,,,,,,,,,,,,,,,,,,,,,,,,,,,,,,,,,,,,,,
,,,,,215334,001,2025-03-15_20h35.35.895,Utility_discrimination_2024_2cat,2024.2.4,Win32,60.24096386,,,,,,,,1,"[0.5,0.5]","[0.924,0.383]",d,"[0.5978417834155872,0.7360464957597981]","[0.40215821658441275,0.263953504240202]",124.2456,126.309,1,s,1,0.5393,,-0.144584963,0.406347617,0.550932581,126.3117,126.3118,0,26,26,26,1,0.255461575,0.255461575,shape_difference3,1,,TRUE,,intensity,0.1,0.05,0.7,0.3,0.82,20,400,1E-11,3.5,0.01,0.5,0.1,,,,,,,,,,,,,,,,,,,,,,,,,,,,,,,,,,,,,,,,,,,,,,,,,,,,,,,,,,,,,,,,,,,,,,,,,,,,,,,,,
,,,,,215334,001,2025-03-15_20h35.35.895,Utility_discrimination_2024_2cat,2024.2.4,Win32,60.24096386,,,,,,,,0,"[0.5,0.5]","[1,0]",s,"[0.5847697000717454,0.5351372241639378]","[0.41523029992825455,0.4648627758360622]",126.3124,128.2749,1,s,1,0.4319,,0.147194284,0.610247014,0.46305273,128.2799,128.2799,0,27,27,27,1,0.0917421,0.0917421,shape_difference1,1,,TRUE,,intensity,0.1,0.05,0.7,0.3,0.82,20,400,1E-11,3.5,0.01,0.5,0.1,,,,,,,,,,,,,,,,,,,,,,,,,,,,,,,,,,,,,,,,,,,,,,,,,,,,,,,,,,,,,,,,,,,,,,,,,,,,,,,,,
,,,,,215334,001,2025-03-15_20h35.35.895,Utility_discrimination_2024_2cat,2024.2.4,Win32,60.24096386,,,,,,,,4,"[0.5,0.5]","[0,1]",s,"[0.865168384109164,0.5]","[0.13483161589083603,0.5]",128.2808,130.2401,0,d,0,0.432,,-0.067097964,0.445046575,0.512144539,130.242,130.2421,0,28,28,28,1,0.365168384,0.365168384,shape_difference0,1,,TRUE,,intensity,0.1,0.05,0.7,0.3,0.82,20,400,1E-11,3.5,0.01,0.5,0.1,,,,,,,,,,,,,,,,,,,,,,,,,,,,,,,,,,,,,,,,,,,,,,,,,,,,,,,,,,,,,,,,,,,,,,,,,,,,,,,,,
,,,,,215334,001,2025-03-15_20h35.35.895,Utility_discrimination_2024_2cat,2024.2.4,Win32,60.24096386,,,,,,,,4,"[0.5,0.5]","[0,1]",s,"[0.5,0.6700952157765088]","[0.5,0.3299047842234913]",130.2431,132.2724,1,s,1,0.5054,,-0.078138993,0.387434732,0.465573725,132.276,132.276,0,29,29,29,1,0.170095216,0.170095216,shape_difference4,1,,TRUE,,intensity,0.1,0.05,0.7,0.3,0.82,20,400,1E-11,3.5,0.01,0.5,0.1,,,,,,,,,,,,,,,,,,,,,,,,,,,,,,,,,,,,,,,,,,,,,,,,,,,,,,,,,,,,,,,,,,,,,,,,,,,,,,,,,
,,,,,215334,001,2025-03-15_20h35.35.895,Utility_discrimination_2024_2cat,2024.2.4,Win32,60.24096386,,,,,,,,3,"[0.5,0.5]","[0.383,0.924]",s,"[0.5,0.6474032266493467]","[0.5,0.3525967733506533]",132.2769,134.1881,1,s,1,0.3857,,-0.00706543,0.538627976,0.545693406,134.1916,134.1917,0,30,30,30,1,0.147403227,0.147403227,shape_difference4,1,,TRUE,,intensity,0.1,0.05,0.7,0.3,0.82,20,400,1E-11,3.5,0.01,0.5,0.1,,,,,,,,,,,,,,,,,,,,,,,,,,,,,,,,,,,,,,,,,,,,,,,,,,,,,,,,,,,,,,,,,,,,,,,,,,,,,,,,,
,,,,,215334,001,2025-03-15_20h35.35.895,Utility_discrimination_2024_2cat,2024.2.4,Win32,60.24096386,,,,,,,,1,"[0.5,0.5]","[0.924,0.383]",s,"[0.5820252856381305,0.6978886786674479]","[0.41797471436186956,0.30211132133255214]",134.1927,136.0539,0,s,0,0.341,,-0.160589475,0.350306654,0.510896129,136.0575,136.0576,0,31,31,31,1,0.214165237,0.214165237,shape_difference3,1,,TRUE,,intensity,0.1,0.05,0.7,0.3,0.82,20,400,1E-11,3.5,0.01,0.5,0.1,,,,,,,,,,,,,,,,,,,,,,,,,,,,,,,,,,,,,,,,,,,,,,,,,,,,,,,,,,,,,,,,,,,,,,,,,,,,,,,,,
,,,,,215334,001,2025-03-15_20h35.35.895,Utility_discrimination_2024_2cat,2024.2.4,Win32,60.24096386,,,,,,,,2,"[0.5,0.5]","[0.707,0.707]",d,"[0.5611283218807595,0.5253378217319599]","[0.4388716781192405,0.4746621782680402]",136.0585,137.87,1,s,1,0.283,,0.043850706,0.54273529,0.498884584,137.8737,137.8737,0,32,32,32,1,0.066156193,0.066156193,shape_difference1,1,,TRUE,,intensity,0.1,0.05,0.7,0.3,0.82,20,400,1E-11,3.5,0.01,0.5,0.1,,,,,,,,,,,,,,,,,,,,,,,,,,,,,,,,,,,,,,,,,,,,,,,,,,,,,,,,,,,,,,,,,,,,,,,,,,,,,,,,,
,,,,,215334,001,2025-03-15_20h35.35.895,Utility_discrimination_2024_2cat,2024.2.4,Win32,60.24096386,,,,,,,,0,"[0.5,0.5]","[1,0]",s,"[0.6891932438942611,0.6891932438942611]","[0.31080675610573893,0.31080675610573893]",137.8746,139.6861,1,s,1,0.2845,,0.254761036,0.721427317,0.466666281,139.6903,139.6903,0,33,33,33,1,0.267600062,0.267600062,shape_difference2,1,,TRUE,,intensity,0.1,0.05,0.7,0.3,0.82,20,400,1E-11,3.5,0.01,0.5,0.1,,,,,,,,,,,,,,,,,,,,,,,,,,,,,,,,,,,,,,,,,,,,,,,,,,,,,,,,,,,,,,,,,,,,,,,,,,,,,,,,,
,,,,,215334,001,2025-03-15_20h35.35.895,Utility_discrimination_2024_2cat,2024.2.4,Win32,60.24096386,,,,,,,,2,"[0.5,0.5]","[0.707,0.707]",s,"[0.9649798502781692,0.5]","[0.03502014972183076,0.5]",139.6914,141.6848,1,s,1,0.4654,,0.034012922,0.48723303,0.453220108,141.6891,141.6891,0,34,34,34,1,0.46497985,0.46497985,shape_difference0,1,,TRUE,,intensity,0.1,0.05,0.7,0.3,0.82,20,400,1E-11,3.5,0.01,0.5,0.1,,,,,,,,,,,,,,,,,,,,,,,,,,,,,,,,,,,,,,,,,,,,,,,,,,,,,,,,,,,,,,,,,,,,,,,,,,,,,,,,,
,,,,,215334,001,2025-03-15_20h35.35.895,Utility_discrimination_2024_2cat,2024.2.4,Win32,60.24096386,,,,,,,,1,"[0.5,0.5]","[0.924,0.383]",s,"[0.6725969917281427,0.6725969917281427]","[0.3274030082718573,0.3274030082718573]",141.6903,143.8512,1,s,1,0.6431,,-0.171576622,0.286796614,0.458373237,143.8536,143.8536,0,35,35,35,1,0.244125872,0.244125872,shape_difference2,1,,TRUE,,intensity,0.1,0.05,0.7,0.3,0.82,20,400,1E-11,3.5,0.01,0.5,0.1,,,,,,,,,,,,,,,,,,,,,,,,,,,,,,,,,,,,,,,,,,,,,,,,,,,,,,,,,,,,,,,,,,,,,,,,,,,,,,,,,
,,,,,215334,001,2025-03-15_20h35.35.895,Utility_discrimination_2024_2cat,2024.2.4,Win32,60.24096386,,,,,,,,3,"[0.5,0.5]","[0.383,0.924]",s,"[0.5409320487875866,0.5169664228199629]","[0.4590679512124134,0.48303357718003714]",143.8544,145.8995,1,d,1,0.518,,0.095358694,0.638635158,0.543276464,145.9037,145.9037,0,36,36,36,1,0.044298754,0.044298754,shape_difference1,1,,TRUE,,intensity,0.1,0.05,0.7,0.3,0.82,20,400,1E-11,3.5,0.01,0.5,0.1,,,,,,,,,,,,,,,,,,,,,,,,,,,,,,,,,,,,,,,,,,,,,,,,,,,,,,,,,,,,,,,,,,,,,,,,,,,,,,,,,
,,,,,215334,001,2025-03-15_20h35.35.895,Utility_discrimination_2024_2cat,2024.2.4,Win32,60.24096386,,,,,,,,0,"[0.5,0.5]","[1,0]",d,"[0.6231207808779415,0.7970329021702819]","[0.37687921912205846,0.2029670978297181]",145.9048,147.9149,0,s,0,0.4811,,0.244274918,0.678265865,0.433990947,147.919,147.919,0,37,37,37,1,0.32146418,0.32146418,shape_difference3,1,,TRUE,,intensity,0.1,0.05,0.7,0.3,0.82,20,400,1E-11,3.5,0.01,0.5,0.1,,,,,,,,,,,,,,,,,,,,,,,,,,,,,,,,,,,,,,,,,,,,,,,,,,,,,,,,,,,,,,,,,,,,,,,,,,,,,,,,,
,,,,,215334,001,2025-03-15_20h35.35.895,Utility_discrimination_2024_2cat,2024.2.4,Win32,60.24096386,,,,,,,,4,"[0.5,0.5]","[0,1]",d,"[0.9421963846551322,0.5]","[0.057803615344867776,0.5]",147.92,150.147,1,d,1,0.7002,,-0.090658615,0.352456116,0.443114731,150.1501,150.1501,0,38,38,38,1,0.442196385,0.442196385,shape_difference0,1,,TRUE,,intensity,0.1,0.05,0.7,0.3,0.82,20,400,1E-11,3.5,0.01,0.5,0.1,,,,,,,,,,,,,,,,,,,,,,,,,,,,,,,,,,,,,,,,,,,,,,,,,,,,,,,,,,,,,,,,,,,,,,,,,,,,,,,,,
,,,,,215334,001,2025-03-15_20h35.35.895,Utility_discrimination_2024_2cat,2024.2.4,Win32,60.24096386,,,,,,,,4,"[0.5,0.5]","[0,1]",d,"[0.5,0.6243517438122936]","[0.5,0.3756482561877064]",150.1515,152.163,1,s,1,0.4855,,-0.099810016,0.302017827,0.401827843,152.1676,152.1676,0,39,39,39,1,0.124351744,0.124351744,shape_difference4,1,,TRUE,,intensity,0.1,0.05,0.7,0.3,0.82,20,400,1E-11,3.5,0.01,0.5,0.1,,,,,,,,,,,,,,,,,,,,,,,,,,,,,,,,,,,,,,,,,,,,,,,,,,,,,,,,,,,,,,,,,,,,,,,,,,,,,,,,,
,,,,,215334,001,2025-03-15_20h35.35.895,Utility_discrimination_2024_2cat,2024.2.4,Win32,60.24096386,,,,,,,,1,"[0.5,0.5]","[0.924,0.383]",s,"[0.5,0.598900629723623]","[0.5,0.401099370276377]",152.1685,154.4115,0,s,0,0.7167,,-0.18394784,0.248316998,0.432264838,154.4132,154.4132,0,40,40,40,1,0.09890063,0.09890063,shape_difference4,1,,TRUE,,intensity,0.1,0.05,0.7,0.3,0.82,20,400,1E-11,3.5,0.01,0.5,0.1,,,,,,,,,,,,,,,,,,,,,,,,,,,,,,,,,,,,,,,,,,,,,,,,,,,,,,,,,,,,,,,,,,,,,,,,,,,,,,,,,
,,,,,215334,001,2025-03-15_20h35.35.895,Utility_discrimination_2024_2cat,2024.2.4,Win32,60.24096386,,,,,,,,3,"[0.5,0.5]","[0.383,0.924]",d,"[0.5203393647978842,0.5084307107333221]","[0.4796606352021158,0.49156928926667787]",154.4142,156.3943,0,d,0,0.4503,,0.197728977,0.726321652,0.528592675,156.3984,156.3984,0,41,41,41,1,0.0220123,0.0220123,shape_difference1,1,,TRUE,,intensity,0.1,0.05,0.7,0.3,0.82,20,400,1E-11,3.5,0.01,0.5,0.1,,,,,,,,,,,,,,,,,,,,,,,,,,,,,,,,,,,,,,,,,,,,,,,,,,,,,,,,,,,,,,,,,,,,,,,,,,,,,,,,,
,,,,,215334,001,2025-03-15_20h35.35.895,Utility_discrimination_2024_2cat,2024.2.4,Win32,60.24096386,,,,,,,,2,"[0.5,0.5]","[0.707,0.707]",s,"[0.6647009284421042,0.8973463652232488]","[0.3352990715578958,0.10265363477675116]",156.3995,158.393,1,s,1,0.466,,0.023404223,0.452615447,0.429211224,158.3967,158.3967,0,42,42,42,1,0.430028534,0.430028534,shape_difference3,1,,TRUE,,intensity,0.1,0.05,0.7,0.3,0.82,20,400,1E-11,3.5,0.01,0.5,0.1,,,,,,,,,,,,,,,,,,,,,,,,,,,,,,,,,,,,,,,,,,,,,,,,,,,,,,,,,,,,,,,,,,,,,,,,,,,,,,,,,
,,,,,215334,001,2025-03-15_20h35.35.895,Utility_discrimination_2024_2cat,2024.2.4,Win32,60.24096386,,,,,,,,0,"[0.5,0.5]","[1,0]",s,"[0.6557750025430924,0.6557750025430924]","[0.3442249974569076,0.3442249974569076]",158.3974,160.2254,0,s,0,0.3051,,0.233052955,0.64448617,0.411433215,160.2283,160.2284,0,43,43,43,1,0.220332394,0.220332394,shape_difference2,1,,TRUE,,intensity,0.1,0.05,0.7,0.3,0.82,20,400,1E-11,3.5,0.01,0.5,0.1,,,,,,,,,,,,,,,,,,,,,,,,,,,,,,,,,,,,,,,,,,,,,,,,,,,,,,,,,,,,,,,,,,,,,,,,,,,,,,,,,
,,,,,215334,001,2025-03-15_20h35.35.895,Utility_discrimination_2024_2cat,2024.2.4,Win32,60.24096386,,,,,,,,4,"[0.5,0.5]","[0,1]",d,"[0.9190906850544324,0.5]","[0.08090931494556763,0.5]",160.2295,162.208,1,s,1,0.4501,,0.003176401,0.39158653,0.388410129,162.212,162.212,0,44,44,44,1,0.419090685,0.419090685,shape_difference0,1,,TRUE,,intensity,0.1,0.05,0.7,0.3,0.82,20,400,1E-11,3.5,0.01,0.5,0.1,,,,,,,,,,,,,,,,,,,,,,,,,,,,,,,,,,,,,,,,,,,,,,,,,,,,,,,,,,,,,,,,,,,,,,,,,,,,,,,,,
,,,,,215334,001,2025-03-15_20h35.35.895,Utility_discrimination_2024_2cat,2024.2.4,Win32,60.24096386,,,,,,,,1,"[0.5,0.5]","[0.924,0.383]",s,"[0.5,0.664752780292963]","[0.5,0.33524721970703697]",162.2127,164.3236,1,d,1,0.5826,,-0.092039802,0.333413881,0.425453683,164.3274,164.3275,0,45,45,45,1,0.16475278,0.16475278,shape_difference4,1,,TRUE,,intensity,0.1,0.05,0.7,0.3,0.82,20,400,1E-11,3.5,0.01,0.5,0.1,,,,,,,,,,,,,,,,,,,,,,,,,,,,,,,,,,,,,,,,,,,,,,,,,,,,,,,,,,,,,,,,,,,,,,,,,,,,,,,,,
,,,,,215334,001,2025-03-15_20h35.35.895,Utility_discrimination_2024_2cat,2024.2.4,Win32,60.24096386,,,,,,,,3,"[0.5,0.5]","[0.383,0.924]",d,"[0.5706560542814517,0.5292870874348441]","[0.42934394571854834,0.47071291256515585]",164.3282,166.5719,1,s,1,0.7206,,0.173963729,0.680979555,0.507015826,166.5747,166.5747,0,46,46,46,1,0.076467591,0.076467591,shape_difference1,1,,TRUE,,intensity,0.1,0.05,0.7,0.3,0.82,20,400,1E-11,3.5,0.01,0.5,0.1,,,,,,,,,,,,,,,,,,,,,,,,,,,,,,,,,,,,,,,,,,,,,,,,,,,,,,,,,,,,,,,,,,,,,,,,,,,,,,,,,
,,,,,215334,001,2025-03-15_20h35.35.895,Utility_discrimination_2024_2cat,2024.2.4,Win32,60.24096386,,,,,,,,2,"[0.5,0.5]","[0.707,0.707]",s,"[0.6497646930268569,0.8613122098089185]","[0.3502353069731431,0.13868779019108152]",166.5752,168.5877,1,s,1,0.4834,,0.106726003,0.52843919,0.421713187,168.5914,168.5914,0,47,47,47,1,0.39103053,0.39103053,shape_difference3,1,,TRUE,,intensity,0.1,0.05,0.7,0.3,0.82,20,400,1E-11,3.5,0.01,0.5,0.1,,,,,,,,,,,,,,,,,,,,,,,,,,,,,,,,,,,,,,,,,,,,,,,,,,,,,,,,,,,,,,,,,,,,,,,,,,,,,,,,,
,,,,,215334,001,2025-03-15_20h35.35.895,Utility_discrimination_2024_2cat,2024.2.4,Win32,60.24096386,,,,,,,,0,"[0.5,0.5]","[1,0]",s,"[0.6967285544518067,0.6967285544518067]","[0.3032714455481933,0.3032714455481933]",168.5929,170.753,1,d,1,0.636,,0.225117271,0.598586289,0.373469018,170.7563,170.7564,0,48,48,48,1,0.27825821,0.27825821,shape_difference2,1,,TRUE,,intensity,0.1,0.05,0.7,0.3,0.82,20,400,1E-11,3.5,0.01,0.5,0.1,,,,,,,,,,,,,,,,,,,,,,,,,,,,,,,,,,,,,,,,,,,,,,,,,,,,,,,,,,,,,,,,,,,,,,,,,,,,,,,,,
,,,,,215334,001,2025-03-15_20h35.35.895,Utility_discrimination_2024_2cat,2024.2.4,Win32,60.24096386,,,,,,,,1,"[0.5,0.5]","[0.924,0.383]",d,"[0.8960573943402054,0.5]","[0.10394260565979463,0.5]",170.757,172.7695,0,d,0,0.4843,,-0.09540835,0.280926442,0.376334792,172.7735,172.7735,0,49,49,49,1,0.396057394,0.396057394,shape_difference0,1,,TRUE,,intensity,0.1,0.05,0.7,0.3,0.82,20,400,1E-11,3.5,0.01,0.5,0.1,,,,,,,,,,,,,,,,,,,,,,,,,,,,,,,,,,,,,,,,,,,,,,,,,,,,,,,,,,,,,,,,,,,,,,,,,,,,,,,,,
,,,,,215334,001,2025-03-15_20h35.35.895,Utility_discrimination_2024_2cat,2024.2.4,Win32,60.24096386,,,,,,,,3,"[0.5,0.5]","[0.383,0.924]",s,"[0.5554936828815881,0.523002251670615]","[0.4445063171184119,0.476997748329385]",172.7746,174.9684,0,d,0,0.6661,,0.158125691,0.633211606,0.475085915,174.9726,174.9726,0,50,50,50,1,0.060058098,0.060058098,shape_difference1,1,,TRUE,,intensity,0.1,0.05,0.7,0.3,0.82,20,400,1E-11,3.5,0.01,0.5,0.1,,,,,,,,,,,,,,,,,,,,,,,,,,,,,,,,,,,,,,,,,,,,,,,,,,,,,,,,,,,,,,,,,,,,,,,,,,,,,,,,,
,,,,,215334,001,2025-03-15_20h35.35.895,Utility_discrimination_2024_2cat,2024.2.4,Win32,60.24096386,,,,,,,,2,"[0.5,0.5]","[0.707,0.707]",s,"[0.6396200061154139,0.8368378215421474]","[0.3603799938845861,0.16316217845785264]",174.9737,176.9673,1,d,1,0.467,,0.103335721,0.482412603,0.379076882,176.9705,176.9706,0,51,51,51,1,0.364543097,0.364543097,shape_difference3,1,,TRUE,,intensity,0.1,0.05,0.7,0.3,0.82,20,400,1E-11,3.5,0.01,0.5,0.1,,,,,,,,,,,,,,,,,,,,,,,,,,,,,,,,,,,,,,,,,,,,,,,,,,,,,,,,,,,,,,,,,,,,,,,,,,,,,,,,,
,,,,,215334,001,2025-03-15_20h35.35.895,Utility_discrimination_2024_2cat,2024.2.4,Win32,60.24096386,,,,,,,,0,"[0.5,0.5]","[1,0]",d,"[0.6841955314984742,0.6841955314984742]","[0.31580446850152577,0.31580446850152577]",176.9715,178.9661,1,s,1,0.4659,,0.303225017,0.681568807,0.378343789,178.9693,178.9693,0,52,52,52,1,0.260531162,0.260531162,shape_difference2,1,,TRUE,,intensity,0.1,0.05,0.7,0.3,0.82,20,400,1E-11,3.5,0.01,0.5,0.1,,,,,,,,,,,,,,,,,,,,,,,,,,,,,,,,,,,,,,,,,,,,,,,,,,,,,,,,,,,,,,,,,,,,,,,,,,,,,,,,,
,,,,,215334,001,2025-03-15_20h35.35.895,Utility_discrimination_2024_2cat,2024.2.4,Win32,60.24096386,,,,,,,,4,"[0.5,0.5]","[0,1]",s,"[0.9583756238591179,0.5]","[0.0416243761408821,0.5]",178.9701,180.8485,1,s,1,0.3524,,0.000308287,0.353767689,0.353459402,180.8524,180.8524,0,53,53,53,1,0.458375624,0.458375624,shape_difference0,1,,TRUE,,intensity,0.1,0.05,0.7,0.3,0.82,20,400,1E-11,3.5,0.01,0.5,0.1,,,,,,,,,,,,,,,,,,,,,,,,,,,,,,,,,,,,,,,,,,,,,,,,,,,,,,,,,,,,,,,,,,,,,,,,,,,,,,,,,
,,,,,215334,001,2025-03-15_20h35.35.895,Utility_discrimination_2024_2cat,2024.2.4,Win32,60.24096386,,,,,,,,1,"[0.5,0.5]","[0.924,0.383]",s,"[0.5,0.6488679069224759]","[0.5,0.35113209307752413]",180.8534,182.8977,1,d,1,0.5185,,-0.048747732,0.40676264,0.455510372,182.9013,182.9013,0,54,54,54,1,0.148867907,0.148867907,shape_difference4,1,,TRUE,,intensity,0.1,0.05,0.7,0.3,0.82,20,400,1E-11,3.5,0.01,0.5,0.1,,,,,,,,,,,,,,,,,,,,,,,,,,,,,,,,,,,,,,,,,,,,,,,,,,,,,,,,,,,,,,,,,,,,,,,,,,,,,,,,,
,,,,,215334,001,2025-03-15_20h35.35.895,Utility_discrimination_2024_2cat,2024.2.4,Win32,60.24096386,,,,,,,,0,"[0.5,0.5]","[1,0]",d,"[0.6254143952645227,0.5519845382968747]","[0.3745856047354773,0.44801546170312534]",182.9026,184.8467,1,s,1,0.4151,,0.300784513,0.644038701,0.343254188,184.8513,184.8514,0,55,55,55,1,0.135729865,0.135729865,shape_difference1,1,,TRUE,,intensity,0.1,0.05,0.7,0.3,0.82,20,400,1E-11,3.5,0.01,0.5,0.1,,,,,,,,,,,,,,,,,,,,,,,,,,,,,,,,,,,,,,,,,,,,,,,,,,,,,,,,,,,,,,,,,,,,,,,,,,,,,,,,,
,,,,,215334,001,2025-03-15_20h35.35.895,Utility_discrimination_2024_2cat,2024.2.4,Win32,60.24096386,,,,,,,,2,"[0.5,0.5]","[0.707,0.707]",s,"[0.9418126374205258,0.5]","[0.05818736257947421,0.5]",184.8524,187.3951,0,s,0,1.0184,,0.100719727,0.442891087,0.342171361,187.3981,187.3981,0,56,56,56,1,0.441812637,0.441812637,shape_difference0,1,,TRUE,,intensity,0.1,0.05,0.7,0.3,0.82,20,400,1E-11,3.5,0.01,0.5,0.1,,,,,,,,,,,,,,,,,,,,,,,,,,,,,,,,,,,,,,,,,,,,,,,,,,,,,,,,,,,,,,,,,,,,,,,,,,,,,,,,,
,,,,,215334,001,2025-03-15_20h35.35.895,Utility_discrimination_2024_2cat,2024.2.4,Win32,60.24096386,,,,,,,,3,"[0.5,0.5]","[0.383,0.924]",d,"[0.6732020419326763,0.6732020419326763]","[0.32679795806732365,0.32679795806732365]",187.3992,189.4939,1,d,1,0.5736,,0.147231345,0.58266801,0.435436665,189.4971,189.4972,0,57,57,57,1,0.244981672,0.244981672,shape_difference2,1,,TRUE,,intensity,0.1,0.05,0.7,0.3,0.82,20,400,1E-11,3.5,0.01,0.5,0.1,,,,,,,,,,,,,,,,,,,,,,,,,,,,,,,,,,,,,,,,,,,,,,,,,,,,,,,,,,,,,,,,,,,,,,,,,,,,,,,,,
,,,,,215334,001,2025-03-15_20h35.35.895,Utility_discrimination_2024_2cat,2024.2.4,Win32,60.24096386,,,,,,,,4,"[0.5,0.5]","[0,1]",d,"[0.6309051757555681,0.8158130088724411]","[0.3690948242444319,0.18418699112755893]",189.4977,191.4432,1,s,1,0.4159,,-0.023050267,0.31408736,0.337137627,191.447,191.447,0,58,58,58,1,0.341788971,0.341788971,shape_difference3,1,,TRUE,,intensity,0.1,0.05,0.7,0.3,0.82,20,400,1E-11,3.5,0.01,0.5,0.1,,,,,,,,,,,,,,,,,,,,,,,,,,,,,,,,,,,,,,,,,,,,,,,,,,,,,,,,,,,,,,,,,,,,,,,,,,,,,,,,,
,,,,,215334,001,2025-03-15_20h35.35.895,Utility_discrimination_2024_2cat,2024.2.4,Win32,60.24096386,,,,,,,,4,"[0.5,0.5]","[0,1]",s,"[0.5,0.6333920051206547]","[0.5,0.36660799487934526]",191.4478,193.3258,1,s,1,0.3504,,-0.041070801,0.289038437,0.330109238,193.3287,193.3287,0,59,59,59,1,0.133392005,0.133392005,shape_difference4,1,,TRUE,,intensity,0.1,0.05,0.7,0.3,0.82,20,400,1E-11,3.5,0.01,0.5,0.1,,,,,,,,,,,,,,,,,,,,,,,,,,,,,,,,,,,,,,,,,,,,,,,,,,,,,,,,,,,,,,,,,,,,,,,,,,,,,,,,,
,,,,,215334,001,2025-03-15_20h35.35.895,Utility_discrimination_2024_2cat,2024.2.4,Win32,60.24096386,,,,,,,,1,"[0.5,0.5]","[0.924,0.383]",s,"[0.5,0.6165575479735864]","[0.5,0.3834424520264136]",193.3295,195.6578,1,d,1,0.806,,-0.060616587,0.364777972,0.425394558,195.6615,195.6615,0,60,60,60,1,0.116557548,0.116557548,shape_difference4,1,,TRUE,,intensity,0.1,0.05,0.7,0.3,0.82,20,400,1E-11,3.5,0.01,0.5,0.1,,,,,,,,,,,,,,,,,,,,,,,,,,,,,,,,,,,,,,,,,,,,,,,,,,,,,,,,,,,,,,,,,,,,,,,,,,,,,,,,,
,,,,,215334,001,2025-03-15_20h35.35.895,Utility_discrimination_2024_2cat,2024.2.4,Win32,60.24096386,,,,,,,,2,"[0.5,0.5]","[0.707,0.707]",d,"[0.6024525228409002,0.5424667924762606]","[0.39754747715909977,0.4575332075237394]",195.6625,197.5894,1,s,1,0.4056,,0.080563306,0.400583841,0.320020536,197.5922,197.5922,0,61,61,61,1,0.110879354,0.110879354,shape_difference1,1,,TRUE,,intensity,0.1,0.05,0.7,0.3,0.82,20,400,1E-11,3.5,0.01,0.5,0.1,,,,,,,,,,,,,,,,,,,,,,,,,,,,,,,,,,,,,,,,,,,,,,,,,,,,,,,,,,,,,,,,,,,,,,,,,,,,,,,,,
,,,,,215334,001,2025-03-15_20h35.35.895,Utility_discrimination_2024_2cat,2024.2.4,Win32,60.24096386,,,,,,,,0,"[0.5,0.5]","[1,0]",s,"[0.6622168648743609,0.6622168648743609]","[0.33778313512563907,0.33778313512563907]",197.5929,199.555,1,d,1,0.4418,,0.315773593,0.692620671,0.376847078,199.5573,199.5573,0,62,62,62,1,0.229443939,0.229443939,shape_difference2,1,,TRUE,,intensity,0.1,0.05,0.7,0.3,0.82,20,400,1E-11,3.5,0.01,0.5,0.1,,,,,,,,,,,,,,,,,,,,,,,,,,,,,,,,,,,,,,,,,,,,,,,,,,,,,,,,,,,,,,,,,,,,,,,,,,,,,,,,,
,,,,,215334,001,2025-03-15_20h35.35.895,Utility_discrimination_2024_2cat,2024.2.4,Win32,60.24096386,,,,,,,,3,"[0.5,0.5]","[0.383,0.924]",d,"[0.9780852122084611,0.5]","[0.02191478779153888,0.5]",199.5579,201.5875,0,s,0,0.5014,,0.135638225,0.54784282,0.412204595,201.5898,201.5898,0,63,63,63,1,0.478085212,0.478085212,shape_difference0,1,,TRUE,,intensity,0.1,0.05,0.7,0.3,0.82,20,400,1E-11,3.5,0.01,0.5,0.1,,,,,,,,,,,,,,,,,,,,,,,,,,,,,,,,,,,,,,,,,,,,,,,,,,,,,,,,,,,,,,,,,,,,,,,,,,,,,,,,,
,,,,,215334,001,2025-03-15_20h35.35.895,Utility_discrimination_2024_2cat,2024.2.4,Win32,60.24096386,,,,,,,,4,"[0.5,0.5]","[0,1]",d,"[0.6221401991031343,0.794667216635238]","[0.3778598008968656,0.20533278336476196]",201.5902,203.6033,0,s,0,0.4877,,-0.054125074,0.270642385,0.324767459,203.6061,203.6061,0,64,64,64,1,0.318903914,0.318903914,shape_difference3,1,,TRUE,,intensity,0.1,0.05,0.7,0.3,0.82,20,400,1E-11,3.5,0.01,0.5,0.1,,,,,,,,,,,,,,,,,,,,,,,,,,,,,,,,,,,,,,,,,,,,,,,,,,,,,,,,,,,,,,,,,,,,,,,,,,,,,,,,,
,,,,,215334,001,2025-03-15_20h35.35.895,Utility_discrimination_2024_2cat,2024.2.4,Win32,60.24096386,,,,,,,,3,"[0.5,0.5]","[0.383,0.924]",d,"[0.5,0.5985159760727499]","[0.5,0.4014840239272502]",203.6069,205.752,1,s,1,0.628,,0.207676736,0.617273292,0.409596556,205.7543,205.7543,0,65,65,65,1,0.098515976,0.098515976,shape_difference4,1,,TRUE,,intensity,0.1,0.05,0.7,0.3,0.82,20,400,1E-11,3.5,0.01,0.5,0.1,,,,,,,,,,,,,,,,,,,,,,,,,,,,,,,,,,,,,,,,,,,,,,,,,,,,,,,,,,,,,,,,,,,,,,,,,,,,,,,,,
,,,,,215334,001,2025-03-15_20h35.35.895,Utility_discrimination_2024_2cat,2024.2.4,Win32,60.24096386,,,,,,,,2,"[0.5,0.5]","[0.707,0.707]",s,"[0.6433145905746315,0.8457511271304424]","[0.3566854094253685,0.15424887286955757]",205.7548,207.9343,1,s,1,0.6487,,0.062576773,0.384554684,0.321977911,207.9364,207.9365,0,66,66,66,1,0.374189532,0.374189532,shape_difference3,1,,TRUE,,intensity,0.1,0.05,0.7,0.3,0.82,20,400,1E-11,3.5,0.01,0.5,0.1,,,,,,,,,,,,,,,,,,,,,,,,,,,,,,,,,,,,,,,,,,,,,,,,,,,,,,,,,,,,,,,,,,,,,,,,,,,,,,,,,
,,,,,215334,001,2025-03-15_20h35.35.895,Utility_discrimination_2024_2cat,2024.2.4,Win32,60.24096386,,,,,,,,1,"[0.5,0.5]","[0.924,0.383]",s,"[0.6501810760866598,0.6501810760866598]","[0.34981892391334024,0.34981892391334024]",207.9369,210.2499,1,d,1,0.7918,,-0.068977725,0.310180927,0.379158652,210.2522,210.2522,0,67,67,67,1,0.212420192,0.212420192,shape_difference2,1,,TRUE,,intensity,0.1,0.05,0.7,0.3,0.82,20,400,1E-11,3.5,0.01,0.5,0.1,,,,,,,,,,,,,,,,,,,,,,,,,,,,,,,,,,,,,,,,,,,,,,,,,,,,,,,,,,,,,,,,,,,,,,,,,,,,,,,,,
,,,,,215334,001,2025-03-15_20h35.35.895,Utility_discrimination_2024_2cat,2024.2.4,Win32,60.24096386,,,,,,,,0,"[0.5,0.5]","[1,0]",d,"[0.5846046933125784,0.5350688285051055]","[0.41539530668742164,0.4649311714948945]",210.2526,212.5988,0,s,0,0.8148,,0.373262932,0.782991059,0.409728127,212.6015,212.6015,0,68,68,68,1,0.091563521,0.091563521,shape_difference1,1,,TRUE,,intensity,0.1,0.05,0.7,0.3,0.82,20,400,1E-11,3.5,0.01,0.5,0.1,,,,,,,,,,,,,,,,,,,,,,,,,,,,,,,,,,,,,,,,,,,,,,,,,,,,,,,,,,,,,,,,,,,,,,,,,,,,,,,,,
,,,,,215334,001,2025-03-15_20h35.35.895,Utility_discrimination_2024_2cat,2024.2.4,Win32,60.24096386,,,,,,,,2,"[0.5,0.5]","[0.707,0.707]",d,"[1.0501145616336771,0.5]","[-0.05011456163367711,0.5]",212.6021,214.5487,0,s,0,0.4261,,0.04950482,0.365250905,0.315746086,214.5515,214.5515,0,69,69,69,1,0.550114562,0.550114562,shape_difference0,1,,TRUE,,intensity,0.1,0.05,0.7,0.3,0.82,20,400,1E-11,3.5,0.01,0.5,0.1,,,,,,,,,,,,,,,,,,,,,,,,,,,,,,,,,,,,,,,,,,,,,,,,,,,,,,,,,,,,,,,,,,,,,,,,,,,,,,,,,
,,,,,215334,001,2025-03-15_20h35.35.895,Utility_discrimination_2024_2cat,2024.2.4,Win32,60.24096386,,,,,,,,0,"[0.5,0.5]","[1,0]",d,"[0.6385982795643306,0.6385982795643306]","[0.3614017204356694,0.3614017204356694]",214.5524,216.5143,1,s,1,0.4328,,0.440928484,0.885786423,0.444857939,216.5173,216.5173,0,70,70,70,1,0.196037171,0.196037171,shape_difference2,1,,TRUE,,intensity,0.1,0.05,0.7,0.3,0.82,20,400,1E-11,3.5,0.01,0.5,0.1,,,,,,,,,,,,,,,,,,,,,,,,,,,,,,,,,,,,,,,,,,,,,,,,,,,,,,,,,,,,,,,,,,,,,,,,,,,,,,,,,
,,,,,215334,001,2025-03-15_20h35.35.895,Utility_discrimination_2024_2cat,2024.2.4,Win32,60.24096386,,,,,,,,3,"[0.5,0.5]","[0.383,0.924]",s,"[1.1482855333972752,0.5]","[-0.14828553339727513,0.5]",216.5184,218.5125,1,s,1,0.4686,,0.204662297,0.576910654,0.372248356,218.5154,218.5154,0,71,71,71,1,0.648285533,0.648285533,shape_difference0,1,,TRUE,,intensity,0.1,0.05,0.7,0.3,0.82,20,400,1E-11,3.5,0.01,0.5,0.1,,,,,,,,,,,,,,,,,,,,,,,,,,,,,,,,,,,,,,,,,,,,,,,,,,,,,,,,,,,,,,,,,,,,,,,,,,,,,,,,,
,,,,,215334,001,2025-03-15_20h35.35.895,Utility_discrimination_2024_2cat,2024.2.4,Win32,60.24096386,,,,,,,,4,"[0.5,0.5]","[0,1]",s,"[0.6366287964067522,0.8296214304956633]","[0.3633712035932478,0.17037856950433666]",218.5159,220.5289,1,s,1,0.4868,,-0.063774724,0.247194635,0.310969359,220.5333,220.5333,0,72,72,72,1,0.35673315,0.35673315,shape_difference3,1,,TRUE,,intensity,0.1,0.05,0.7,0.3,0.82,20,400,1E-11,3.5,0.01,0.5,0.1,,,,,,,,,,,,,,,,,,,,,,,,,,,,,,,,,,,,,,,,,,,,,,,,,,,,,,,,,,,,,,,,,,,,,,,,,,,,,,,,,
,,,,,215334,001,2025-03-15_20h35.35.895,Utility_discrimination_2024_2cat,2024.2.4,Win32,60.24096386,,,,,,,,1,"[0.5,0.5]","[0.924,0.383]",s,"[0.5,0.5875453976710873]","[0.5,0.41245460232891273]",220.534,222.8444,1,s,1,0.7881,,0.003752296,0.411099894,0.407347598,222.8472,222.8472,0,73,73,73,1,0.087545398,0.087545398,shape_difference4,1,,TRUE,,intensity,0.1,0.05,0.7,0.3,0.82,20,400,1E-11,3.5,0.01,0.5,0.1,,,,,,,,,,,,,,,,,,,,,,,,,,,,,,,,,,,,,,,,,,,,,,,,,,,,,,,,,,,,,,,,,,,,,,,,,,,,,,,,,
,,,,,215334,001,2025-03-15_20h35.35.895,Utility_discrimination_2024_2cat,2024.2.4,Win32,60.24096386,,,,,,,,1,"[0.5,0.5]","[0.924,0.383]",s,"[0.6407852927261052,0.5583558085650414]","[0.3592147072738948,0.44164419143495853]",222.8486,224.8769,0,s,0,0.5005,,0.042038422,0.559776165,0.517737743,224.8804,224.8804,0,74,74,74,1,0.152365035,0.152365035,shape_difference1,1,,TRUE,,intensity,0.1,0.05,0.7,0.3,0.82,20,400,1E-11,3.5,0.01,0.5,0.1,,,,,,,,,,,,,,,,,,,,,,,,,,,,,,,,,,,,,,,,,,,,,,,,,,,,,,,,,,,,,,,,,,,,,,,,,,,,,,,,,
,,,,,215334,001,2025-03-15_20h35.35.895,Utility_discrimination_2024_2cat,2024.2.4,Win32,60.24096386,,,,,,,,2,"[0.5,0.5]","[0.707,0.707]",d,"[0.7298550970460373,0.5952754352474375]","[0.2701449029539627,0.40472456475256247]",224.8818,226.8087,0,s,0,0.3999,,0.039821777,0.340483943,0.300662166,226.8117,226.8117,0,75,75,75,1,0.248760928,0.248760928,shape_difference1,1,,TRUE,,intensity,0.1,0.05,0.7,0.3,0.82,20,400,1E-11,3.5,0.01,0.5,0.1,,,,,,,,,,,,,,,,,,,,,,,,,,,,,,,,,,,,,,,,,,,,,,,,,,,,,,,,,,,,,,,,,,,,,,,,,,,,,,,,,
,,,,,215334,001,2025-03-15_20h35.35.895,Utility_discrimination_2024_2cat,2024.2.4,Win32,60.24096386,,,,,,,,3,"[0.5,0.5]","[0.383,0.924]",d,"[0.6314184612910472,0.6314184612910472]","[0.3685815387089528,0.3685815387089528]",226.813,228.8758,1,d,1,0.5434,,0.202343212,0.535934644,0.333591433,228.8787,228.8788,0,76,76,76,1,0.185881841,0.185881841,shape_difference2,1,,TRUE,,intensity,0.1,0.05,0.7,0.3,0.82,20,400,1E-11,3.5,0.01,0.5,0.1,,,,,,,,,,,,,,,,,,,,,,,,,,,,,,,,,,,,,,,,,,,,,,,,,,,,,,,,,,,,,,,,,,,,,,,,,,,,,,,,,
,,,,,215334,001,2025-03-15_20h35.35.895,Utility_discrimination_2024_2cat,2024.2.4,Win32,60.24096386,,,,,,,,4,"[0.5,0.5]","[0,1]",d,"[0.6307081216783272,0.8153376094798287]","[0.36929187832167276,0.1846623905201713]",228.8794,230.9902,1,s,1,0.5836,,-0.071051214,0.216297718,0.287348932,230.9945,230.9945,0,77,77,77,1,0.341274469,0.341274469,shape_difference3,1,,TRUE,,intensity,0.1,0.05,0.7,0.3,0.82,20,400,1E-11,3.5,0.01,0.5,0.1,,,,,,,,,,,,,,,,,,,,,,,,,,,,,,,,,,,,,,,,,,,,,,,,,,,,,,,,,,,,,,,,,,,,,,,,,,,,,,,,,
,,,,,215334,001,2025-03-15_20h35.35.895,Utility_discrimination_2024_2cat,2024.2.4,Win32,60.24096386,,,,,,,,0,"[0.5,0.5]","[1,0]",s,"[0.5,0.5784531817727399]","[0.5,0.4215468182272602]",230.9955,233.1726,1,d,1,0.6516,,0.430827589,0.857787445,0.426959856,233.1758,233.1758,0,78,78,78,1,0.078453182,0.078453182,shape_difference4,1,,TRUE,,intensity,0.1,0.05,0.7,0.3,0.82,20,400,1E-11,3.5,0.01,0.5,0.1,,,,,,,,,,,,,,,,,,,,,,,,,,,,,,,,,,,,,,,,,,,,,,,,,,,,,,,,,,,,,,,,,,,,,,,,,,,,,,,,,
,,,,,215334,001,2025-03-15_20h35.35.895,Utility_discrimination_2024_2cat,2024.2.4,Win32,60.24096386,,,,,,,,4,"[0.5,0.5]","[0,1]",d,"[1.122870417700196,0.5]","[-0.12287041770019591,0.5]",233.1767,235.2883,1,s,1,0.5831,,-0.076645974,0.195851439,0.272497413,235.2927,235.2927,0,79,79,79,1,0.622870418,0.622870418,shape_difference0,1,,TRUE,,intensity,0.1,0.05,0.7,0.3,0.82,20,400,1E-11,3.5,0.01,0.5,0.1,,,,,,,,,,,,,,,,,,,,,,,,,,,,,,,,,,,,,,,,,,,,,,,,,,,,,,,,,,,,,,,,,,,,,,,,,,,,,,,,,
,,,,,215334,001,2025-03-15_20h35.35.895,Utility_discrimination_2024_2cat,2024.2.4,Win32,60.24096386,,,,,,,,2,"[0.5,0.5]","[0.707,0.707]",s,"[0.5,0.57070532951481]","[0.5,0.42929467048519]",235.2938,237.4698,1,d,1,0.6593,,0.032515264,0.307714885,0.275199621,237.4728,237.4728,0,80,80,80,1,0.07070533,0.07070533,shape_difference4,1,,TRUE,,intensity,0.1,0.05,0.7,0.3,0.82,20,400,1E-11,3.5,0.01,0.5,0.1,,,,,,,,,,,,,,,,,,,,,,,,,,,,,,,,,,,,,,,,,,,,,,,,,,,,,,,,,,,,,,,,,,,,,,,,,,,,,,,,,
,,,,,215334,001,2025-03-15_20h35.35.895,Utility_discrimination_2024_2cat,2024.2.4,Win32,60.24096386,,,,,,,,3,"[0.5,0.5]","[0.383,0.924]",d,"[0.6254620972707345,0.6254620972707345]","[0.37453790272926546,0.37453790272926546]",237.4735,239.3522,0,s,0,0.3492,,0.194375713,0.497567305,0.303191592,239.3542,239.3542,0,81,81,81,1,0.177456998,0.177456998,shape_difference2,1,,TRUE,,intensity,0.1,0.05,0.7,0.3,0.82,20,400,1E-11,3.5,0.01,0.5,0.1,,,,,,,,,,,,,,,,,,,,,,,,,,,,,,,,,,,,,,,,,,,,,,,,,,,,,,,,,,,,,,,,,,,,,,,,,,,,,,,,,
,,,,,215334,001,2025-03-15_20h35.35.895,Utility_discrimination_2024_2cat,2024.2.4,Win32,60.24096386,,,,,,,,1,"[0.5,0.5]","[0.924,0.383]",d,"[0.6247050511448081,0.8008550058950463]","[0.3752949488551918,0.19914499410495368]",239.3549,241.5852,1,d,1,0.7021,,0.112029339,0.637024345,0.524995006,241.5885,241.5886,0,82,82,82,1,0.325600656,0.325600656,shape_difference3,1,,TRUE,,intensity,0.1,0.05,0.7,0.3,0.82,20,400,1E-11,3.5,0.01,0.5,0.1,,,,,,,,,,,,,,,,,,,,,,,,,,,,,,,,,,,,,,,,,,,,,,,,,,,,,,,,,,,,,,,,,,,,,,,,,,,,,,,,,
,,,,,215334,001,2025-03-15_20h35.35.895,Utility_discrimination_2024_2cat,2024.2.4,Win32,60.24096386,,,,,,,,0,"[0.5,0.5]","[1,0]",d,"[0.7967062365597934,0.6229853772753257]","[0.2032937634402066,0.3770146227246744]",241.5895,243.9669,1,s,1,0.8549,,0.423782137,0.817423683,0.393641546,243.9702,243.9702,0,83,83,83,1,0.321110646,0.321110646,shape_difference1,1,,TRUE,,intensity,0.1,0.05,0.7,0.3,0.82,20,400,1E-11,3.5,0.01,0.5,0.1,,,,,,,,,,,,,,,,,,,,,,,,,,,,,,,,,,,,,,,,,,,,,,,,,,,,,,,,,,,,,,,,,,,,,,,,,,,,,,,,,
,,,,,215334,001,2025-03-15_20h35.35.895,Utility_discrimination_2024_2cat,2024.2.4,Win32,60.24096386,,,,,,,,1,"[0.5,0.5]","[0.924,0.383]",s,"[1.0968678302467296,0.5]","[-0.09686783024672962,0.5]",243.9709,246.0989,1,s,1,0.6079,,0.107285017,0.584464549,0.477179531,246.1015,246.1015,0,84,84,84,1,0.59686783,0.59686783,shape_difference0,1,,TRUE,,intensity,0.1,0.05,0.7,0.3,0.82,20,400,1E-11,3.5,0.01,0.5,0.1,,,,,,,,,,,,,,,,,,,,,,,,,,,,,,,,,,,,,,,,,,,,,,,,,,,,,,,,,,,,,,,,,,,,,,,,,,,,,,,,,
,,,,,215334,001,2025-03-15_20h35.35.895,Utility_discrimination_2024_2cat,2024.2.4,Win32,60.24096386,,,,,,,,4,"[0.5,0.5]","[0,1]",s,"[0.7645365454551871,0.6096509706811003]","[0.23546345454481293,0.39034902931889975]",246.1022,248.4314,1,d,1,0.8066,,-0.081029527,0.188258923,0.26928845,248.4344,248.4344,0,85,85,85,1,0.286294963,0.286294963,shape_difference1,1,,TRUE,,intensity,0.1,0.05,0.7,0.3,0.82,20,400,1E-11,3.5,0.01,0.5,0.1,,,,,,,,,,,,,,,,,,,,,,,,,,,,,,,,,,,,,,,,,,,,,,,,,,,,,,,,,,,,,,,,,,,,,,,,,,,,,,,,,
,,,,,215334,001,2025-03-15_20h35.35.895,Utility_discrimination_2024_2cat,2024.2.4,Win32,60.24096386,,,,,,,,0,"[0.5,0.5]","[1,0]",d,"[0.5,0.5638939734147442]","[0.5,0.43610602658525577]",248.4353,250.3973,1,d,1,0.4359,,0.418744102,0.785417421,0.366673319,250.4006,250.4006,0,86,86,86,1,0.063893973,0.063893973,shape_difference4,1,,TRUE,,intensity,0.1,0.05,0.7,0.3,0.82,20,400,1E-11,3.5,0.01,0.5,0.1,,,,,,,,,,,,,,,,,,,,,,,,,,,,,,,,,,,,,,,,,,,,,,,,,,,,,,,,,,,,,,,,,,,,,,,,,,,,,,,,,
,,,,,215334,001,2025-03-15_20h35.35.895,Utility_discrimination_2024_2cat,2024.2.4,Win32,60.24096386,,,,,,,,2,"[0.5,0.5]","[0.707,0.707]",d,"[1.0813219331253379,0.5]","[-0.08132193312533786,0.5]",250.4019,252.4462,1,s,1,0.5166,,0.102498064,0.372526313,0.270028249,252.4501,252.4501,0,87,87,87,1,0.581321933,0.581321933,shape_difference0,1,,TRUE,,intensity,0.1,0.05,0.7,0.3,0.82,20,400,1E-11,3.5,0.01,0.5,0.1,,,,,,,,,,,,,,,,,,,,,,,,,,,,,,,,,,,,,,,,,,,,,,,,,,,,,,,,,,,,,,,,,,,,,,,,,,,,,,,,,
,,,,,215334,001,2025-03-15_20h35.35.895,Utility_discrimination_2024_2cat,2024.2.4,Win32,60.24096386,,,,,,,,3,"[0.5,0.5]","[0.383,0.924]",s,"[0.6518068296875518,0.6518068296875518]","[0.34819317031244823,0.34819317031244823]",252.4508,254.3953,1,s,1,0.4183,,0.17386432,0.481162733,0.307298413,254.3984,254.3984,0,88,88,88,1,0.214719703,0.214719703,shape_difference2,1,,TRUE,,intensity,0.1,0.05,0.7,0.3,0.82,20,400,1E-11,3.5,0.01,0.5,0.1,,,,,,,,,,,,,,,,,,,,,,,,,,,,,,,,,,,,,,,,,,,,,,,,,,,,,,,,,,,,,,,,,,,,,,,,,,,,,,,,,
,,,,,215334,001,2025-03-15_20h35.35.895,Utility_discrimination_2024_2cat,2024.2.4,Win32,60.24096386,,,,,,,,4,"[0.5,0.5]","[0,1]",s,"[0.6181098847554918,0.7849439517338757]","[0.3818901152445082,0.21505604826612434]",254.3995,256.694,1,s,1,0.7678,,-0.084526987,0.17989132,0.264418307,256.6968,256.6969,0,89,89,89,1,0.3083809,0.3083809,shape_difference3,1,,TRUE,,intensity,0.1,0.05,0.7,0.3,0.82,20,400,1E-11,3.5,0.01,0.5,0.1,,,,,,,,,,,,,,,,,,,,,,,,,,,,,,,,,,,,,,,,,,,,,,,,,,,,,,,,,,,,,,,,,,,,,,,,,,,,,,,,,
,,,,,215334,001,2025-03-15_20h35.35.895,Utility_discrimination_2024_2cat,2024.2.4,Win32,60.24096386,,,,,,,,2,"[0.5,0.5]","[0.707,0.707]",s,"[0.5,0.557699173562284]","[0.5,0.44230082643771595]",256.6983,258.9259,1,d,1,0.7005,,0.100492997,0.352949179,0.252456182,258.9281,258.9281,0,90,90,90,1,0.057699174,0.057699174,shape_difference4,1,,TRUE,,intensity,0.1,0.05,0.7,0.3,0.82,20,400,1E-11,3.5,0.01,0.5,0.1,,,,,,,,,,,,,,,,,,,,,,,,,,,,,,,,,,,,,,,,,,,,,,,,,,,,,,,,,,,,,,,,,,,,,,,,,,,,,,,,,
,,,,,215334,001,2025-03-15_20h35.35.895,Utility_discrimination_2024_2cat,2024.2.4,Win32,60.24096386,,,,,,,,0,"[0.5,0.5]","[1,0]",d,"[0.6408286269811064,0.6408286269811064]","[0.35917137301889357,0.35917137301889357]",258.9286,261.209,1,d,1,0.7527,,0.415048829,0.758003124,0.342954295,261.2124,261.2124,0,91,91,91,1,0.199191834,0.199191834,shape_difference2,1,,TRUE,,intensity,0.1,0.05,0.7,0.3,0.82,20,400,1E-11,3.5,0.01,0.5,0.1,,,,,,,,,,,,,,,,,,,,,,,,,,,,,,,,,,,,,,,,,,,,,,,,,,,,,,,,,,,,,,,,,,,,,,,,,,,,,,,,,
,,,,,215334,001,2025-03-15_20h35.35.895,Utility_discrimination_2024_2cat,2024.2.4,Win32,60.24096386,,,,,,,,3,"[0.5,0.5]","[0.383,0.924]",d,"[1.0683521277902017,0.5]","[-0.06835212779020172,0.5]",261.2134,263.391,1,s,1,0.6526,,0.158891908,0.460805891,0.301913982,263.3949,263.3949,0,92,92,92,1,0.568352128,0.568352128,shape_difference0,1,,TRUE,,intensity,0.1,0.05,0.7,0.3,0.82,20,400,1E-11,3.5,0.01,0.5,0.1,,,,,,,,,,,,,,,,,,,,,,,,,,,,,,,,,,,,,,,,,,,,,,,,,,,,,,,,,,,,,,,,,,,,,,,,,,,,,,,,,
,,,,,215334,001,2025-03-15_20h35.35.895,Utility_discrimination_2024_2cat,2024.2.4,Win32,60.24096386,,,,,,,,1,"[0.5,0.5]","[0.924,0.383]",s,"[0.6126110180198006,0.7716777562670907]","[0.38738898198019944,0.22832224373290932]",263.3958,265.5228,1,d,1,0.6027,,0.103889808,0.532647,0.428757193,265.5265,265.5266,0,93,93,93,1,0.294023546,0.294023546,shape_difference3,1,,TRUE,,intensity,0.1,0.05,0.7,0.3,0.82,20,400,1E-11,3.5,0.01,0.5,0.1,,,,,,,,,,,,,,,,,,,,,,,,,,,,,,,,,,,,,,,,,,,,,,,,,,,,,,,,,,,,,,,,,,,,,,,,,,,,,,,,,
,,,,,215334,001,2025-03-15_20h35.35.895,Utility_discrimination_2024_2cat,2024.2.4,Win32,60.24096386,,,,,,,,4,"[0.5,0.5]","[0,1]",d,"[0.743427589229591,0.6009012626352093]","[0.25657241077040904,0.3990987373647908]",265.5272,267.7054,1,d,1,0.6514,,-0.087366482,0.170286105,0.257652588,267.7092,267.7092,0,94,94,94,1,0.263449772,0.263449772,shape_difference1,1,,TRUE,,intensity,0.1,0.05,0.7,0.3,0.82,20,400,1E-11,3.5,0.01,0.5,0.1,,,,,,,,,,,,,,,,,,,,,,,,,,,,,,,,,,,,,,,,,,,,,,,,,,,,,,,,,,,,,,,,,,,,,,,,,,,,,,,,,
,,,,,215334,001,2025-03-15_20h35.35.895,Utility_discrimination_2024_2cat,2024.2.4,Win32,60.24096386,,,,,,,,0,"[0.5,0.5]","[1,0]",d,"[0.5,0.5518618307602665]","[0.5,0.4481381692397335]",267.7102,269.8713,1,d,1,0.6336,,0.412268603,0.720901798,0.308633196,269.8745,269.8746,0,95,95,95,1,0.051861831,0.051861831,shape_difference4,1,,TRUE,,intensity,0.1,0.05,0.7,0.3,0.82,20,400,1E-11,3.5,0.01,0.5,0.1,,,,,,,,,,,,,,,,,,,,,,,,,,,,,,,,,,,,,,,,,,,,,,,,,,,,,,,,,,,,,,,,,,,,,,,,,,,,,,,,,
,,,,,215334,001,2025-03-15_20h35.35.895,Utility_discrimination_2024_2cat,2024.2.4,Win32,60.24096386,,,,,,,,1,"[0.5,0.5]","[0.924,0.383]",d,"[1.0570752395220169,0.5]","[-0.057075239522016874,0.5]",269.8758,272.1365,1,d,1,0.7336,,0.101353029,0.479630726,0.378277697,272.1394,272.1395,0,96,96,96,1,0.55707524,0.55707524,shape_difference0,1,,TRUE,,intensity,0.1,0.05,0.7,0.3,0.82,20,400,1E-11,3.5,0.01,0.5,0.1,,,,,,,,,,,,,,,,,,,,,,,,,,,,,,,,,,,,,,,,,,,,,,,,,,,,,,,,,,,,,,,,,,,,,,,,,,,,,,,,,
,,,,,215334,001,2025-03-15_20h35.35.895,Utility_discrimination_2024_2cat,2024.2.4,Win32,60.24096386,,,,,,,,3,"[0.5,0.5]","[0.383,0.924]",d,"[0.7254100522894663,0.5934329545745298]","[0.2745899477105337,0.4065670454254701]",272.1406,274.185,0,s,0,0.5249,,0.147758006,0.434653405,0.286895399,274.1877,274.1877,0,97,97,97,1,0.243950273,0.243950273,shape_difference1,1,,TRUE,,intensity,0.1,0.05,0.7,0.3,0.82,20,400,1E-11,3.5,0.01,0.5,0.1,,,,,,,,,,,,,,,,,,,,,,,,,,,,,,,,,,,,,,,,,,,,,,,,,,,,,,,,,,,,,,,,,,,,,,,,,,,,,,,,,
,,,,,215334,001,2025-03-15_20h35.35.895,Utility_discrimination_2024_2cat,2024.2.4,Win32,60.24096386,,,,,,,,2,"[0.5,0.5]","[0.707,0.707]",d,"[0.609095962109531,0.7631975691624193]","[0.39090403789046907,0.23680243083758068]",274.1892,276.151,1,d,1,0.4325,,0.085053411,0.327867165,0.242813754,276.1555,276.1555,0,98,98,98,1,0.284845854,0.284845854,shape_difference3,1,,TRUE,,intensity,0.1,0.05,0.7,0.3,0.82,20,400,1E-11,3.5,0.01,0.5,0.1,,,,,,,,,,,,,,,,,,,,,,,,,,,,,,,,,,,,,,,,,,,,,,,,,,,,,,,,,,,,,,,,,,,,,,,,,,,,,,,,,
,,,,,215334,001,2025-03-15_20h35.35.895,Utility_discrimination_2024_2cat,2024.2.4,Win32,60.24096386,,,,,,,,4,"[0.5,0.5]","[0,1]",d,"[0.6344841388904416,0.6344841388904416]","[0.36551586110955836,0.36551586110955836]",276.1563,278.3669,1,s,1,0.682,,-0.089710576,0.158869289,0.248579865,278.371,278.371,0,99,99,99,1,0.190218018,0.190218018,shape_difference2,1,,TRUE,,intensity,0.1,0.05,0.7,0.3,0.82,20,400,1E-11,3.5,0.01,0.5,0.1,,,,,,,,,,,,,,,,,,,,,,,,,,,,,,,,,,,,,,,,,,,,,,,,,,,,,,,,,,,,,,,,,,,,,,,,,,,,,,,,,
,,,,,215334,001,2025-03-15_20h35.35.895,Utility_discrimination_2024_2cat,2024.2.4,Win32,60.24096386,,,,,,,,3,"[0.5,0.5]","[0.383,0.924]",s,"[0.5,0.5461641497782679]","[0.5,0.45383585022173206]",278.3719,280.4325,1,d,1,0.5318,,0.139330221,0.40007935,0.260749129,280.4363,280.4364,0,100,100,100,1,0.04616415,0.04616415,shape_difference4,1,,TRUE,,intensity,0.1,0.05,0.7,0.3,0.82,20,400,1E-11,3.5,0.01,0.5,0.1,,,,,,,,,,,,,,,,,,,,,,,,,,,,,,,,,,,,,,,,,,,,,,,,,,,,,,,,,,,,,,,,,,,,,,,,,,,,,,,,,
,,,,,215334,001,2025-03-15_20h35.35.895,Utility_discrimination_2024_2cat,2024.2.4,Win32,60.24096386,,,,,,,,2,"[0.5,0.5]","[0.707,0.707]",d,"[0.6061931416296423,0.7561944200151163]","[0.39380685837035767,0.24380557998488372]",280.4376,282.4646,1,s,1,0.5013,,0.069393436,0.299237223,0.229843787,282.4676,282.4676,0,101,101,101,1,0.277266688,0.277266688,shape_difference3,1,,TRUE,,intensity,0.1,0.05,0.7,0.3,0.82,20,400,1E-11,3.5,0.01,0.5,0.1,,,,,,,,,,,,,,,,,,,,,,,,,,,,,,,,,,,,,,,,,,,,,,,,,,,,,,,,,,,,,,,,,,,,,,,,,,,,,,,,,
,,,,,215334,001,2025-03-15_20h35.35.895,Utility_discrimination_2024_2cat,2024.2.4,Win32,60.24096386,,,,,,,,1,"[0.5,0.5]","[0.924,0.383]",s,"[0.6293169033725334,0.6293169033725334]","[0.3706830966274666,0.3706830966274666]",282.4694,284.897,1,s,1,0.9004,,0.115996186,0.551468838,0.435472652,284.9004,284.9004,0,102,102,102,1,0.18290934,0.18290934,shape_difference2,1,,TRUE,,intensity,0.1,0.05,0.7,0.3,0.82,20,400,1E-11,3.5,0.01,0.5,0.1,,,,,,,,,,,,,,,,,,,,,,,,,,,,,,,,,,,,,,,,,,,,,,,,,,,,,,,,,,,,,,,,,,,,,,,,,,,,,,,,,
,,,,,215334,001,2025-03-15_20h35.35.895,Utility_discrimination_2024_2cat,2024.2.4,Win32,60.24096386,,,,,,,,0,"[0.5,0.5]","[1,0]",s,"[0.7627955521635315,0.6089293251933253]","[0.2372044478364685,0.39107067480667473]",284.9014,286.9957,1,d,1,0.5659,,0.410123847,0.69289322,0.282769373,286.9996,286.9996,0,103,103,103,1,0.284410771,0.284410771,shape_difference1,1,,TRUE,,intensity,0.1,0.05,0.7,0.3,0.82,20,400,1E-11,3.5,0.01,0.5,0.1,,,,,,,,,,,,,,,,,,,,,,,,,,,,,,,,,,,,,,,,,,,,,,,,,,,,,,,,,,,,,,,,,,,,,,,,,,,,,,,,,
,,,,,215334,001,2025-03-15_20h35.35.895,Utility_discrimination_2024_2cat,2024.2.4,Win32,60.24096386,,,,,,,,0,"[0.5,0.5]","[1,0]",d,"[1.0468292627153928,0.5]","[-0.046829262715392894,0.5]",287.0004,289.1108,1,d,1,0.5811,,0.4078899,0.6815909,0.273701,289.1131,289.1131,0,104,104,104,1,0.546829263,0.546829263,shape_difference0,1,,TRUE,,intensity,0.1,0.05,0.7,0.3,0.82,20,400,1E-11,3.5,0.01,0.5,0.1,,,,,,,,,,,,,,,,,,,,,,,,,,,,,,,,,,,,,,,,,,,,,,,,,,,,,,,,,,,,,,,,,,,,,,,,,,,,,,,,,
,,,,,215334,001,2025-03-15_20h35.35.895,Utility_discrimination_2024_2cat,2024.2.4,Win32,60.24096386,,,,,,,,2,"[0.5,0.5]","[0.707,0.707]",d,"[1.0363703786585363,0.5]","[-0.03637037865853621,0.5]",289.1143,291.4599,0,s,0,0.8247,,0.057342305,0.293577587,0.236235282,291.4628,291.4628,0,105,105,105,1,0.536370379,0.536370379,shape_difference0,1,,TRUE,,intensity,0.1,0.05,0.7,0.3,0.82,20,400,1E-11,3.5,0.01,0.5,0.1,,,,,,,,,,,,,,,,,,,,,,,,,,,,,,,,,,,,,,,,,,,,,,,,,,,,,,,,,,,,,,,,,,,,,,,,,,,,,,,,,
,,,,,215334,001,2025-03-15_20h35.35.895,Utility_discrimination_2024_2cat,2024.2.4,Win32,60.24096386,,,,,,,,1,"[0.5,0.5]","[0.924,0.383]",d,"[0.6250366788252488,0.6250366788252488]","[0.3749633211747512,0.3749633211747512]",291.4635,293.5921,1,d,1,0.6085,,0.112614972,0.495243505,0.382628533,293.5949,293.5949,0,106,106,106,1,0.176855274,0.176855274,shape_difference2,1,,TRUE,,intensity,0.1,0.05,0.7,0.3,0.82,20,400,1E-11,3.5,0.01,0.5,0.1,,,,,,,,,,,,,,,,,,,,,,,,,,,,,,,,,,,,,,,,,,,,,,,,,,,,,,,,,,,,,,,,,,,,,,,,,,,,,,,,,
,,,,,215334,001,2025-03-15_20h35.35.895,Utility_discrimination_2024_2cat,2024.2.4,Win32,60.24096386,,,,,,,,4,"[0.5,0.5]","[0,1]",d,"[0.7471114230663929,0.6024282197342299]","[0.2528885769336071,0.39757178026577006]",293.5955,296.7076,1,s,1,1.5851,,-0.092682327,0.146624974,0.239307301,296.7109,296.7109,0,107,107,107,1,0.267436605,0.267436605,shape_difference1,1,,TRUE,,intensity,0.1,0.05,0.7,0.3,0.82,20,400,1E-11,3.5,0.01,0.5,0.1,,,,,,,,,,,,,,,,,,,,,,,,,,,,,,,,,,,,,,,,,,,,,,,,,,,,,,,,,,,,,,,,,,,,,,,,,,,,,,,,,
,,,,,215334,001,2025-03-15_20h35.35.895,Utility_discrimination_2024_2cat,2024.2.4,Win32,60.24096386,,,,,,,,3,"[0.5,0.5]","[0.383,0.924]",s,"[0.5,0.5395346562406743]","[0.5,0.4604653437593257]",296.7116,298.9066,0,s,0,0.6641,,0.132843141,0.393012905,0.260169764,298.9107,298.9108,0,108,108,108,1,0.039534656,0.039534656,shape_difference4,1,,TRUE,,intensity,0.1,0.05,0.7,0.3,0.82,20,400,1E-11,3.5,0.01,0.5,0.1,,,,,,,,,,,,,,,,,,,,,,,,,,,,,,,,,,,,,,,,,,,,,,,,,,,,,,,,,,,,,,,,,,,,,,,,,,,,,,,,,
,,,,,215334,001,2025-03-15_20h35.35.895,Utility_discrimination_2024_2cat,2024.2.4,Win32,60.24096386,,,,,,,,0,"[0.5,0.5]","[1,0]",d,"[0.6037354099725247,0.750265062179146]","[0.3962645900274752,0.24973493782085404]",298.9118,301.0062,1,s,1,0.576,,0.416787762,0.706611455,0.289823693,301.0093,301.0094,0,109,109,109,1,0.270849634,0.270849634,shape_difference3,1,,TRUE,,intensity,0.1,0.05,0.7,0.3,0.82,20,400,1E-11,3.5,0.01,0.5,0.1,,,,,,,,,,,,,,,,,,,,,,,,,,,,,,,,,,,,,,,,,,,,,,,,,,,,,,,,,,,,,,,,,,,,,,,,,,,,,,,,,
,,,,,215334,001,2025-03-15_20h35.35.895,Utility_discrimination_2024_2cat,2024.2.4,Win32,60.24096386,,,,,,,,2,"[0.5,0.5]","[0.707,0.707]",s,"[1.0611096255312902,0.5]","[-0.06110962553129018,0.5]",301.0101,302.9383,1,s,1,0.4001,,0.047934688,0.28765061,0.239715922,302.9414,302.9414,0,110,110,110,1,0.561109626,0.561109626,shape_difference0,1,,TRUE,,intensity,0.1,0.05,0.7,0.3,0.82,20,400,1E-11,3.5,0.01,0.5,0.1,,,,,,,,,,,,,,,,,,,,,,,,,,,,,,,,,,,,,,,,,,,,,,,,,,,,,,,,,,,,,,,,,,,,,,,,,,,,,,,,,
,,,,,215334,001,2025-03-15_20h35.35.895,Utility_discrimination_2024_2cat,2024.2.4,Win32,60.24096386,,,,,,,,4,"[0.5,0.5]","[0,1]",s,"[0.6214219599157991,0.6214219599157991]","[0.37857804008420093,0.37857804008420093]",302.9424,304.9696,1,s,1,0.5074,,-0.08000377,0.169393898,0.249397668,304.9722,304.9723,0,111,111,111,1,0.171742518,0.171742518,shape_difference2,1,,TRUE,,intensity,0.1,0.05,0.7,0.3,0.82,20,400,1E-11,3.5,0.01,0.5,0.1,,,,,,,,,,,,,,,,,,,,,,,,,,,,,,,,,,,,,,,,,,,,,,,,,,,,,,,,,,,,,,,,,,,,,,,,,,,,,,,,,
,,,,,215334,001,2025-03-15_20h35.35.895,Utility_discrimination_2024_2cat,2024.2.4,Win32,60.24096386,,,,,,,,3,"[0.5,0.5]","[0.383,0.924]",s,"[0.5,0.555872875787746]","[0.5,0.4441271242122539]",304.9735,307.1693,1,d,1,0.665,,0.127771508,0.385590454,0.257818946,307.1735,307.1735,0,112,112,112,1,0.055872876,0.055872876,shape_difference4,1,,TRUE,,intensity,0.1,0.05,0.7,0.3,0.82,20,400,1E-11,3.5,0.01,0.5,0.1,,,,,,,,,,,,,,,,,,,,,,,,,,,,,,,,,,,,,,,,,,,,,,,,,,,,,,,,,,,,,,,,,,,,,,,,,,,,,,,,,
,,,,,215334,001,2025-03-15_20h35.35.895,Utility_discrimination_2024_2cat,2024.2.4,Win32,60.24096386,,,,,,,,1,"[0.5,0.5]","[0.924,0.383]",d,"[0.6015950953836977,0.7451014833799914]","[0.3984049046163023,0.2548985166200086]",307.1744,309.2348,1,d,1,0.537,,0.110137473,0.458797315,0.348659842,309.237,309.2372,0,113,113,113,1,0.265261346,0.265261346,shape_difference3,1,,TRUE,,intensity,0.1,0.05,0.7,0.3,0.82,20,400,1E-11,3.5,0.01,0.5,0.1,,,,,,,,,,,,,,,,,,,,,,,,,,,,,,,,,,,,,,,,,,,,,,,,,,,,,,,,,,,,,,,,,,,,,,,,,,,,,,,,,
,,,,,215334,001,2025-03-15_20h35.35.895,Utility_discrimination_2024_2cat,2024.2.4,Win32,60.24096386,,,,,,,,1,"[0.5,0.5]","[0.924,0.383]",d,"[0.7337351959914293,0.5968837446587851]","[0.26626480400857067,0.40311625534121487]",309.2387,311.2505,1,s,1,0.4814,,0.108264915,0.409178177,0.300913262,311.255,311.255,0,114,114,114,1,0.252960169,0.252960169,shape_difference1,1,,TRUE,,intensity,0.1,0.05,0.7,0.3,0.82,20,400,1E-11,3.5,0.01,0.5,0.1,,,,,,,,,,,,,,,,,,,,,,,,,,,,,,,,,,,,,,,,,,,,,,,,,,,,,,,,,,,,,,,,,,,,,,,,,,,,,,,,,
,,,,,215334,001,2025-03-15_20h35.35.895,Utility_discrimination_2024_2cat,2024.2.4,Win32,60.24096386,,,,,,,,3,"[0.5,0.5]","[0.383,0.924]",s,"[0.7217336874220966,0.5919090933795054]","[0.27826631257790335,0.4080909066204946]",311.2558,313.2323,1,s,1,0.453,,0.12374933,0.377390278,0.253640948,313.2333,313.2334,0,115,115,115,1,0.239971523,0.239971523,shape_difference1,1,,TRUE,,intensity,0.1,0.05,0.7,0.3,0.82,20,400,1E-11,3.5,0.01,0.5,0.1,,,,,,,,,,,,,,,,,,,,,,,,,,,,,,,,,,,,,,,,,,,,,,,,,,,,,,,,,,,,,,,,,,,,,,,,,,,,,,,,,
,,,,,215334,001,2025-03-15_20h35.35.895,Utility_discrimination_2024_2cat,2024.2.4,Win32,60.24096386,,,,,,,,4,"[0.5,0.5]","[0,1]",s,"[0.5996723253042305,0.740462737809684]","[0.4003276746957695,0.25953726219031603]",313.2343,315.2813,1,d,1,0.5232,,-0.082641019,0.158797085,0.241438104,315.2846,315.2846,0,116,116,116,1,0.260241058,0.260241058,shape_difference3,1,,TRUE,,intensity,0.1,0.05,0.7,0.3,0.82,20,400,1E-11,3.5,0.01,0.5,0.1,,,,,,,,,,,,,,,,,,,,,,,,,,,,,,,,,,,,,,,,,,,,,,,,,,,,,,,,,,,,,,,,,,,,,,,,,,,,,,,,,
,,,,,215334,001,2025-03-15_20h35.35.895,Utility_discrimination_2024_2cat,2024.2.4,Win32,60.24096386,,,,,,,,2,"[0.5,0.5]","[0.707,0.707]",d,"[0.5,0.5512303531911087]","[0.5,0.4487696468088913]",315.2855,317.3641,1,s,1,0.5546,,0.04049279,0.28120859,0.240715801,317.3666,317.3667,0,117,117,117,1,0.051230353,0.051230353,shape_difference4,1,,TRUE,,intensity,0.1,0.05,0.7,0.3,0.82,20,400,1E-11,3.5,0.01,0.5,0.1,,,,,,,,,,,,,,,,,,,,,,,,,,,,,,,,,,,,,,,,,,,,,,,,,,,,,,,,,,,,,,,,,,,,,,,,,,,,,,,,,
,,,,,215334,001,2025-03-15_20h35.35.895,Utility_discrimination_2024_2cat,2024.2.4,Win32,60.24096386,,,,,,,,0,"[0.5,0.5]","[1,0]",s,"[0.6183007074470567,0.6183007074470567]","[0.3816992925529433,0.3816992925529433]",317.3674,319.3298,1,s,1,0.4308,,0.414347002,0.69024361,0.275896608,319.3325,319.3325,0,118,118,118,1,0.167327733,0.167327733,shape_difference2,1,,TRUE,,intensity,0.1,0.05,0.7,0.3,0.82,20,400,1E-11,3.5,0.01,0.5,0.1,,,,,,,,,,,,,,,,,,,,,,,,,,,,,,,,,,,,,,,,,,,,,,,,,,,,,,,,,,,,,,,,,,,,,,,,,,,,,,,,,
,,,,,215334,001,2025-03-15_20h35.35.895,Utility_discrimination_2024_2cat,2024.2.4,Win32,60.24096386,,,,,,,,3,"[0.5,0.5]","[0.383,0.924]",s,"[1.0526311106290294,0.5]","[-0.052631110629029365,0.5]",319.3345,321.1461,1,s,1,0.2826,,0.120517652,0.36799072,0.247473068,321.1492,321.1493,0,119,119,119,1,0.552631111,0.552631111,shape_difference0,1,,TRUE,,intensity,0.1,0.05,0.7,0.3,0.82,20,400,1E-11,3.5,0.01,0.5,0.1,,,,,,,,,,,,,,,,,,,,,,,,,,,,,,,,,,,,,,,,,,,,,,,,,,,,,,,,,,,,,,,,,,,,,,,,,,,,,,,,,
,,,,,215334,001,2025-03-15_20h35.35.895,Utility_discrimination_2024_2cat,2024.2.4,Win32,60.24096386,,,,,,,,2,"[0.5,0.5]","[0.707,0.707]",s,"[0.5978867322395748,0.7361549362646661]","[0.40211326776042516,0.2638450637353339]",321.1504,322.911,1,s,1,0.2419,,0.034534079,0.273966952,0.239432873,322.9136,322.9136,0,120,120,120,1,0.255578935,0.255578935,shape_difference3,1,,TRUE,,intensity,0.1,0.05,0.7,0.3,0.82,20,400,1E-11,3.5,0.01,0.5,0.1,,,,,,,,,,,,,,,,,,,,,,,,,,,,,,,,,,,,,,,,,,,,,,,,,,,,,,,,,,,,,,,,,,,,,,,,,,,,,,,,,
,,,,,215334,001,2025-03-15_20h35.35.895,Utility_discrimination_2024_2cat,2024.2.4,Win32,60.24096386,,,,,,,,1,"[0.5,0.5]","[0.924,0.383]",s,"[0.615536578166814,0.615536578166814]","[0.384463421833186,0.384463421833186]",322.9146,324.7273,1,s,1,0.2826,,0.106297927,0.388570994,0.282273067,324.7315,324.7315,0,121,121,121,1,0.163418074,0.163418074,shape_difference2,1,,TRUE,,intensity,0.1,0.05,0.7,0.3,0.82,20,400,1E-11,3.5,0.01,0.5,0.1,,,,,,,,,,,,,,,,,,,,,,,,,,,,,,,,,,,,,,,,,,,,,,,,,,,,,,,,,,,,,,,,,,,,,,,,,,,,,,,,,
,,,,,215334,001,2025-03-15_20h35.35.895,Utility_discrimination_2024_2cat,2024.2.4,Win32,60.24096386,,,,,,,,4,"[0.5,0.5]","[0,1]",s,"[0.7094962462882888,0.5868366475415743]","[0.2905037537117113,0.4131633524584258]",324.7324,326.5105,0,s,0,0.26,,-0.084807821,0.145924596,0.230732417,326.513,326.513,0,122,122,122,1,0.226727539,0.226727539,shape_difference1,1,,TRUE,,intensity,0.1,0.05,0.7,0.3,0.82,20,400,1E-11,3.5,0.01,0.5,0.1,,,,,,,,,,,,,,,,,,,,,,,,,,,,,,,,,,,,,,,,,,,,,,,,,,,,,,,,,,,,,,,,,,,,,,,,,,,,,,,,,
,,,,,215334,001,2025-03-15_20h35.35.895,Utility_discrimination_2024_2cat,2024.2.4,Win32,60.24096386,,,,,,,,0,"[0.5,0.5]","[1,0]",d,"[0.5,0.5466292867105779]","[0.5,0.45337071328942213]",326.5139,328.3252,1,s,1,0.2842,,0.412433395,0.677826237,0.265392842,328.3279,328.328,0,123,123,123,1,0.046629287,0.046629287,shape_difference4,1,,TRUE,,intensity,0.1,0.05,0.7,0.3,0.82,20,400,1E-11,3.5,0.01,0.5,0.1,,,,,,,,,,,,,,,,,,,,,,,,,,,,,,,,,,,,,,,,,,,,,,,,,,,,,,,,,,,,,,,,,,,,,,,,,,,,,,,,,
,,,,,215334,001,2025-03-15_20h35.35.895,Utility_discrimination_2024_2cat,2024.2.4,Win32,60.24096386,,,,,,,,1,"[0.5,0.5]","[0.924,0.383]",s,"[1.0446717538761434,0.5]","[-0.044671753876143305,0.5]",328.3296,330.3073,0,s,0,0.4561,,0.114236916,0.445005412,0.330768496,330.3112,330.3112,0,124,124,124,1,0.544671754,0.544671754,shape_difference0,1,,TRUE,,intensity,0.1,0.05,0.7,0.3,0.82,20,400,1E-11,3.5,0.01,0.5,0.1,,,,,,,,,,,,,,,,,,,,,,,,,,,,,,,,,,,,,,,,,,,,,,,,,,,,,,,,,,,,,,,,,,,,,,,,,,,,,,,,,
,,,,,215334,001,2025-03-15_20h35.35.895,Utility_discrimination_2024_2cat,2024.2.4,Win32,60.24096386,,,,,,,,0,"[0.5,0.5]","[1,0]",d,"[0.7385393789317486,0.5988750888862118]","[0.2614606210682514,0.4011249111137882]",330.312,332.1566,0,s,0,0.3161,,0.421003641,0.695323407,0.274319766,332.1596,332.1596,0,125,125,125,1,0.258159501,0.258159501,shape_difference1,1,,TRUE,,intensity,0.1,0.05,0.7,0.3,0.82,20,400,1E-11,3.5,0.01,0.5,0.1,,,,,,,,,,,,,,,,,,,,,,,,,,,,,,,,,,,,,,,,,,,,,,,,,,,,,,,,,,,,,,,,,,,,,,,,,,,,,,,,,
,,,,,215334,001,2025-03-15_20h35.35.895,Utility_discrimination_2024_2cat,2024.2.4,Win32,60.24096386,,,,,,,,2,"[0.5,0.5]","[0.707,0.707]",d,"[1.0632117974821071,0.5]","[-0.06321179748210715,0.5]",332.1609,334.0721,1,s,1,0.3919,,0.029710278,0.265586175,0.235875897,334.075,334.0751,0,126,126,126,1,0.563211797,0.563211797,shape_difference0,1,,TRUE,,intensity,0.1,0.05,0.7,0.3,0.82,20,400,1E-11,3.5,0.01,0.5,0.1,,,,,,,,,,,,,,,,,,,,,,,,,,,,,,,,,,,,,,,,,,,,,,,,,,,,,,,,,,,,,,,,,,,,,,,,,,,,,,,,,
,,,,,215334,001,2025-03-15_20h35.35.895,Utility_discrimination_2024_2cat,2024.2.4,Win32,60.24096386,,,,,,,,3,"[0.5,0.5]","[0.383,0.924]",s,"[0.613018959219826,0.613018959219826]","[0.38698104078017403,0.38698104078017403]",334.0763,335.988,1,d,1,0.3867,,0.117890438,0.356873471,0.238983033,335.9921,335.9921,0,127,127,127,1,0.159857085,0.159857085,shape_difference2,1,,TRUE,,intensity,0.1,0.05,0.7,0.3,0.82,20,400,1E-11,3.5,0.01,0.5,0.1,,,,,,,,,,,,,,,,,,,,,,,,,,,,,,,,,,,,,,,,,,,,,,,,,,,,,,,,,,,,,,,,,,,,,,,,,,,,,,,,,
,,,,,215334,001,2025-03-15_20h35.35.895,Utility_discrimination_2024_2cat,2024.2.4,Win32,60.24096386,,,,,,,,4,"[0.5,0.5]","[0,1]",d,"[0.5961714709437884,0.7320168124074689]","[0.4038285290562115,0.2679831875925312]",335.9932,338.0203,1,d,1,0.502,,-0.087063479,0.132037323,0.219100802,338.0228,338.0229,0,128,128,128,1,0.251100446,0.251100446,shape_difference3,1,,TRUE,,intensity,0.1,0.05,0.7,0.3,0.82,20,400,1E-11,3.5,0.01,0.5,0.1,,,,,,,,,,,,,,,,,,,,,,,,,,,,,,,,,,,,,,,,,,,,,,,,,,,,,,,,,,,,,,,,,,,,,,,,,,,,,,,,,
,,,,,215334,001,2025-03-15_20h35.35.895,Utility_discrimination_2024_2cat,2024.2.4,Win32,60.24096386,,,,,,,,0,"[0.5,0.5]","[1,0]",d,"[0.5,0.5412559048860686]","[0.5,0.4587440951139314]",338.0241,339.9862,1,s,1,0.4354,,0.418074191,0.685189918,0.267115727,339.9896,339.9896,0,129,129,129,1,0.041255905,0.041255905,shape_difference4,1,,TRUE,,intensity,0.1,0.05,0.7,0.3,0.82,20,400,1E-11,3.5,0.01,0.5,0.1,,,,,,,,,,,,,,,,,,,,,,,,,,,,,,,,,,,,,,,,,,,,,,,,,,,,,,,,,,,,,,,,,,,,,,,,,,,,,,,,,
,,,,,215334,001,2025-03-15_20h35.35.895,Utility_discrimination_2024_2cat,2024.2.4,Win32,60.24096386,,,,,,,,2,"[0.5,0.5]","[0.707,0.707]",s,"[1.0564515754114012,0.5]","[-0.05645157541140122,0.5]",339.9907,341.9353,1,s,1,0.419,,0.025766552,0.255648967,0.229882415,341.9393,341.9394,0,130,130,130,1,0.556451575,0.556451575,shape_difference0,1,,TRUE,,intensity,0.1,0.05,0.7,0.3,0.82,20,400,1E-11,3.5,0.01,0.5,0.1,,,,,,,,,,,,,,,,,,,,,,,,,,,,,,,,,,,,,,,,,,,,,,,,,,,,,,,,,,,,,,,,,,,,,,,,,,,,,,,,,
,,,,,215334,001,2025-03-15_20h35.35.895,Utility_discrimination_2024_2cat,2024.2.4,Win32,60.24096386,,,,,,,,1,"[0.5,0.5]","[0.924,0.383]",s,"[0.6106556465305693,0.6106556465305693]","[0.3893443534694308,0.3893443534694308]",341.9404,343.8513,0,s,0,0.3825,,0.151559285,0.548122287,0.396563002,343.8549,343.855,0,131,131,131,1,0.156514352,0.156514352,shape_difference2,1,,TRUE,,intensity,0.1,0.05,0.7,0.3,0.82,20,400,1E-11,3.5,0.01,0.5,0.1,,,,,,,,,,,,,,,,,,,,,,,,,,,,,,,,,,,,,,,,,,,,,,,,,,,,,,,,,,,,,,,,,,,,,,,,,,,,,,,,,
,,,,,215334,001,2025-03-15_20h35.35.895,Utility_discrimination_2024_2cat,2024.2.4,Win32,60.24096386,,,,,,,,3,"[0.5,0.5]","[0.383,0.924]",d,"[0.7878461120780873,0.6193128364998998]","[0.21215388792191275,0.38068716350010023]",343.856,345.8161,0,s,0,0.4429,,0.115732,0.343383291,0.227651291,345.8188,345.8188,0,132,132,132,1,0.311521766,0.311521766,shape_difference1,1,,TRUE,,intensity,0.1,0.05,0.7,0.3,0.82,20,400,1E-11,3.5,0.01,0.5,0.1,,,,,,,,,,,,,,,,,,,,,,,,,,,,,,,,,,,,,,,,,,,,,,,,,,,,,,,,,,,,,,,,,,,,,,,,,,,,,,,,,
,,,,,215334,001,2025-03-15_20h35.35.895,Utility_discrimination_2024_2cat,2024.2.4,Win32,60.24096386,,,,,,,,4,"[0.5,0.5]","[0,1]",d,"[0.594468818913636,0.7279091088151427]","[0.405531181086364,0.2720908911848573]",345.8199,347.7325,1,s,1,0.3837,,-0.08896075,0.114445546,0.203406296,347.7366,347.7366,0,133,133,133,1,0.24665488,0.24665488,shape_difference3,1,,TRUE,,intensity,0.1,0.05,0.7,0.3,0.82,20,400,1E-11,3.5,0.01,0.5,0.1,,,,,,,,,,,,,,,,,,,,,,,,,,,,,,,,,,,,,,,,,,,,,,,,,,,,,,,,,,,,,,,,,,,,,,,,,,,,,,,,,
,,,,,215334,001,2025-03-15_20h35.35.895,Utility_discrimination_2024_2cat,2024.2.4,Win32,60.24096386,,,,,,,,4,"[0.5,0.5]","[0,1]",s,"[0.5,0.5351959832479736]","[0.5,0.4648040167520264]",347.7374,349.5978,1,s,1,0.3366,,-0.090582992,0.099299364,0.189882355,349.6013,349.6013,0,134,134,134,1,0.035195983,0.035195983,shape_difference4,1,,TRUE,,intensity,0.1,0.05,0.7,0.3,0.82,20,400,1E-11,3.5,0.01,0.5,0.1,,,,,,,,,,,,,,,,,,,,,,,,,,,,,,,,,,,,,,,,,,,,,,,,,,,,,,,,,,,,,,,,,,,,,,,,,,,,,,,,,
,,,,,215334,001,2025-03-15_20h35.35.895,Utility_discrimination_2024_2cat,2024.2.4,Win32,60.24096386,,,,,,,,0,"[0.5,0.5]","[1,0]",s,"[0.5,0.5282469563010622]","[0.5,0.4717530436989378]",349.6022,352.58,1,s,1,1.4583,,0.415760586,0.67392193,0.258161344,352.583,352.583,0,135,135,135,1,0.028246956,0.028246956,shape_difference4,1,,TRUE,,intensity,0.1,0.05,0.7,0.3,0.82,20,400,1E-11,3.5,0.01,0.5,0.1,,,,,,,,,,,,,,,,,,,,,,,,,,,,,,,,,,,,,,,,,,,,,,,,,,,,,,,,,,,,,,,,,,,,,,,,,,,,,,,,,
,,,,,215334,001,2025-03-15_20h35.35.895,Utility_discrimination_2024_2cat,2024.2.4,Win32,60.24096386,,,,,,,,1,"[0.5,0.5]","[0.924,0.383]",s,"[1.0501414059008822,0.5]","[-0.05014140590088234,0.5]",352.5838,354.5786,0,s,0,0.4768,,0.208768048,0.622864473,0.414096426,354.5814,354.5814,0,136,136,136,1,0.550141406,0.550141406,shape_difference0,1,,TRUE,,intensity,0.1,0.05,0.7,0.3,0.82,20,400,1E-11,3.5,0.01,0.5,0.1,,,,,,,,,,,,,,,,,,,,,,,,,,,,,,,,,,,,,,,,,,,,,,,,,,,,,,,,,,,,,,,,,,,,,,,,,,,,,,,,,
,,,,,215334,001,2025-03-15_20h35.35.895,Utility_discrimination_2024_2cat,2024.2.4,Win32,60.24096386,,,,,,,,3,"[0.5,0.5]","[0.383,0.924]",d,"[0.8396831314615676,0.640799393235693]","[0.16031686853843247,0.359200606764307]",354.5827,356.5944,1,d,1,0.4844,,0.113526424,0.328880711,0.215354287,356.5975,356.5977,0,137,137,137,1,0.367622437,0.367622437,shape_difference1,1,,TRUE,,intensity,0.1,0.05,0.7,0.3,0.82,20,400,1E-11,3.5,0.01,0.5,0.1,,,,,,,,,,,,,,,,,,,,,,,,,,,,,,,,,,,,,,,,,,,,,,,,,,,,,,,,,,,,,,,,,,,,,,,,,,,,,,,,,
,,,,,215334,001,2025-03-15_20h35.35.895,Utility_discrimination_2024_2cat,2024.2.4,Win32,60.24096386,,,,,,,,2,"[0.5,0.5]","[0.707,0.707]",d,"[0.5924764069626046,0.7231023499567798]","[0.4075235930373954,0.2768976500432202]",356.5985,358.6603,1,s,1,0.5325,,0.084254355,0.281742865,0.197488509,358.6644,358.6646,0,138,138,138,1,0.24145276,0.24145276,shape_difference3,1,,TRUE,,intensity,0.1,0.05,0.7,0.3,0.82,20,400,1E-11,3.5,0.01,0.5,0.1,,,,,,,,,,,,,,,,,,,,,,,,,,,,,,,,,,,,,,,,,,,,,,,,,,,,,,,,,,,,,,,,,,,,,,,,,,,,,,,,,
,,,,,215334,001,2025-03-15_20h35.35.895,Utility_discrimination_2024_2cat,2024.2.4,Win32,60.24096386,,,,,,,,2,"[0.5,0.5]","[0.707,0.707]",s,"[0.6211477441547913,0.6211477441547913]","[0.37885225584520865,0.37885225584520865]",358.6656,360.5591,1,d,1,0.3676,,0.071128974,0.275699894,0.204570921,360.5623,360.5623,0,139,139,139,1,0.171354659,0.171354659,shape_difference2,1,,TRUE,,intensity,0.1,0.05,0.7,0.3,0.82,20,400,1E-11,3.5,0.01,0.5,0.1,,,,,,,,,,,,,,,,,,,,,,,,,,,,,,,,,,,,,,,,,,,,,,,,,,,,,,,,,,,,,,,,,,,,,,,,,,,,,,,,,
,,,,,215334,001,2025-03-15_20h35.35.895,Utility_discrimination_2024_2cat,2024.2.4,Win32,60.24096386,,,,,,,,4,"[0.5,0.5]","[0,1]",d,"[0.618838840379607,0.618838840379607]","[0.38116115962039293,0.38116115962039293]",360.5632,362.4745,1,d,1,0.3897,,-0.091997498,0.097204569,0.189202067,362.4775,362.4775,0,140,140,140,1,0.168088883,0.168088883,shape_difference2,1,,TRUE,,intensity,0.1,0.05,0.7,0.3,0.82,20,400,1E-11,3.5,0.01,0.5,0.1,,,,,,,,,,,,,,,,,,,,,,,,,,,,,,,,,,,,,,,,,,,,,,,,,,,,,,,,,,,,,,,,,,,,,,,,,,,,,,,,,
,,,,,215334,001,2025-03-15_20h35.35.895,Utility_discrimination_2024_2cat,2024.2.4,Win32,60.24096386,,,,,,,,0,"[0.5,0.5]","[1,0]",d,"[0.5,0.5201715622176011]","[0.5,0.479828437782399]",362.4781,364.6075,0,d,0,0.6018,,0.449097112,0.711881345,0.262784232,364.6118,364.6118,0,141,141,141,1,0.020171562,0.020171562,shape_difference4,1,,TRUE,,intensity,0.1,0.05,0.7,0.3,0.82,20,400,1E-11,3.5,0.01,0.5,0.1,,,,,,,,,,,,,,,,,,,,,,,,,,,,,,,,,,,,,,,,,,,,,,,,,,,,,,,,,,,,,,,,,,,,,,,,,,,,,,,,,
,,,,,215334,001,2025-03-15_20h35.35.895,Utility_discrimination_2024_2cat,2024.2.4,Win32,60.24096386,,,,,,,,1,"[0.5,0.5]","[0.924,0.383]",s,"[1.0781946978909063,0.5]","[-0.07819469789090616,0.5]",364.6128,366.5565,0,d,0,0.4189,,0.206321419,0.577368376,0.371046957,366.5608,366.5608,0,142,142,142,1,0.578194698,0.578194698,shape_difference0,1,,TRUE,,intensity,0.1,0.05,0.7,0.3,0.82,20,400,1E-11,3.5,0.01,0.5,0.1,,,,,,,,,,,,,,,,,,,,,,,,,,,,,,,,,,,,,,,,,,,,,,,,,,,,,,,,,,,,,,,,,,,,,,,,,,,,,,,,,
,,,,,215334,001,2025-03-15_20h35.35.895,Utility_discrimination_2024_2cat,2024.2.4,Win32,60.24096386,,,,,,,,3,"[0.5,0.5]","[0.383,0.924]",s,"[0.8228010633409524,0.6338017394584251]","[0.17719893665904757,0.3661982605415749]",366.5617,368.6383,1,d,1,0.5583,,0.111692226,0.310543013,0.198850787,368.6409,368.6409,0,143,143,143,1,0.3493518,0.3493518,shape_difference1,1,,TRUE,,intensity,0.1,0.05,0.7,0.3,0.82,20,400,1E-11,3.5,0.01,0.5,0.1,,,,,,,,,,,,,,,,,,,,,,,,,,,,,,,,,,,,,,,,,,,,,,,,,,,,,,,,,,,,,,,,,,,,,,,,,,,,,,,,,
,,,,,215334,001,2025-03-15_20h35.35.895,Utility_discrimination_2024_2cat,2024.2.4,Win32,60.24096386,,,,,,,,3,"[0.5,0.5]","[0.383,0.924]",d,"[0.5902292746457682,0.7176810699025846]","[0.4097707253542317,0.2823189300974154]",368.6416,370.5881,1,s,1,0.4179,,0.110148263,0.298946047,0.188797785,370.5926,370.5926,0,144,144,144,1,0.235585573,0.235585573,shape_difference3,1,,TRUE,,intensity,0.1,0.05,0.7,0.3,0.82,20,400,1E-11,3.5,0.01,0.5,0.1,,,,,,,,,,,,,,,,,,,,,,,,,,,,,,,,,,,,,,,,,,,,,,,,,,,,,,,,,,,,,,,,,,,,,,,,,,,,,,,,,
,,,,,215334,001,2025-03-15_20h35.35.895,Utility_discrimination_2024_2cat,2024.2.4,Win32,60.24096386,,,,,,,,1,"[0.5,0.5]","[0.924,0.383]",s,"[0.5876536482754652,0.7114672872233155]","[0.4123463517245348,0.28853271277668446]",370.5935,372.6532,1,s,1,0.5405,,0.203722484,0.544003394,0.34028091,372.6566,372.6566,0,145,145,145,1,0.2288607,0.2288607,shape_difference3,1,,TRUE,,intensity,0.1,0.05,0.7,0.3,0.82,20,400,1E-11,3.5,0.01,0.5,0.1,,,,,,,,,,,,,,,,,,,,,,,,,,,,,,,,,,,,,,,,,,,,,,,,,,,,,,,,,,,,,,,,,,,,,,,,,,,,,,,,,
,,,,,215334,001,2025-03-15_20h35.35.895,Utility_discrimination_2024_2cat,2024.2.4,Win32,60.24096386,,,,,,,,0,"[0.5,0.5]","[1,0]",s,"[0.8072302450066742,0.6273476015557968]","[0.19276975499332577,0.3726523984442032]",372.6575,374.6358,1,d,1,0.4499,,0.504569816,0.773835905,0.269266089,374.6398,374.6398,0,146,146,146,1,0.332500265,0.332500265,shape_difference1,1,,TRUE,,intensity,0.1,0.05,0.7,0.3,0.82,20,400,1E-11,3.5,0.01,0.5,0.1,,,,,,,,,,,,,,,,,,,,,,,,,,,,,,,,,,,,,,,,,,,,,,,,,,,,,,,,,,,,,,,,,,,,,,,,,,,,,,,,,
,,,,,215334,001,2025-03-15_20h35.35.895,Utility_discrimination_2024_2cat,2024.2.4,Win32,60.24096386,,,,,,,,4,"[0.5,0.5]","[0,1]",d,"[1.109182474546773,0.5]","[-0.10918247454677321,0.5]",374.6406,376.9844,1,s,1,0.8174,,-0.086210641,0.11852052,0.204731161,376.9875,376.9875,0,147,147,147,1,0.609182475,0.609182475,shape_difference0,1,,TRUE,,intensity,0.1,0.05,0.7,0.3,0.82,20,400,1E-11,3.5,0.01,0.5,0.1,,,,,,,,,,,,,,,,,,,,,,,,,,,,,,,,,,,,,,,,,,,,,,,,,,,,,,,,,,,,,,,,,,,,,,,,,,,,,,,,,
,,,,,215334,001,2025-03-15_20h35.35.895,Utility_discrimination_2024_2cat,2024.2.4,Win32,60.24096386,,,,,,,,2,"[0.5,0.5]","[0.707,0.707]",s,"[0.5,0.5407613183839146]","[0.5,0.4592386816160854]",376.9889,379.1831,0,d,0,0.6717,,0.060497139,0.268792518,0.20829538,379.1867,379.1867,0,148,148,148,1,0.040761318,0.040761318,shape_difference4,1,,TRUE,,intensity,0.1,0.05,0.7,0.3,0.82,20,400,1E-11,3.5,0.01,0.5,0.1,,,,,,,,,,,,,,,,,,,,,,,,,,,,,,,,,,,,,,,,,,,,,,,,,,,,,,,,,,,,,,,,,,,,,,,,,,,,,,,,,
,,,,,215334,001,2025-03-15_20h35.35.895,Utility_discrimination_2024_2cat,2024.2.4,Win32,60.24096386,,,,,,,,4,"[0.5,0.5]","[0,1]",s,"[0.616832893824094,0.616832893824094]","[0.38316710617590605,0.38316710617590605]",379.1875,381.2149,0,d,0,0.5083,,-0.078196149,0.148170268,0.226366417,381.2169,381.217,0,149,149,149,1,0.165251618,0.165251618,shape_difference2,1,,TRUE,,intensity,0.1,0.05,0.7,0.3,0.82,20,400,1E-11,3.5,0.01,0.5,0.1,,,,,,,,,,,,,,,,,,,,,,,,,,,,,,,,,,,,,,,,,,,,,,,,,,,,,,,,,,,,,,,,,,,,,,,,,,,,,,,,,
,,,,,215334,001,2025-03-15_20h35.35.895,Utility_discrimination_2024_2cat,2024.2.4,Win32,60.24096386,,,,,,,,1,"[0.5,0.5]","[0.924,0.383]",s,"[0.5,0.5531248387273721]","[0.5,0.44687516127262794]",381.2177,383.3317,0,d,0,0.5807,,0.201385871,0.499316632,0.297930762,383.3365,383.3365,0,150,150,150,1,0.053124839,0.053124839,shape_difference4,1,,TRUE,,intensity,0.1,0.05,0.7,0.3,0.82,20,400,1E-11,3.5,0.01,0.5,0.1,,,,,,,,,,,,,,,,,,,,,,,,,,,,,,,,,,,,,,,,,,,,,,,,,,,,,,,,,,,,,,,,,,,,,,,,,,,,,,,,,
,,,,,215334,001,2025-03-15_20h35.35.895,Utility_discrimination_2024_2cat,2024.2.4,Win32,60.24096386,,,,,,,,2,"[0.5,0.5]","[0.707,0.707]",s,"[0.7906881412529801,0.6204908637444713]","[0.20931185874701985,0.3795091362555288]",383.3373,385.4138,1,d,1,0.5611,,0.103650105,0.28628894,0.182638835,385.4166,385.4166,0,151,151,151,1,0.314597555,0.314597555,shape_difference1,1,,TRUE,,intensity,0.1,0.05,0.7,0.3,0.82,20,400,1E-11,3.5,0.01,0.5,0.1,,,,,,,,,,,,,,,,,,,,,,,,,,,,,,,,,,,,,,,,,,,,,,,,,,,,,,,,,,,,,,,,,,,,,,,,,,,,,,,,,
,,,,,215334,001,2025-03-15_20h35.35.895,Utility_discrimination_2024_2cat,2024.2.4,Win32,60.24096386,,,,,,,,0,"[0.5,0.5]","[1,0]",d,"[0.6249978740391213,0.6249978740391213]","[0.3750021259608786,0.3750021259608786]",385.4173,387.429,1,s,1,0.4877,,0.503049781,0.75406623,0.25101645,387.4325,387.4325,0,152,152,152,1,0.176800388,0.176800388,shape_difference2,1,,TRUE,,intensity,0.1,0.05,0.7,0.3,0.82,20,400,1E-11,3.5,0.01,0.5,0.1,,,,,,,,,,,,,,,,,,,,,,,,,,,,,,,,,,,,,,,,,,,,,,,,,,,,,,,,,,,,,,,,,,,,,,,,,,,,,,,,,
,,,,,215334,001,2025-03-15_20h35.35.895,Utility_discrimination_2024_2cat,2024.2.4,Win32,60.24096386,,,,,,,,3,"[0.5,0.5]","[0.383,0.924]",s,"[1.0957171931520335,0.5]","[-0.09571719315203353,0.5]",387.4332,389.4448,1,s,1,0.4904,,0.10882968,0.296941546,0.188111866,389.447,389.4472,0,153,153,153,1,0.595717193,0.595717193,shape_difference0,1,,TRUE,,intensity,0.1,0.05,0.7,0.3,0.82,20,400,1E-11,3.5,0.01,0.5,0.1,,,,,,,,,,,,,,,,,,,,,,,,,,,,,,,,,,,,,,,,,,,,,,,,,,,,,,,,,,,,,,,,,,,,,,,,,,,,,,,,,
,,,,,215334,001,2025-03-15_20h35.35.895,Utility_discrimination_2024_2cat,2024.2.4,Win32,60.24096386,,,,,,,,0,"[0.5,0.5]","[1,0]",s,"[0.584663551452021,0.7042535810487399]","[0.415336448547979,0.2957464189512601]",389.4483,391.5773,0,s,0,0.6007,,0.501598287,0.728769888,0.227171601,391.5815,391.5815,0,154,154,154,1,0.221053659,0.221053659,shape_difference3,1,,TRUE,,intensity,0.1,0.05,0.7,0.3,0.82,20,400,1E-11,3.5,0.01,0.5,0.1,,,,,,,,,,,,,,,,,,,,,,,,,,,,,,,,,,,,,,,,,,,,,,,,,,,,,,,,,,,,,,,,,,,,,,,,,,,,,,,,,
,,,,,215334,001,2025-03-15_20h35.35.895,Utility_discrimination_2024_2cat,2024.2.4,Win32,60.24096386,,,,,,,,1,"[0.5,0.5]","[0.924,0.383]",d,"[1.0877916458206016,0.5]","[-0.08779164582060162,0.5]",391.5824,393.9925,1,d,1,0.8874,,0.191713536,0.48009844,0.288384904,393.9959,393.996,0,155,155,155,1,0.587791646,0.587791646,shape_difference0,1,,TRUE,,intensity,0.1,0.05,0.7,0.3,0.82,20,400,1E-11,3.5,0.01,0.5,0.1,,,,,,,,,,,,,,,,,,,,,,,,,,,,,,,,,,,,,,,,,,,,,,,,,,,,,,,,,,,,,,,,,,,,,,,,,,,,,,,,,
,,,,,215334,001,2025-03-15_20h35.35.895,Utility_discrimination_2024_2cat,2024.2.4,Win32,60.24096386,,,,,,,,2,"[0.5,0.5]","[0.707,0.707]",d,"[0.7747425418353875,0.6138813782715946]","[0.2252574581646125,0.3861186217284054]",393.9971,396.1918,1,s,1,0.6672,,0.102907943,0.281488751,0.178580808,396.1961,396.1962,0,156,156,156,1,0.297340413,0.297340413,shape_difference1,1,,TRUE,,intensity,0.1,0.05,0.7,0.3,0.82,20,400,1E-11,3.5,0.01,0.5,0.1,,,,,,,,,,,,,,,,,,,,,,,,,,,,,,,,,,,,,,,,,,,,,,,,,,,,,,,,,,,,,,,,,,,,,,,,,,,,,,,,,
,,,,,215334,001,2025-03-15_20h35.35.895,Utility_discrimination_2024_2cat,2024.2.4,Win32,60.24096386,,,,,,,,4,"[0.5,0.5]","[0,1]",s,"[0.6224807895914516,0.6224807895914516]","[0.37751921040854836,0.37751921040854836]",396.197,398.1406,1,s,1,0.4172,,-0.031921354,0.178837099,0.210758453,398.1444,398.1444,0,157,157,157,1,0.173240155,0.173240155,shape_difference2,1,,TRUE,,intensity,0.1,0.05,0.7,0.3,0.82,20,400,1E-11,3.5,0.01,0.5,0.1,,,,,,,,,,,,,,,,,,,,,,,,,,,,,,,,,,,,,,,,,,,,,,,,,,,,,,,,,,,,,,,,,,,,,,,,,,,,,,,,,
,,,,,215334,001,2025-03-15_20h35.35.895,Utility_discrimination_2024_2cat,2024.2.4,Win32,60.24096386,,,,,,,,3,"[0.5,0.5]","[0.383,0.924]",s,"[0.5,0.5690871961676762]","[0.5,0.4309128038323237]",398.1454,400.0563,1,d,1,0.3916,,0.114083022,0.314580354,0.200497332,400.0591,400.0591,0,158,158,158,1,0.069087196,0.069087196,shape_difference4,1,,TRUE,,intensity,0.1,0.05,0.7,0.3,0.82,20,400,1E-11,3.5,0.01,0.5,0.1,,,,,,,,,,,,,,,,,,,,,,,,,,,,,,,,,,,,,,,,,,,,,,,,,,,,,,,,,,,,,,,,,,,,,,,,,,,,,,,,,
,,,,,215334,001,2025-03-15_20h35.35.895,Utility_discrimination_2024_2cat,2024.2.4,Win32,60.24096386,,,,,,,,2,"[0.5,0.5]","[0.707,0.707]",d,"[0.592275608791667,0.7226179178159278]","[0.407724391208333,0.27738208218407223]",400.06,402.1558,0,d,0,0.5687,,0.102147465,0.276129234,0.173981769,402.1588,402.1588,0,159,159,159,1,0.240928482,0.240928482,shape_difference3,1,,TRUE,,intensity,0.1,0.05,0.7,0.3,0.82,20,400,1E-11,3.5,0.01,0.5,0.1,,,,,,,,,,,,,,,,,,,,,,,,,,,,,,,,,,,,,,,,,,,,,,,,,,,,,,,,,,,,,,,,,,,,,,,,,,,,,,,,,
,,,,,215334,001,2025-03-15_20h35.35.895,Utility_discrimination_2024_2cat,2024.2.4,Win32,60.24096386,,,,,,,,3,"[0.5,0.5]","[0.383,0.924]",s,"[0.6203762291215075,0.6203762291215075]","[0.37962377087849253,0.37962377087849253]",402.1599,404.2206,0,d,0,0.5399,,0.122061912,0.34558229,0.223520379,404.2235,404.2236,0,160,160,160,1,0.170263408,0.170263408,shape_difference2,1,,TRUE,,intensity,0.1,0.05,0.7,0.3,0.82,20,400,1E-11,3.5,0.01,0.5,0.1,,,,,,,,,,,,,,,,,,,,,,,,,,,,,,,,,,,,,,,,,,,,,,,,,,,,,,,,,,,,,,,,,,,,,,,,,,,,,,,,,
,,,,,215334,001,2025-03-15_20h35.35.895,Utility_discrimination_2024_2cat,2024.2.4,Win32,60.24096386,,,,,,,,0,"[0.5,0.5]","[1,0]",s,"[0.5968871446357145,0.7337433985467366]","[0.40311285536428554,0.26625660145326335]",404.2242,406.4034,1,d,1,0.6493,,0.500156957,0.699300276,0.199143319,406.407,406.4071,0,161,161,161,1,0.252969046,0.252969046,shape_difference3,1,,TRUE,,intensity,0.1,0.05,0.7,0.3,0.82,20,400,1E-11,3.5,0.01,0.5,0.1,,,,,,,,,,,,,,,,,,,,,,,,,,,,,,,,,,,,,,,,,,,,,,,,,,,,,,,,,,,,,,,,,,,,,,,,,,,,,,,,,
,,,,,215334,001,2025-03-15_20h35.35.895,Utility_discrimination_2024_2cat,2024.2.4,Win32,60.24096386,,,,,,,,4,"[0.5,0.5]","[0,1]",d,"[1.081401534758888,0.5]","[-0.08140153475888778,0.5]",406.4084,408.4686,1,s,1,0.5397,,-0.042204624,0.172151186,0.21435581,408.4722,408.4722,0,162,162,162,1,0.581401535,0.581401535,shape_difference0,1,,TRUE,,intensity,0.1,0.05,0.7,0.3,0.82,20,400,1E-11,3.5,0.01,0.5,0.1,,,,,,,,,,,,,,,,,,,,,,,,,,,,,,,,,,,,,,,,,,,,,,,,,,,,,,,,,,,,,,,,,,,,,,,,,,,,,,,,,
,,,,,215334,001,2025-03-15_20h35.35.895,Utility_discrimination_2024_2cat,2024.2.4,Win32,60.24096386,,,,,,,,1,"[0.5,0.5]","[0.924,0.383]",s,"[0.5,0.5659735970275378]","[0.5,0.4340264029724622]",408.4729,410.5841,1,d,1,0.5901,,0.173743196,0.456292137,0.282548941,410.5865,410.5866,0,163,163,163,1,0.065973597,0.065973597,shape_difference4,1,,TRUE,,intensity,0.1,0.05,0.7,0.3,0.82,20,400,1E-11,3.5,0.01,0.5,0.1,,,,,,,,,,,,,,,,,,,,,,,,,,,,,,,,,,,,,,,,,,,,,,,,,,,,,,,,,,,,,,,,,,,,,,,,,,,,,,,,,
,,,,,215334,001,2025-03-15_20h35.35.895,Utility_discrimination_2024_2cat,2024.2.4,Win32,60.24096386,,,,,,,,4,"[0.5,0.5]","[0,1]",d,"[0.7661889094472042,0.6103358791323368]","[0.2338110905527958,0.3896641208676632]",410.5875,412.6,1,d,1,0.4831,,-0.050571836,0.16442493,0.214996766,412.604,412.604,0,164,164,164,1,0.288083235,0.288083235,shape_difference1,1,,TRUE,,intensity,0.1,0.05,0.7,0.3,0.82,20,400,1E-11,3.5,0.01,0.5,0.1,,,,,,,,,,,,,,,,,,,,,,,,,,,,,,,,,,,,,,,,,,,,,,,,,,,,,,,,,,,,,,,,,,,,,,,,,,,,,,,,,
,,,,,215334,001,2025-03-15_20h35.35.895,Utility_discrimination_2024_2cat,2024.2.4,Win32,60.24096386,,,,,,,,1,"[0.5,0.5]","[0.924,0.383]",d,"[0.5,0.5632209256355892]","[0.5,0.43677907436441077]",412.6048,415.0488,1,s,1,0.9231,,0.160260008,0.425780193,0.265520186,415.0518,415.0519,0,165,165,165,1,0.063220926,0.063220926,shape_difference4,1,,TRUE,,intensity,0.1,0.05,0.7,0.3,0.82,20,400,1E-11,3.5,0.01,0.5,0.1,,,,,,,,,,,,,,,,,,,,,,,,,,,,,,,,,,,,,,,,,,,,,,,,,,,,,,,,,,,,,,,,,,,,,,,,,,,,,,,,,
,,,,,215334,001,2025-03-15_20h35.35.895,Utility_discrimination_2024_2cat,2024.2.4,Win32,60.24096386,,,,,,,,3,"[0.5,0.5]","[0.383,0.924]",s,"[0.7593252419269824,0.6074908740887817]","[0.24067475807301764,0.39250912591121834]",415.0526,417.1147,1,s,1,0.5337,,0.119472401,0.330740057,0.211267657,417.1184,417.1185,0,166,166,166,1,0.280655024,0.280655024,shape_difference1,1,,TRUE,,intensity,0.1,0.05,0.7,0.3,0.82,20,400,1E-11,3.5,0.01,0.5,0.1,,,,,,,,,,,,,,,,,,,,,,,,,,,,,,,,,,,,,,,,,,,,,,,,,,,,,,,,,,,,,,,,,,,,,,,,,,,,,,,,,
,,,,,215334,001,2025-03-15_20h35.35.895,Utility_discrimination_2024_2cat,2024.2.4,Win32,60.24096386,,,,,,,,0,"[0.5,0.5]","[1,0]",s,"[0.5955959025508596,0.7306282348746587]","[0.4044040974491404,0.2693717651253413]",417.1192,419.0631,1,d,1,0.4231,,0.484423135,0.693232177,0.208809042,419.0651,419.0652,0,167,167,167,1,0.249597657,0.249597657,shape_difference3,1,,TRUE,,intensity,0.1,0.05,0.7,0.3,0.82,20,400,1E-11,3.5,0.01,0.5,0.1,,,,,,,,,,,,,,,,,,,,,,,,,,,,,,,,,,,,,,,,,,,,,,,,,,,,,,,,,,,,,,,,,,,,,,,,,,,,,,,,,
,,,,,215334,001,2025-03-15_20h35.35.895,Utility_discrimination_2024_2cat,2024.2.4,Win32,60.24096386,,,,,,,,2,"[0.5,0.5]","[0.707,0.707]",d,"[1.0761735597565107,0.5]","[-0.07617355975651063,0.5]",419.0662,421.246,1,d,1,0.6495,,0.105813955,0.289396272,0.183582317,421.251,421.251,0,168,168,168,1,0.57617356,0.57617356,shape_difference0,1,,TRUE,,intensity,0.1,0.05,0.7,0.3,0.82,20,400,1E-11,3.5,0.01,0.5,0.1,,,,,,,,,,,,,,,,,,,,,,,,,,,,,,,,,,,,,,,,,,,,,,,,,,,,,,,,,,,,,,,,,,,,,,,,,,,,,,,,,
,,,,,215334,001,2025-03-15_20h35.35.895,Utility_discrimination_2024_2cat,2024.2.4,Win32,60.24096386,,,,,,,,3,"[0.5,0.5]","[0.383,0.924]",d,"[0.6285327777270402,0.6285327777270402]","[0.3714672222729598,0.3714672222729598]",421.2522,423.4446,0,s,0,0.6663,,0.116869254,0.314919001,0.198049747,423.4465,423.4465,0,169,169,169,1,0.181800251,0.181800251,shape_difference2,1,,TRUE,,intensity,0.1,0.05,0.7,0.3,0.82,20,400,1E-11,3.5,0.01,0.5,0.1,,,,,,,,,,,,,,,,,,,,,,,,,,,,,,,,,,,,,,,,,,,,,,,,,,,,,,,,,,,,,,,,,,,,,,,,,,,,,,,,,
,,,,,215334,001,2025-03-15_20h35.35.895,Utility_discrimination_2024_2cat,2024.2.4,Win32,60.24096386,,,,,,,,4,"[0.5,0.5]","[0,1]",d,"[0.5940846744117777,0.7269823476670565]","[0.40591532558822224,0.2730176523329435]",423.4476,426.2429,1,d,1,1.2748,,-0.057440285,0.155321202,0.212761487,426.2463,426.2464,0,170,170,170,1,0.245651891,0.245651891,shape_difference3,1,,TRUE,,intensity,0.1,0.05,0.7,0.3,0.82,20,400,1E-11,3.5,0.01,0.5,0.1,,,,,,,,,,,,,,,,,,,,,,,,,,,,,,,,,,,,,,,,,,,,,,,,,,,,,,,,,,,,,,,,,,,,,,,,,,,,,,,,,
,,,,,215334,001,2025-03-15_20h35.35.895,Utility_discrimination_2024_2cat,2024.2.4,Win32,60.24096386,,,,,,,,0,"[0.5,0.5]","[1,0]",d,"[0.5,0.560726181337398]","[0.5,0.4392738186626019]",426.2471,428.9583,0,d,0,1.1853,,0.470533224,0.686919079,0.216385855,428.9605,428.9605,0,171,171,171,1,0.060726181,0.060726181,shape_difference4,1,,TRUE,,intensity,0.1,0.05,0.7,0.3,0.82,20,400,1E-11,3.5,0.01,0.5,0.1,,,,,,,,,,,,,,,,,,,,,,,,,,,,,,,,,,,,,,,,,,,,,,,,,,,,,,,,,,,,,,,,,,,,,,,,,,,,,,,,,
,,,,,215334,001,2025-03-15_20h35.35.895,Utility_discrimination_2024_2cat,2024.2.4,Win32,60.24096386,,,,,,,,2,"[0.5,0.5]","[0.707,0.707]",s,"[1.0718250687100166,0.5]","[-0.07182506871001659,0.5]",428.9613,431.2071,1,s,1,0.7165,,0.108227188,0.298063889,0.189836701,431.2106,431.2106,0,172,172,172,1,0.571825069,0.571825069,shape_difference0,1,,TRUE,,intensity,0.1,0.05,0.7,0.3,0.82,20,400,1E-11,3.5,0.01,0.5,0.1,,,,,,,,,,,,,,,,,,,,,,,,,,,,,,,,,,,,,,,,,,,,,,,,,,,,,,,,,,,,,,,,,,,,,,,,,,,,,,,,,
,,,,,215334,001,2025-03-15_20h35.35.895,Utility_discrimination_2024_2cat,2024.2.4,Win32,60.24096386,,,,,,,,1,"[0.5,0.5]","[0.924,0.383]",s,"[0.6424337341412426,0.6424337341412426]","[0.3575662658587574,0.3575662658587574]",431.2113,433.4561,1,d,1,0.7229,,0.149957259,0.397550491,0.247593231,433.4596,433.4597,0,173,173,173,1,0.201462142,0.201462142,shape_difference2,1,,TRUE,,intensity,0.1,0.05,0.7,0.3,0.82,20,400,1E-11,3.5,0.01,0.5,0.1,,,,,,,,,,,,,,,,,,,,,,,,,,,,,,,,,,,,,,,,,,,,,,,,,,,,,,,,,,,,,,,,,,,,,,,,,,,,,,,,,
,,,,,215334,001,2025-03-15_20h35.35.895,Utility_discrimination_2024_2cat,2024.2.4,Win32,60.24096386,,,,,,,,0,"[0.5,0.5]","[1,0]",d,"[0.7536991004382003,0.6051588262638861]","[0.24630089956179974,0.39484117373611394]",433.4605,435.4058,1,d,1,0.4171,,0.459493141,0.680115969,0.220622827,435.4091,435.4091,0,174,174,174,1,0.274566126,0.274566126,shape_difference1,1,,TRUE,,intensity,0.1,0.05,0.7,0.3,0.82,20,400,1E-11,3.5,0.01,0.5,0.1,,,,,,,,,,,,,,,,,,,,,,,,,,,,,,,,,,,,,,,,,,,,,,,,,,,,,,,,,,,,,,,,,,,,,,,,,,,,,,,,,
,,,,,215334,001,2025-03-15_20h35.35.895,Utility_discrimination_2024_2cat,2024.2.4,Win32,60.24096386,,,,,,,,4,"[0.5,0.5]","[0,1]",d,"[1.0681387617759726,0.5]","[-0.06813876177597256,0.5]",435.41,437.687,1,s,1,0.7573,,0.001986722,0.178981714,0.176994992,437.6897,437.6898,0,175,175,175,1,0.568138762,0.568138762,shape_difference0,1,,TRUE,,intensity,0.1,0.05,0.7,0.3,0.82,20,400,1E-11,3.5,0.01,0.5,0.1,,,,,,,,,,,,,,,,,,,,,,,,,,,,,,,,,,,,,,,,,,,,,,,,,,,,,,,,,,,,,,,,,,,,,,,,,,,,,,,,,
,,,,,215334,001,2025-03-15_20h35.35.895,Utility_discrimination_2024_2cat,2024.2.4,Win32,60.24096386,,,,,,,,2,"[0.5,0.5]","[0.707,0.707]",s,"[0.5,0.5713806667666006]","[0.5,0.4286193332333994]",437.6903,439.7696,1,d,1,0.5503,,0.107537684,0.294925794,0.18738811,439.7735,439.7736,0,176,176,176,1,0.071380667,0.071380667,shape_difference4,1,,TRUE,,intensity,0.1,0.05,0.7,0.3,0.82,20,400,1E-11,3.5,0.01,0.5,0.1,,,,,,,,,,,,,,,,,,,,,,,,,,,,,,,,,,,,,,,,,,,,,,,,,,,,,,,,,,,,,,,,,,,,,,,,,,,,,,,,,
,,,,,215334,001,2025-03-15_20h35.35.895,Utility_discrimination_2024_2cat,2024.2.4,Win32,60.24096386,,,,,,,,1,"[0.5,0.5]","[0.924,0.383]",d,"[0.6367350842110235,0.6367350842110235]","[0.3632649157889764,0.3632649157889764]",439.7748,441.7686,0,d,0,0.4673,,0.141951535,0.389910511,0.247958976,441.7711,441.7711,0,177,177,177,1,0.193401816,0.193401816,shape_difference2,1,,TRUE,,intensity,0.1,0.05,0.7,0.3,0.82,20,400,1E-11,3.5,0.01,0.5,0.1,,,,,,,,,,,,,,,,,,,,,,,,,,,,,,,,,,,,,,,,,,,,,,,,,,,,,,,,,,,,,,,,,,,,,,,,,,,,,,,,,
,,,,,215334,001,2025-03-15_20h35.35.895,Utility_discrimination_2024_2cat,2024.2.4,Win32,60.24096386,,,,,,,,3,"[0.5,0.5]","[0.383,0.924]",s,"[0.7489746870289956,0.6032005466797676]","[0.2510253129710044,0.39679945332023236]",441.7717,443.7013,1,s,1,0.4044,,0.114736907,0.299637982,0.184901075,443.7045,443.7045,0,178,178,178,1,0.269453124,0.269453124,shape_difference1,1,,TRUE,,intensity,0.1,0.05,0.7,0.3,0.82,20,400,1E-11,3.5,0.01,0.5,0.1,,,,,,,,,,,,,,,,,,,,,,,,,,,,,,,,,,,,,,,,,,,,,,,,,,,,,,,,,,,,,,,,,,,,,,,,,,,,,,,,,
,,,,,215334,001,2025-03-15_20h35.35.895,Utility_discrimination_2024_2cat,2024.2.4,Win32,60.24096386,,,,,,,,1,"[0.5,0.5]","[0.924,0.383]",s,"[0.5923826200327705,0.7228760859276239]","[0.4076173799672295,0.27712391407237613]",443.7053,445.7172,1,s,1,0.4839,,0.135635502,0.381798233,0.246162731,445.7215,445.7215,0,179,179,179,1,0.241207885,0.241207885,shape_difference3,1,,TRUE,,intensity,0.1,0.05,0.7,0.3,0.82,20,400,1E-11,3.5,0.01,0.5,0.1,,,,,,,,,,,,,,,,,,,,,,,,,,,,,,,,,,,,,,,,,,,,,,,,,,,,,,,,,,,,,,,,,,,,,,,,,,,,,,,,,
,,,,,215334,001,2025-03-15_20h35.35.895,Utility_discrimination_2024_2cat,2024.2.4,Win32,60.24096386,,,,,,,,3,"[0.5,0.5]","[0.383,0.924]",s,"[0.744897864551095,0.6015106949383868]","[0.25510213544890503,0.39848930506161323]",445.7224,449.315,1,d,1,2.0681,,0.112983402,0.298083253,0.185099851,449.3189,449.319,0,180,180,180,1,0.265040979,0.265040979,shape_difference1,1,,TRUE,,intensity,0.1,0.05,0.7,0.3,0.82,20,400,1E-11,3.5,0.01,0.5,0.1,,,,,,,,,,,,,,,,,,,,,,,,,,,,,,,,,,,,,,,,,,,,,,,,,,,,,,,,,,,,,,,,,,,,,,,,,,,,,,,,,
,,,,,215334,001,2025-03-15_20h35.35.895,Utility_discrimination_2024_2cat,2024.2.4,Win32,60.24096386,,,,,,,,4,"[0.5,0.5]","[0,1]",d,"[0.5904358123557922,0.7181793488688042]","[0.40956418764420777,0.28182065113119575]",449.3202,451.3135,1,d,1,0.4731,,0.001126856,0.173112685,0.171985829,451.3176,451.3176,0,181,181,181,1,0.236124836,0.236124836,shape_difference3,1,,TRUE,,intensity,0.1,0.05,0.7,0.3,0.82,20,400,1E-11,3.5,0.01,0.5,0.1,,,,,,,,,,,,,,,,,,,,,,,,,,,,,,,,,,,,,,,,,,,,,,,,,,,,,,,,,,,,,,,,,,,,,,,,,,,,,,,,,
,,,,,215334,001,2025-03-15_20h35.35.895,Utility_discrimination_2024_2cat,2024.2.4,Win32,60.24096386,,,,,,,,2,"[0.5,0.5]","[0.707,0.707]",d,"[0.5,0.5686178659275356]","[0.5,0.4313821340724644]",451.3181,453.3795,1,d,1,0.5336,,0.110192579,0.317132178,0.206939599,453.3819,453.382,0,182,182,182,1,0.068617866,0.068617866,shape_difference4,1,,TRUE,,intensity,0.1,0.05,0.7,0.3,0.82,20,400,1E-11,3.5,0.01,0.5,0.1,,,,,,,,,,,,,,,,,,,,,,,,,,,,,,,,,,,,,,,,,,,,,,,,,,,,,,,,,,,,,,,,,,,,,,,,,,,,,,,,,
,,,,,215334,001,2025-03-15_20h35.35.895,Utility_discrimination_2024_2cat,2024.2.4,Win32,60.24096386,,,,,,,,0,"[0.5,0.5]","[1,0]",d,"[0.6575975467589386,0.6575975467589386]","[0.3424024532410614,0.3424024532410614]",453.3832,455.463,1,d,1,0.5626,,0.450613281,0.672547504,0.221934223,455.4665,455.4665,0,183,183,183,1,0.22291025,0.22291025,shape_difference2,1,,TRUE,,intensity,0.1,0.05,0.7,0.3,0.82,20,400,1E-11,3.5,0.01,0.5,0.1,,,,,,,,,,,,,,,,,,,,,,,,,,,,,,,,,,,,,,,,,,,,,,,,,,,,,,,,,,,,,,,,,,,,,,,,,,,,,,,,,
,,,,,215334,001,2025-03-15_20h35.35.895,Utility_discrimination_2024_2cat,2024.2.4,Win32,60.24096386,,,,,,,,1,"[0.5,0.5]","[0.924,0.383]",d,"[1.0649446689493742,0.5]","[-0.06494466894937434,0.5]",455.4673,457.5114,0,s,0,0.5156,,0.130584512,0.3728416,0.242257088,457.5144,457.5144,0,184,184,184,1,0.564944669,0.564944669,shape_difference0,1,,TRUE,,intensity,0.1,0.05,0.7,0.3,0.82,20,400,1E-11,3.5,0.01,0.5,0.1,,,,,,,,,,,,,,,,,,,,,,,,,,,,,,,,,,,,,,,,,,,,,,,,,,,,,,,,,,,,,,,,,,,,,,,,,,,,,,,,,
,,,,,215334,001,2025-03-15_20h35.35.895,Utility_discrimination_2024_2cat,2024.2.4,Win32,60.24096386,,,,,,,,4,"[0.5,0.5]","[0,1]",d,"[0.7412718171552869,0.6000076904442369]","[0.2587281828447131,0.39999230955576315]",457.5157,459.5772,0,d,0,0.533,,0.000204936,0.166367547,0.166162611,459.5807,459.5808,0,185,185,185,1,0.261116685,0.261116685,shape_difference1,1,,TRUE,,intensity,0.1,0.05,0.7,0.3,0.82,20,400,1E-11,3.5,0.01,0.5,0.1,,,,,,,,,,,,,,,,,,,,,,,,,,,,,,,,,,,,,,,,,,,,,,,,,,,,,,,,,,,,,,,,,,,,,,,,,,,,,,,,,
,,,,,215334,001,2025-03-15_20h35.35.895,Utility_discrimination_2024_2cat,2024.2.4,Win32,60.24096386,,,,,,,,3,"[0.5,0.5]","[0.383,0.924]",s,"[0.5,0.5662590705730238]","[0.5,0.4337409294269762]",459.582,461.5256,1,d,1,0.4185,,0.111535561,0.296561217,0.185025655,461.5273,461.5273,0,186,186,186,1,0.066259071,0.066259071,shape_difference4,1,,TRUE,,intensity,0.1,0.05,0.7,0.3,0.82,20,400,1E-11,3.5,0.01,0.5,0.1,,,,,,,,,,,,,,,,,,,,,,,,,,,,,,,,,,,,,,,,,,,,,,,,,,,,,,,,,,,,,,,,,,,,,,,,,,,,,,,,,
,,,,,215334,001,2025-03-15_20h35.35.895,Utility_discrimination_2024_2cat,2024.2.4,Win32,60.24096386,,,,,,,,0,"[0.5,0.5]","[1,0]",d,"[0.5881818067183473,0.7127414867043156]","[0.4118181932816527,0.2872585132956844]",461.5282,463.5415,1,d,1,0.4838,,0.503090782,0.691339125,0.188248342,463.5436,463.5436,0,187,187,187,1,0.230239704,0.230239704,shape_difference3,1,,TRUE,,intensity,0.1,0.05,0.7,0.3,0.82,20,400,1E-11,3.5,0.01,0.5,0.1,,,,,,,,,,,,,,,,,,,,,,,,,,,,,,,,,,,,,,,,,,,,,,,,,,,,,,,,,,,,,,,,,,,,,,,,,,,,,,,,,
,,,,,215334,001,2025-03-15_20h35.35.895,Utility_discrimination_2024_2cat,2024.2.4,Win32,60.24096386,,,,,,,,2,"[0.5,0.5]","[0.707,0.707]",d,"[1.0779550198635675,0.5]","[-0.07795501986356757,0.5]",463.5455,465.6903,1,d,1,0.616,,0.10922031,0.299078807,0.189858497,465.6944,465.6945,0,188,188,188,1,0.57795502,0.57795502,shape_difference0,1,,TRUE,,intensity,0.1,0.05,0.7,0.3,0.82,20,400,1E-11,3.5,0.01,0.5,0.1,,,,,,,,,,,,,,,,,,,,,,,,,,,,,,,,,,,,,,,,,,,,,,,,,,,,,,,,,,,,,,,,,,,,,,,,,,,,,,,,,
,,,,,215334,001,2025-03-15_20h35.35.895,Utility_discrimination_2024_2cat,2024.2.4,Win32,60.24096386,,,,,,,,4,"[0.5,0.5]","[0,1]",d,"[0.6506693296594391,0.6506693296594391]","[0.34933067034056087,0.34933067034056087]",465.6955,467.6902,1,d,1,0.4658,,-0.011747531,0.158490202,0.170237734,467.6937,467.6938,0,189,189,189,1,0.213110792,0.213110792,shape_difference2,1,,TRUE,,intensity,0.1,0.05,0.7,0.3,0.82,20,400,1E-11,3.5,0.01,0.5,0.1,,,,,,,,,,,,,,,,,,,,,,,,,,,,,,,,,,,,,,,,,,,,,,,,,,,,,,,,,,,,,,,,,,,,,,,,,,,,,,,,,
,,,,,215334,001,2025-03-15_20h35.35.895,Utility_discrimination_2024_2cat,2024.2.4,Win32,60.24096386,,,,,,,,2,"[0.5,0.5]","[0.707,0.707]",d,"[0.5,0.5642131635217126]","[0.5,0.4357868364782874]",467.695,469.9051,0,d,0,0.6849,,0.108425008,0.296303801,0.187878794,469.9089,469.9089,0,190,190,190,1,0.064213164,0.064213164,shape_difference4,1,,TRUE,,intensity,0.1,0.05,0.7,0.3,0.82,20,400,1E-11,3.5,0.01,0.5,0.1,,,,,,,,,,,,,,,,,,,,,,,,,,,,,,,,,,,,,,,,,,,,,,,,,,,,,,,,,,,,,,,,,,,,,,,,,,,,,,,,,
,,,,,215334,001,2025-03-15_20h35.35.895,Utility_discrimination_2024_2cat,2024.2.4,Win32,60.24096386,,,,,,,,3,"[0.5,0.5]","[0.383,0.924]",s,"[0.6426304476047927,0.6426304476047927]","[0.3573695523952073,0.3573695523952073]",469.9097,472.0705,1,s,1,0.6323,,0.11033479,0.295030025,0.184695235,472.0736,472.0736,0,191,191,191,1,0.201740379,0.201740379,shape_difference2,1,,TRUE,,intensity,0.1,0.05,0.7,0.3,0.82,20,400,1E-11,3.5,0.01,0.5,0.1,,,,,,,,,,,,,,,,,,,,,,,,,,,,,,,,,,,,,,,,,,,,,,,,,,,,,,,,,,,,,,,,,,,,,,,,,,,,,,,,,
