Consent.started,Consent.stopped,key_resp.keys,key_resp.rt,key_resp.duration,participant,session,date,expName,psychopyVersion,OS,frameRate,SetupExperiment.started,SetupExperiment.stopped,DiscrimInstructions_Pre.started,DiscrimInstructions_Pre.stopped,KeyboardResponse.keys,KeyboardResponse.rt,KeyboardResponse.duration,feature_index,feature_center,feature_vector,correct_answer,coord1,coord2,DiscriminationTrial.started,DiscriminationTrial.stopped,PreTest.response,Resp_s_or_d.keys,Resp_s_or_d.corr,Resp_s_or_d.rt,Resp_s_or_d.duration,PreTest.CI_lower,PreTest.CI_upper,PreTest.CI_width,CrashPretest_2.started,CrashPretest_2.stopped,PreTest.thisRepN,PreTest.thisTrialN,PreTest.thisN,PreTest.thisIndex,PreTest.ran,PreTest.intensity,intensity,PreTest.label,PreTest.nReps,PreTest.method,PreTest.autoLog,PreTest.seed,PreTest.varName,PreTest.startVal,PreTest.minVal,PreTest.maxVal,PreTest.startValSd,PreTest.pThreshold,PreTest.nTrials,PreTest.maxTrials,PreTest.stopInterval,PreTest.beta,PreTest.delta,PreTest.gamma,PreTest.grain,WelcomeToCategorizationTask.started,WelcomeToCategorizationTask.stopped,PressAnyKey3.keys,PressAnyKey3.rt,PressAnyKey3.duration,shape_coordinates,category_center,category_sigma,subspace_center,subspace_vector1,subspace_vector2,CategorizationTrial.started,CategorizationTrial.stopped,Respond_1or2.keys,Respond_1or2.rt,Respond_1or2.duration,Feedback.started,Feedback.stopped,xcoord,ycoord,shape_coord,numeric_response_minus1,correctness,truecategory,mixture_index,respAifA,respBifA,respAifB,respBifB,trial_number,D,muAx,muAy,muBx,muBy,sigmaA,sigmaB,priorA,priorB,TrialLoop.thisRepN,TrialLoop.thisTrialN,TrialLoop.thisN,TrialLoop.thisIndex,TrialLoop.ran,DiscriminationInstructions_Post.started,DiscriminationInstructions_Post.stopped,key_resp_2.keys,key_resp_2.rt,key_resp_2.duration,PostTest.response,PostTest.CI_lower,PostTest.CI_upper,PostTest.CI_width,CrashPosttest.started,CrashPosttest.stopped,PostTest.thisRepN,PostTest.thisTrialN,PostTest.thisN,PostTest.thisIndex,PostTest.ran,PostTest.intensity,PostTest.label,PostTest.nReps,PostTest.method,PostTest.autoLog,PostTest.seed,PostTest.varName,PostTest.startVal,PostTest.minVal,PostTest.maxVal,PostTest.startValSd,PostTest.pThreshold,PostTest.nTrials,PostTest.maxTrials,PostTest.stopInterval,PostTest.beta,PostTest.delta,PostTest.gamma,PostTest.grain,Thanks.started,Thanks.stopped
0.0004,2.2788,y,2.2603,,225967,001,2025-03-14_00h37.01.876,Utility_discrimination_2024_2cat,2024.2.4,MacIntel,60.24096386,,,,,,,,,,,,,,,,,,,,,,,,,,,,,,,,,,,,,,,,,,,,,,,,,,,,,,,,,,,,,,,,,,,,,,,,,,,,,,,,,,,,,,,,,,,,,,,,,,,,,,,,,,,,,,,,,,,,,,,,,,,,,,,,,,,
,,,,,225967,001,2025-03-14_00h37.01.876,Utility_discrimination_2024_2cat,2024.2.4,MacIntel,60.24096386,2.279,2.2791,,,,,,,,,,,,,,,,,,,,,,,,,,,,,,,,,,,,,,,,,,,,,,,,,,,,,,,,,,,,,,,,,,,,,,,,,,,,,,,,,,,,,,,,,,,,,,,,,,,,,,,,,,,,,,,,,,,,,,,,,,,,,,,,,
,,,,,225967,001,2025-03-14_00h37.01.876,Utility_discrimination_2024_2cat,2024.2.4,MacIntel,60.24096386,,,2.2792,4.7292,space,2.4239,,,,,,,,,,,,,,,,,,,,,,,,,,,,,,,,,,,,,,,,,,,,,,,,,,,,,,,,,,,,,,,,,,,,,,,,,,,,,,,,,,,,,,,,,,,,,,,,,,,,,,,,,,,,,,,,,,,,,,,,,,,,,
,,,,,225967,001,2025-03-14_00h37.01.876,Utility_discrimination_2024_2cat,2024.2.4,MacIntel,60.24096386,,,,,,,,1,"[0.5,0.5]","[0.924,0.383]",,"[0.6185239449756466,0.5]","[0.3814760550243534,0.5]",4.757,7.3456,1,s,1,1.0762,,-0.447967632,0.547967632,0.995935263,7.349,7.3491,0,0,0,0,1,0.118523945,0.118523945,shape_difference3,1,,TRUE,,intensity,0.1,0.05,0.7,0.3,0.82,20,400,1E-11,3.5,0.01,0.5,0.1,,,,,,,,,,,,,,,,,,,,,,,,,,,,,,,,,,,,,,,,,,,,,,,,,,,,,,,,,,,,,,,,,,,,,,,,,,,,,,,,,
,,,,,225967,001,2025-03-14_00h37.01.876,Utility_discrimination_2024_2cat,2024.2.4,MacIntel,60.24096386,,,,,,,,2,"[0.5,0.5]","[0.707,0.707]",s,"[0.6095161251574974,0.5453946709256726]","[0.3904838748425025,0.4546053290743273]",7.3506,9.3119,1,s,1,0.4356,,-0.447967632,0.547967632,0.995935263,9.3145,9.3146,0,1,1,1,1,0.118523945,0.118523945,shape_difference1,1,,TRUE,,intensity,0.1,0.05,0.7,0.3,0.82,20,400,1E-11,3.5,0.01,0.5,0.1,,,,,,,,,,,,,,,,,,,,,,,,,,,,,,,,,,,,,,,,,,,,,,,,,,,,,,,,,,,,,,,,,,,,,,,,,,,,,,,,,
,,,,,225967,001,2025-03-14_00h37.01.876,Utility_discrimination_2024_2cat,2024.2.4,MacIntel,60.24096386,,,,,,,,0,"[0.5,0.5]","[1,0]",s,"[0.5837964290977822,0.5837964290977822]","[0.4162035709022178,0.4162035709022178]",9.3158,11.4786,1,s,1,0.632,,-0.447967632,0.547967632,0.995935263,11.4811,11.4812,0,2,2,2,1,0.118523945,0.118523945,shape_difference2,1,,TRUE,,intensity,0.1,0.05,0.7,0.3,0.82,20,400,1E-11,3.5,0.01,0.5,0.1,,,,,,,,,,,,,,,,,,,,,,,,,,,,,,,,,,,,,,,,,,,,,,,,,,,,,,,,,,,,,,,,,,,,,,,,,,,,,,,,,
,,,,,225967,001,2025-03-14_00h37.01.876,Utility_discrimination_2024_2cat,2024.2.4,MacIntel,60.24096386,,,,,,,,4,"[0.5,0.5]","[0,1]",s,"[0.6185239449756466,0.5]","[0.3814760550243534,0.5]",11.482,14.6285,0,s,0,1.6167,,-0.447967632,0.547967632,0.995935263,14.6308,14.6309,0,3,3,3,1,0.118523945,0.118523945,shape_difference0,1,,TRUE,,intensity,0.1,0.05,0.7,0.3,0.82,20,400,1E-11,3.5,0.01,0.5,0.1,,,,,,,,,,,,,,,,,,,,,,,,,,,,,,,,,,,,,,,,,,,,,,,,,,,,,,,,,,,,,,,,,,,,,,,,,,,,,,,,,
,,,,,225967,001,2025-03-14_00h37.01.876,Utility_discrimination_2024_2cat,2024.2.4,MacIntel,60.24096386,,,,,,,,1,"[0.5,0.5]","[0.924,0.383]",d,"[0.5,0.6185239449756466]","[0.5,0.3814760550243534]",14.632,18.2952,0,d,0,2.1317,,-0.479157219,0.478510979,0.957668197,18.2989,18.299,0,4,4,4,1,0.118523945,0.118523945,shape_difference4,1,,TRUE,,intensity,0.1,0.05,0.7,0.3,0.82,20,400,1E-11,3.5,0.01,0.5,0.1,,,,,,,,,,,,,,,,,,,,,,,,,,,,,,,,,,,,,,,,,,,,,,,,,,,,,,,,,,,,,,,,,,,,,,,,,,,,,,,,,
,,,,,225967,001,2025-03-14_00h37.01.876,Utility_discrimination_2024_2cat,2024.2.4,MacIntel,60.24096386,,,,,,,,3,"[0.5,0.5]","[0.383,0.924]",s,"[0.5341894661325662,0.5141716077151222]","[0.46581053386743376,0.48582839228487784]",18.2998,20.5286,1,s,1,0.7034,,-0.479157219,0.478510979,0.957668197,20.5323,20.5324,0,5,5,5,1,0.037001587,0.037001587,shape_difference1,1,,TRUE,,intensity,0.1,0.05,0.7,0.3,0.82,20,400,1E-11,3.5,0.01,0.5,0.1,,,,,,,,,,,,,,,,,,,,,,,,,,,,,,,,,,,,,,,,,,,,,,,,,,,,,,,,,,,,,,,,,,,,,,,,,,,,,,,,,
,,,,,225967,001,2025-03-14_00h37.01.876,Utility_discrimination_2024_2cat,2024.2.4,MacIntel,60.24096386,,,,,,,,4,"[0.5,0.5]","[0,1]",s,"[0.5141716077151222,0.5341894661325662]","[0.48582839228487784,0.46581053386743376]",20.5333,22.562,1,s,1,0.5059,,0.008797352,0.664308158,0.655510806,22.5657,22.5657,0,6,6,6,1,0.037001587,0.037001587,shape_difference3,1,,TRUE,,intensity,0.1,0.05,0.7,0.3,0.82,20,400,1E-11,3.5,0.01,0.5,0.1,,,,,,,,,,,,,,,,,,,,,,,,,,,,,,,,,,,,,,,,,,,,,,,,,,,,,,,,,,,,,,,,,,,,,,,,,,,,,,,,,
,,,,,225967,001,2025-03-14_00h37.01.876,Utility_discrimination_2024_2cat,2024.2.4,MacIntel,60.24096386,,,,,,,,2,"[0.5,0.5]","[0.707,0.707]",s,"[0.5,0.8247185585179694]","[0.5,0.17528144148203062]",22.5665,24.5942,1,d,1,0.5026,,-0.479157219,0.478510979,0.957668197,24.5978,24.5979,0,7,7,7,1,0.324718559,0.324718559,shape_difference4,1,,TRUE,,intensity,0.1,0.05,0.7,0.3,0.82,20,400,1E-11,3.5,0.01,0.5,0.1,,,,,,,,,,,,,,,,,,,,,,,,,,,,,,,,,,,,,,,,,,,,,,,,,,,,,,,,,,,,,,,,,,,,,,,,,,,,,,,,,
,,,,,225967,001,2025-03-14_00h37.01.876,Utility_discrimination_2024_2cat,2024.2.4,MacIntel,60.24096386,,,,,,,,0,"[0.5,0.5]","[1,0]",d,"[0.5261601218135545,0.5261601218135545]","[0.4738398781864455,0.4738398781864455]",24.5992,26.8609,0,s,0,0.7345,,0.008797352,0.664308158,0.655510806,26.8635,26.8635,0,8,8,8,1,0.037001587,0.037001587,shape_difference2,1,,TRUE,,intensity,0.1,0.05,0.7,0.3,0.82,20,400,1E-11,3.5,0.01,0.5,0.1,,,,,,,,,,,,,,,,,,,,,,,,,,,,,,,,,,,,,,,,,,,,,,,,,,,,,,,,,,,,,,,,,,,,,,,,,,,,,,,,,
,,,,,225967,001,2025-03-14_00h37.01.876,Utility_discrimination_2024_2cat,2024.2.4,MacIntel,60.24096386,,,,,,,,0,"[0.5,0.5]","[1,0]",d,"[0.8247185585179694,0.5]","[0.17528144148203062,0.5]",26.8646,29.2456,1,d,1,0.8619,,-0.003741292,0.604569979,0.608311271,29.2488,29.2488,0,9,9,9,1,0.324718559,0.324718559,shape_difference0,1,,TRUE,,intensity,0.1,0.05,0.7,0.3,0.82,20,400,1E-11,3.5,0.01,0.5,0.1,,,,,,,,,,,,,,,,,,,,,,,,,,,,,,,,,,,,,,,,,,,,,,,,,,,,,,,,,,,,,,,,,,,,,,,,,,,,,,,,,
,,,,,225967,001,2025-03-14_00h37.01.876,Utility_discrimination_2024_2cat,2024.2.4,MacIntel,60.24096386,,,,,,,,1,"[0.5,0.5]","[0.924,0.383]",d,"[0.7748173464265704,0.5]","[0.22518265357342954,0.5]",29.2499,34.6452,1,s,1,3.8651,,-0.510435314,0.404710629,0.915145943,34.6483,34.6483,0,10,10,10,1,0.274817346,0.274817346,shape_difference0,1,,TRUE,,intensity,0.1,0.05,0.7,0.3,0.82,20,400,1E-11,3.5,0.01,0.5,0.1,,,,,,,,,,,,,,,,,,,,,,,,,,,,,,,,,,,,,,,,,,,,,,,,,,,,,,,,,,,,,,,,,,,,,,,,,,,,,,,,,
,,,,,225967,001,2025-03-14_00h37.01.876,Utility_discrimination_2024_2cat,2024.2.4,MacIntel,60.24096386,,,,,,,,4,"[0.5,0.5]","[0,1]",s,"[0.46556413669330093,0.48572626012287257]","[0.5344358633066991,0.5142737398771274]",34.6494,36.6292,1,s,1,0.4616,,-0.003741292,0.604569979,0.608311271,36.6313,36.6313,0,11,11,11,1,-0.03726825,-0.03726825,shape_difference1,1,,TRUE,,intensity,0.1,0.05,0.7,0.3,0.82,20,400,1E-11,3.5,0.01,0.5,0.1,,,,,,,,,,,,,,,,,,,,,,,,,,,,,,,,,,,,,,,,,,,,,,,,,,,,,,,,,,,,,,,,,,,,,,,,,,,,,,,,,
,,,,,225967,001,2025-03-14_00h37.01.876,Utility_discrimination_2024_2cat,2024.2.4,MacIntel,60.24096386,,,,,,,,2,"[0.5,0.5]","[0.707,0.707]",s,"[0.5,0.7748173464265704]","[0.5,0.22518265357342954]",36.632,38.8953,0,d,0,0.7321,,-0.090065158,0.591798206,0.681863364,38.8984,38.8985,0,12,12,12,1,0.274817346,0.274817346,shape_difference4,1,,TRUE,,intensity,0.1,0.05,0.7,0.3,0.82,20,400,1E-11,3.5,0.01,0.5,0.1,,,,,,,,,,,,,,,,,,,,,,,,,,,,,,,,,,,,,,,,,,,,,,,,,,,,,,,,,,,,,,,,,,,,,,,,,,,,,,,,,
,,,,,225967,001,2025-03-14_00h37.01.876,Utility_discrimination_2024_2cat,2024.2.4,MacIntel,60.24096386,,,,,,,,3,"[0.5,0.5]","[0.383,0.924]",s,"[0.6595431560132976,0.6595431560132976]","[0.3404568439867024,0.3404568439867024]",38.8995,41.161,1,s,1,0.7311,,-0.510435314,0.404710629,0.915145943,41.1636,41.1637,0,13,13,13,1,0.225662173,0.225662173,shape_difference2,1,,TRUE,,intensity,0.1,0.05,0.7,0.3,0.82,20,400,1E-11,3.5,0.01,0.5,0.1,,,,,,,,,,,,,,,,,,,,,,,,,,,,,,,,,,,,,,,,,,,,,,,,,,,,,,,,,,,,,,,,,,,,,,,,,,,,,,,,,
,,,,,225967,001,2025-03-14_00h37.01.876,Utility_discrimination_2024_2cat,2024.2.4,MacIntel,60.24096386,,,,,,,,2,"[0.5,0.5]","[0.707,0.707]",s,"[0.48572626012287257,0.46556413669330093]","[0.5142737398771274,0.5344358633066991]",41.1645,43.2786,1,s,1,0.5872,,-0.09936101,0.537490534,0.636851544,43.2808,43.2809,0,14,14,14,1,-0.03726825,-0.03726825,shape_difference3,1,,TRUE,,intensity,0.1,0.05,0.7,0.3,0.82,20,400,1E-11,3.5,0.01,0.5,0.1,,,,,,,,,,,,,,,,,,,,,,,,,,,,,,,,,,,,,,,,,,,,,,,,,,,,,,,,,,,,,,,,,,,,,,,,,,,,,,,,,
,,,,,225967,001,2025-03-14_00h37.01.876,Utility_discrimination_2024_2cat,2024.2.4,MacIntel,60.24096386,,,,,,,,0,"[0.5,0.5]","[1,0]",s,"[0.6214082432493439,0.6214082432493439]","[0.37859175675065615,0.37859175675065615]",43.2818,45.3619,0,s,0,0.5524,,-0.026700702,0.552121039,0.578821741,45.3642,45.3642,0,15,15,15,1,0.171723116,0.171723116,shape_difference2,1,,TRUE,,intensity,0.1,0.05,0.7,0.3,0.82,20,400,1E-11,3.5,0.01,0.5,0.1,,,,,,,,,,,,,,,,,,,,,,,,,,,,,,,,,,,,,,,,,,,,,,,,,,,,,,,,,,,,,,,,,,,,,,,,,,,,,,,,,
,,,,,225967,001,2025-03-14_00h37.01.876,Utility_discrimination_2024_2cat,2024.2.4,MacIntel,60.24096386,,,,,,,,4,"[0.5,0.5]","[0,1]",d,"[0.7361666255365733,0.5]","[0.26383337446342664,0.5]",45.3656,47.5286,1,s,1,0.6444,,0.166924593,0.726757578,0.559832986,47.5315,47.5315,0,16,16,16,1,0.236166626,0.236166626,shape_difference0,1,,TRUE,,intensity,0.1,0.05,0.7,0.3,0.82,20,400,1E-11,3.5,0.01,0.5,0.1,,,,,,,,,,,,,,,,,,,,,,,,,,,,,,,,,,,,,,,,,,,,,,,,,,,,,,,,,,,,,,,,,,,,,,,,,,,,,,,,,
,,,,,225967,001,2025-03-14_00h37.01.876,Utility_discrimination_2024_2cat,2024.2.4,MacIntel,60.24096386,,,,,,,,3,"[0.5,0.5]","[0.383,0.924]",s,"[0.5,0.9274973810135692]","[0.5,0.07250261898643084]",47.5326,50.2448,1,s,1,1.1844,,-0.540713527,0.322166073,0.862879599,50.2477,50.2477,0,17,17,17,1,0.427497381,0.427497381,shape_difference4,1,,TRUE,,intensity,0.1,0.05,0.7,0.3,0.82,20,400,1E-11,3.5,0.01,0.5,0.1,,,,,,,,,,,,,,,,,,,,,,,,,,,,,,,,,,,,,,,,,,,,,,,,,,,,,,,,,,,,,,,,,,,,,,,,,,,,,,,,,
,,,,,225967,001,2025-03-14_00h37.01.876,Utility_discrimination_2024_2cat,2024.2.4,MacIntel,60.24096386,,,,,,,,1,"[0.5,0.5]","[0.924,0.383]",s,"[0.4630011812750919,0.410739142292911]","[0.5369988187249081,0.589260857707089]",50.2492,52.9786,0,s,0,1.2042,,-0.540713527,0.322166073,0.862879599,52.9816,52.9816,0,18,18,18,1,-0.09660266,-0.09660266,shape_difference3,1,,TRUE,,intensity,0.1,0.05,0.7,0.3,0.82,20,400,1E-11,3.5,0.01,0.5,0.1,,,,,,,,,,,,,,,,,,,,,,,,,,,,,,,,,,,,,,,,,,,,,,,,,,,,,,,,,,,,,,,,,,,,,,,,,,,,,,,,,
,,,,,225967,001,2025-03-14_00h37.01.876,Utility_discrimination_2024_2cat,2024.2.4,MacIntel,60.24096386,,,,,,,,0,"[0.5,0.5]","[1,0]",d,"[0.410739142292911,0.4630011812750919]","[0.589260857707089,0.5369988187249081]",52.9828,54.562,0,s,0,0.0552,,-0.050981617,0.494068035,0.545049652,54.5649,54.565,0,19,19,19,1,-0.09660266,-0.09660266,shape_difference1,1,,TRUE,,intensity,0.1,0.05,0.7,0.3,0.82,20,400,1E-11,3.5,0.01,0.5,0.1,,,,,,,,,,,,,,,,,,,,,,,,,,,,,,,,,,,,,,,,,,,,,,,,,,,,,,,,,,,,,,,,,,,,,,,,,,,,,,,,,
,,,,,225967,001,2025-03-14_00h37.01.876,Utility_discrimination_2024_2cat,2024.2.4,MacIntel,60.24096386,,,,,,,,3,"[0.5,0.5]","[0.383,0.924]",d,"[0.69671503713367,0.5]","[0.30328496286633,0.5]",54.5663,56.1621,0,s,0,0.0707,,-0.198081498,0.472058333,0.670139831,56.1653,56.1653,0,20,20,20,1,0.196715037,0.196715037,shape_difference0,1,,TRUE,,intensity,0.1,0.05,0.7,0.3,0.82,20,400,1E-11,3.5,0.01,0.5,0.1,,,,,,,,,,,,,,,,,,,,,,,,,,,,,,,,,,,,,,,,,,,,,,,,,,,,,,,,,,,,,,,,,,,,,,,,,,,,,,,,,
,,,,,225967,001,2025-03-14_00h37.01.876,Utility_discrimination_2024_2cat,2024.2.4,MacIntel,60.24096386,,,,,,,,4,"[0.5,0.5]","[0,1]",d,"[0.5265428423850549,0.5640354735347015]","[0.47345715761494517,0.4359645264652985]",56.1663,57.7789,1,s,1,0.0945,,0.148866283,0.680621755,0.531755473,57.7809,57.781,0,21,21,21,1,0.069302461,0.069302461,shape_difference3,1,,TRUE,,intensity,0.1,0.05,0.7,0.3,0.82,20,400,1E-11,3.5,0.01,0.5,0.1,,,,,,,,,,,,,,,,,,,,,,,,,,,,,,,,,,,,,,,,,,,,,,,,,,,,,,,,,,,,,,,,,,,,,,,,,,,,,,,,,
,,,,,225967,001,2025-03-14_00h37.01.876,Utility_discrimination_2024_2cat,2024.2.4,MacIntel,60.24096386,,,,,,,,1,"[0.5,0.5]","[0.924,0.383]",s,"[0.5,0.8876778787766242]","[0.5,0.11232212122337581]",57.7819,59.311,0,s,0,0.0004,,-0.198081498,0.472058333,0.670139831,59.3139,59.3139,0,22,22,22,1,0.387677879,0.387677879,shape_difference4,1,,TRUE,,intensity,0.1,0.05,0.7,0.3,0.82,20,400,1E-11,3.5,0.01,0.5,0.1,,,,,,,,,,,,,,,,,,,,,,,,,,,,,,,,,,,,,,,,,,,,,,,,,,,,,,,,,,,,,,,,,,,,,,,,,,,,,,,,,
,,,,,225967,001,2025-03-14_00h37.01.876,Utility_discrimination_2024_2cat,2024.2.4,MacIntel,60.24096386,,,,,,,,2,"[0.5,0.5]","[0.707,0.707]",d,"[0.5640354735347015,0.5265428423850549]","[0.4359645264652985,0.47345715761494517]",59.315,60.8454,0,s,0,0.0004,,0.064206312,0.666780888,0.602574576,60.8482,60.8483,0,23,23,23,1,0.069302461,0.069302461,shape_difference1,1,,TRUE,,intensity,0.1,0.05,0.7,0.3,0.82,20,400,1E-11,3.5,0.01,0.5,0.1,,,,,,,,,,,,,,,,,,,,,,,,,,,,,,,,,,,,,,,,,,,,,,,,,,,,,,,,,,,,,,,,,,,,,,,,,,,,,,,,,
,,,,,225967,001,2025-03-14_00h37.01.876,Utility_discrimination_2024_2cat,2024.2.4,MacIntel,60.24096386,,,,,,,,2,"[0.5,0.5]","[0.707,0.707]",d,"[0.7404010129194715,0.7404010129194715]","[0.25959898708052853,0.25959898708052853]",60.8493,62.3788,1,s,1,0.0003,,0.046106493,0.612747238,0.566640745,62.3816,62.3817,0,24,24,24,1,0.340029721,0.340029721,shape_difference2,1,,TRUE,,intensity,0.1,0.05,0.7,0.3,0.82,20,400,1E-11,3.5,0.01,0.5,0.1,,,,,,,,,,,,,,,,,,,,,,,,,,,,,,,,,,,,,,,,,,,,,,,,,,,,,,,,,,,,,,,,,,,,,,,,,,,,,,,,,
,,,,,225967,001,2025-03-14_00h37.01.876,Utility_discrimination_2024_2cat,2024.2.4,MacIntel,60.24096386,,,,,,,,0,"[0.5,0.5]","[1,0]",s,"[0.7076900834488034,0.7076900834488034]","[0.2923099165511966,0.2923099165511966]",62.3826,64.0286,1,s,1,0.1267,,0.086822279,0.600153011,0.513330733,64.0311,64.0311,0,25,25,25,1,0.293762494,0.293762494,shape_difference2,1,,TRUE,,intensity,0.1,0.05,0.7,0.3,0.82,20,400,1E-11,3.5,0.01,0.5,0.1,,,,,,,,,,,,,,,,,,,,,,,,,,,,,,,,,,,,,,,,,,,,,,,,,,,,,,,,,,,,,,,,,,,,,,,,,,,,,,,,,
,,,,,225967,001,2025-03-14_00h37.01.876,Utility_discrimination_2024_2cat,2024.2.4,MacIntel,60.24096386,,,,,,,,1,"[0.5,0.5]","[0.924,0.383]",s,"[0.7985943458203237,0.5]","[0.2014056541796762,0.5]",64.033,65.5622,1,s,1,0.0004,,-0.037680959,0.607396831,0.64507779,65.5656,65.5656,0,26,26,26,1,0.298594346,0.298594346,shape_difference0,1,,TRUE,,intensity,0.1,0.05,0.7,0.3,0.82,20,400,1E-11,3.5,0.01,0.5,0.1,,,,,,,,,,,,,,,,,,,,,,,,,,,,,,,,,,,,,,,,,,,,,,,,,,,,,,,,,,,,,,,,,,,,,,,,,,,,,,,,,
,,,,,225967,001,2025-03-14_00h37.01.876,Utility_discrimination_2024_2cat,2024.2.4,MacIntel,60.24096386,,,,,,,,3,"[0.5,0.5]","[0.383,0.924]",s,"[0.7367519300292471,0.5981341874471879]","[0.26324806997075295,0.4018658125528121]",65.5665,67.2444,0,s,0,0.1492,,-0.215333829,0.393351265,0.608685094,67.2468,67.2469,0,27,27,27,1,0.256225032,0.256225032,shape_difference1,1,,TRUE,,intensity,0.1,0.05,0.7,0.3,0.82,20,400,1E-11,3.5,0.01,0.5,0.1,,,,,,,,,,,,,,,,,,,,,,,,,,,,,,,,,,,,,,,,,,,,,,,,,,,,,,,,,,,,,,,,,,,,,,,,,,,,,,,,,
,,,,,225967,001,2025-03-14_00h37.01.876,Utility_discrimination_2024_2cat,2024.2.4,MacIntel,60.24096386,,,,,,,,4,"[0.5,0.5]","[0,1]",d,"[0.5096165559222514,0.5232002550186954]","[0.4903834440777486,0.4767997449813047]",67.2484,68.7787,0,s,0,0.0004,,0.271305902,0.779678869,0.508372968,68.7817,68.7817,0,28,28,28,1,0.025108501,0.025108501,shape_difference3,1,,TRUE,,intensity,0.1,0.05,0.7,0.3,0.82,20,400,1E-11,3.5,0.01,0.5,0.1,,,,,,,,,,,,,,,,,,,,,,,,,,,,,,,,,,,,,,,,,,,,,,,,,,,,,,,,,,,,,,,,,,,,,,,,,,,,,,,,,
,,,,,225967,001,2025-03-14_00h37.01.876,Utility_discrimination_2024_2cat,2024.2.4,MacIntel,60.24096386,,,,,,,,0,"[0.5,0.5]","[1,0]",d,"[0.5,0.9996350701623584]","[0.5,0.00036492983764158105]",68.7826,70.4114,0,s,0,0.0998,,0.067160185,0.556411783,0.489251598,70.4139,70.4139,0,29,29,29,1,0.49963507,0.49963507,shape_difference4,1,,TRUE,,intensity,0.1,0.05,0.7,0.3,0.82,20,400,1E-11,3.5,0.01,0.5,0.1,,,,,,,,,,,,,,,,,,,,,,,,,,,,,,,,,,,,,,,,,,,,,,,,,,,,,,,,,,,,,,,,,,,,,,,,,,,,,,,,,
,,,,,225967,001,2025-03-14_00h37.01.876,Utility_discrimination_2024_2cat,2024.2.4,MacIntel,60.24096386,,,,,,,,2,"[0.5,0.5]","[0.707,0.707]",d,"[0.7717207369037922,0.5]","[0.22827926309620777,0.5]",70.4148,72.0456,1,s,1,0.111,,0.034258812,0.562756016,0.528497204,72.0477,72.0478,0,30,30,30,1,0.271720737,0.271720737,shape_difference0,1,,TRUE,,intensity,0.1,0.05,0.7,0.3,0.82,20,400,1E-11,3.5,0.01,0.5,0.1,,,,,,,,,,,,,,,,,,,,,,,,,,,,,,,,,,,,,,,,,,,,,,,,,,,,,,,,,,,,,,,,,,,,,,,,,,,,,,,,,
,,,,,225967,001,2025-03-14_00h37.01.876,Utility_discrimination_2024_2cat,2024.2.4,MacIntel,60.24096386,,,,,,,,1,"[0.5,0.5]","[0.924,0.383]",s,"[0.6854408753325492,0.6854408753325492]","[0.3145591246674509,0.3145591246674509]",72.0486,73.5788,0,s,0,0.0004,,0.159469473,0.741222537,0.581753064,73.5823,73.5823,0,31,31,31,1,0.26229261,0.26229261,shape_difference2,1,,TRUE,,intensity,0.1,0.05,0.7,0.3,0.82,20,400,1E-11,3.5,0.01,0.5,0.1,,,,,,,,,,,,,,,,,,,,,,,,,,,,,,,,,,,,,,,,,,,,,,,,,,,,,,,,,,,,,,,,,,,,,,,,,,,,,,,,,
,,,,,225967,001,2025-03-14_00h37.01.876,Utility_discrimination_2024_2cat,2024.2.4,MacIntel,60.24096386,,,,,,,,4,"[0.5,0.5]","[0,1]",d,"[0.9054317875942242,0.6680523535157876]","[0.0945682124057759,0.3319476464842123]",73.5834,75.2122,0,d,0,0.0985,,0.381755202,0.867003844,0.485248642,75.2146,75.2146,0,32,32,32,1,0.438778991,0.438778991,shape_difference1,1,,TRUE,,intensity,0.1,0.05,0.7,0.3,0.82,20,400,1E-11,3.5,0.01,0.5,0.1,,,,,,,,,,,,,,,,,,,,,,,,,,,,,,,,,,,,,,,,,,,,,,,,,,,,,,,,,,,,,,,,,,,,,,,,,,,,,,,,,
,,,,,225967,001,2025-03-14_00h37.01.876,Utility_discrimination_2024_2cat,2024.2.4,MacIntel,60.24096386,,,,,,,,3,"[0.5,0.5]","[0.383,0.924]",s,"[0.5,1.102912406419513]","[0.5,-0.10291240641951305]",75.2163,76.9121,0,d,0,0.1767,,-0.097745232,0.507045379,0.604790611,76.9142,76.9142,0,33,33,33,1,0.602912406,0.602912406,shape_difference4,1,,TRUE,,intensity,0.1,0.05,0.7,0.3,0.82,20,400,1E-11,3.5,0.01,0.5,0.1,,,,,,,,,,,,,,,,,,,,,,,,,,,,,,,,,,,,,,,,,,,,,,,,,,,,,,,,,,,,,,,,,,,,,,,,,,,,,,,,,
,,,,,225967,001,2025-03-14_00h37.01.876,Utility_discrimination_2024_2cat,2024.2.4,MacIntel,60.24096386,,,,,,,,1,"[0.5,0.5]","[0.924,0.383]",s,"[0.5524408949693528,0.6265153706310235]","[0.44755910503064716,0.37348462936897653]",76.915,78.4625,0,s,0,0.0293,,0.303773709,0.8139293,0.510155591,78.4653,78.4653,0,34,34,34,1,0.136921397,0.136921397,shape_difference3,1,,TRUE,,intensity,0.1,0.05,0.7,0.3,0.82,20,400,1E-11,3.5,0.01,0.5,0.1,,,,,,,,,,,,,,,,,,,,,,,,,,,,,,,,,,,,,,,,,,,,,,,,,,,,,,,,,,,,,,,,,,,,,,,,,,,,,,,,,
,,,,,225967,001,2025-03-14_00h37.01.876,Utility_discrimination_2024_2cat,2024.2.4,MacIntel,60.24096386,,,,,,,,4,"[0.5,0.5]","[0,1]",d,"[1.0019746412922124,0.7080695753408196]","[-0.0019746412922122536,0.2919304246591804]",78.4664,80.0455,1,s,1,0.0504,,0.486263235,0.944779686,0.458516451,80.0493,80.0493,0,35,35,35,1,0.543262599,0.543262599,shape_difference1,1,,TRUE,,intensity,0.1,0.05,0.7,0.3,0.82,20,400,1E-11,3.5,0.01,0.5,0.1,,,,,,,,,,,,,,,,,,,,,,,,,,,,,,,,,,,,,,,,,,,,,,,,,,,,,,,,,,,,,,,,,,,,,,,,,,,,,,,,,
,,,,,225967,001,2025-03-14_00h37.01.876,Utility_discrimination_2024_2cat,2024.2.4,MacIntel,60.24096386,,,,,,,,3,"[0.5,0.5]","[0.383,0.924]",s,"[0.5,1.1965902709171643]","[0.5,-0.1965902709171644]",80.0502,81.6453,0,d,0,0.0695,,0.002061653,0.603162986,0.601101332,81.6468,81.6469,0,36,36,36,1,0.696590271,0.696590271,shape_difference4,1,,TRUE,,intensity,0.1,0.05,0.7,0.3,0.82,20,400,1E-11,3.5,0.01,0.5,0.1,,,,,,,,,,,,,,,,,,,,,,,,,,,,,,,,,,,,,,,,,,,,,,,,,,,,,,,,,,,,,,,,,,,,,,,,,,,,,,,,,
,,,,,225967,001,2025-03-14_00h37.01.876,Utility_discrimination_2024_2cat,2024.2.4,MacIntel,60.24096386,,,,,,,,0,"[0.5,0.5]","[1,0]",s,"[0.5988815215840494,0.7385548980252263]","[0.4011184784159506,0.2614451019747737]",81.6479,83.3123,1,s,1,0.138,,0.053755421,0.495388686,0.441633266,83.3149,83.3149,0,37,37,37,1,0.258176297,0.258176297,shape_difference3,1,,TRUE,,intensity,0.1,0.05,0.7,0.3,0.82,20,400,1E-11,3.5,0.01,0.5,0.1,,,,,,,,,,,,,,,,,,,,,,,,,,,,,,,,,,,,,,,,,,,,,,,,,,,,,,,,,,,,,,,,,,,,,,,,,,,,,,,,,
,,,,,225967,001,2025-03-14_00h37.01.876,Utility_discrimination_2024_2cat,2024.2.4,MacIntel,60.24096386,,,,,,,,2,"[0.5,0.5]","[0.707,0.707]",s,"[0.7490986157016337,0.5]","[0.2509013842983663,0.5]",83.316,84.8456,1,d,1,0.0004,,0.151799491,0.684255939,0.532456448,84.8488,84.8488,0,38,38,38,1,0.249098616,0.249098616,shape_difference0,1,,TRUE,,intensity,0.1,0.05,0.7,0.3,0.82,20,400,1E-11,3.5,0.01,0.5,0.1,,,,,,,,,,,,,,,,,,,,,,,,,,,,,,,,,,,,,,,,,,,,,,,,,,,,,,,,,,,,,,,,,,,,,,,,,,,,,,,,,
,,,,,225967,001,2025-03-14_00h37.01.876,Utility_discrimination_2024_2cat,2024.2.4,MacIntel,60.24096386,,,,,,,,1,"[0.5,0.5]","[0.924,0.383]",d,"[0.7726957537235573,0.7726957537235573]","[0.22730424627644275,0.22730424627644275]",84.8496,86.512,1,s,1,0.1414,,0.286357551,0.778081924,0.491724373,86.5142,86.5142,0,39,39,39,1,0.38570828,0.38570828,shape_difference2,1,,TRUE,,intensity,0.1,0.05,0.7,0.3,0.82,20,400,1E-11,3.5,0.01,0.5,0.1,,,,,,,,,,,,,,,,,,,,,,,,,,,,,,,,,,,,,,,,,,,,,,,,,,,,,,,,,,,,,,,,,,,,,,,,,,,,,,,,,
,,,,,225967,001,2025-03-14_00h37.01.876,Utility_discrimination_2024_2cat,2024.2.4,MacIntel,60.24096386,,,,,,,,2,"[0.5,0.5]","[0.707,0.707]",s,"[0.9673254025568339,0.693707390886653]","[0.03267459744316609,0.306292609113347]",86.5157,88.0794,0,s,0,0.0458,,0.140420307,0.635719401,0.495299094,88.0817,88.0817,0,40,40,40,1,0.505763423,0.505763423,shape_difference1,1,,TRUE,,intensity,0.1,0.05,0.7,0.3,0.82,20,400,1E-11,3.5,0.01,0.5,0.1,,,,,,,,,,,,,,,,,,,,,,,,,,,,,,,,,,,,,,,,,,,,,,,,,,,,,,,,,,,,,,,,,,,,,,,,,,,,,,,,,
,,,,,225967,001,2025-03-14_00h37.01.876,Utility_discrimination_2024_2cat,2024.2.4,MacIntel,60.24096386,,,,,,,,0,"[0.5,0.5]","[1,0]",d,"[0.7520794713577548,0.7520794713577548]","[0.24792052864224517,0.24792052864224517]",88.0826,89.6624,0,d,0,0.0509,,0.039776223,0.462892711,0.423116488,89.6656,89.6656,0,41,41,41,1,0.35654805,0.35654805,shape_difference2,1,,TRUE,,intensity,0.1,0.05,0.7,0.3,0.82,20,400,1E-11,3.5,0.01,0.5,0.1,,,,,,,,,,,,,,,,,,,,,,,,,,,,,,,,,,,,,,,,,,,,,,,,,,,,,,,,,,,,,,,,,,,,,,,,,,,,,,,,,
,,,,,225967,001,2025-03-14_00h37.01.876,Utility_discrimination_2024_2cat,2024.2.4,MacIntel,60.24096386,,,,,,,,3,"[0.5,0.5]","[0.383,0.924]",s,"[0.7274218201628571,0.5]","[0.2725781798371429,0.5]",89.6664,91.2445,1,s,1,0.0588,,-0.010544076,0.547333706,0.557877782,91.247,91.247,0,42,42,42,1,0.22742182,0.22742182,shape_difference0,1,,TRUE,,intensity,0.1,0.05,0.7,0.3,0.82,20,400,1E-11,3.5,0.01,0.5,0.1,,,,,,,,,,,,,,,,,,,,,,,,,,,,,,,,,,,,,,,,,,,,,,,,,,,,,,,,,,,,,,,,,,,,,,,,,,,,,,,,,
,,,,,225967,001,2025-03-14_00h37.01.876,Utility_discrimination_2024_2cat,2024.2.4,MacIntel,60.24096386,,,,,,,,4,"[0.5,0.5]","[0,1]",s,"[0.5821850926249447,0.6982742182387698]","[0.4178149073750554,0.3017257817612302]",91.2479,92.9456,1,s,1,0.1693,,0.582414803,1.011740575,0.429325773,92.9478,92.9478,0,43,43,43,1,0.214582487,0.214582487,shape_difference3,1,,TRUE,,intensity,0.1,0.05,0.7,0.3,0.82,20,400,1E-11,3.5,0.01,0.5,0.1,,,,,,,,,,,,,,,,,,,,,,,,,,,,,,,,,,,,,,,,,,,,,,,,,,,,,,,,,,,,,,,,,,,,,,,,,,,,,,,,,
,,,,,225967,001,2025-03-14_00h37.01.876,Utility_discrimination_2024_2cat,2024.2.4,MacIntel,60.24096386,,,,,,,,2,"[0.5,0.5]","[0.707,0.707]",s,"[0.5,1.2860578757348406]","[0.5,-0.28605787573484076]",92.9492,94.5126,0,s,0,0.0449,,0.247020166,0.755670473,0.508650307,94.5145,94.5145,0,44,44,44,1,0.786057876,0.786057876,shape_difference4,1,,TRUE,,intensity,0.1,0.05,0.7,0.3,0.82,20,400,1E-11,3.5,0.01,0.5,0.1,,,,,,,,,,,,,,,,,,,,,,,,,,,,,,,,,,,,,,,,,,,,,,,,,,,,,,,,,,,,,,,,,,,,,,,,,,,,,,,,,
,,,,,225967,001,2025-03-14_00h37.01.876,Utility_discrimination_2024_2cat,2024.2.4,MacIntel,60.24096386,,,,,,,,3,"[0.5,0.5]","[0.383,0.924]",d,"[0.8359794254286976,0.8359794254286976]","[0.1640205745713023,0.1640205745713023]",94.5153,96.0947,0,s,0,0.051,,-0.031376348,0.487412672,0.51878902,96.0977,96.0978,0,45,45,45,1,0.475218424,0.475218424,shape_difference2,1,,TRUE,,intensity,0.1,0.05,0.7,0.3,0.82,20,400,1E-11,3.5,0.01,0.5,0.1,,,,,,,,,,,,,,,,,,,,,,,,,,,,,,,,,,,,,,,,,,,,,,,,,,,,,,,,,,,,,,,,,,,,,,,,,,,,,,,,,
,,,,,225967,001,2025-03-14_00h37.01.876,Utility_discrimination_2024_2cat,2024.2.4,MacIntel,60.24096386,,,,,,,,0,"[0.5,0.5]","[1,0]",d,"[0.5688323831696931,0.666060370884586]","[0.43116761683030685,0.3339396291154139]",96.0988,97.729,1,s,1,0.099,,0.029962539,0.417050782,0.387088242,97.7319,97.732,0,46,46,46,1,0.179719016,0.179719016,shape_difference3,1,,TRUE,,intensity,0.1,0.05,0.7,0.3,0.82,20,400,1E-11,3.5,0.01,0.5,0.1,,,,,,,,,,,,,,,,,,,,,,,,,,,,,,,,,,,,,,,,,,,,,,,,,,,,,,,,,,,,,,,,,,,,,,,,,,,,,,,,,
,,,,,225967,001,2025-03-14_00h37.01.876,Utility_discrimination_2024_2cat,2024.2.4,MacIntel,60.24096386,,,,,,,,1,"[0.5,0.5]","[0.924,0.383]",s,"[0.703704886474003,0.5]","[0.2962951135259971,0.5]",97.7329,99.3622,1,d,1,0.1088,,0.39000695,0.862153773,0.472146823,99.3652,99.3653,0,47,47,47,1,0.203704886,0.203704886,shape_difference0,1,,TRUE,,intensity,0.1,0.05,0.7,0.3,0.82,20,400,1E-11,3.5,0.01,0.5,0.1,,,,,,,,,,,,,,,,,,,,,,,,,,,,,,,,,,,,,,,,,,,,,,,,,,,,,,,,,,,,,,,,,,,,,,,,,,,,,,,,,
,,,,,225967,001,2025-03-14_00h37.01.876,Utility_discrimination_2024_2cat,2024.2.4,MacIntel,60.24096386,,,,,,,,4,"[0.5,0.5]","[0,1]",d,"[1.0540604538133782,0.7296592573706968]","[-0.054060453813378206,0.2703407426293032]",99.3661,101.0448,1,d,1,0.1605,,0.672401111,1.08785581,0.415454699,101.0474,101.0474,0,48,48,48,1,0.599632526,0.599632526,shape_difference1,1,,TRUE,,intensity,0.1,0.05,0.7,0.3,0.82,20,400,1E-11,3.5,0.01,0.5,0.1,,,,,,,,,,,,,,,,,,,,,,,,,,,,,,,,,,,,,,,,,,,,,,,,,,,,,,,,,,,,,,,,,,,,,,,,,,,,,,,,,
,,,,,225967,001,2025-03-14_00h37.01.876,Utility_discrimination_2024_2cat,2024.2.4,MacIntel,60.24096386,,,,,,,,3,"[0.5,0.5]","[0.383,0.924]",d,"[0.5,1.3734236537486195]","[0.5,-0.37342365374861963]",101.0483,102.6288,1,d,1,0.0486,,-0.045332766,0.429908872,0.475241638,102.6302,102.6303,0,49,49,49,1,0.873423654,0.873423654,shape_difference4,1,,TRUE,,intensity,0.1,0.05,0.7,0.3,0.82,20,400,1E-11,3.5,0.01,0.5,0.1,,,,,,,,,,,,,,,,,,,,,,,,,,,,,,,,,,,,,,,,,,,,,,,,,,,,,,,,,,,,,,,,,,,,,,,,,,,,,,,,,
,,,,,225967,001,2025-03-14_00h37.01.876,Utility_discrimination_2024_2cat,2024.2.4,MacIntel,60.24096386,,,,,,,,1,"[0.5,0.5]","[0.924,0.383]",d,"[0.5591932942528666,0.6428057542810672]","[0.4408067057471334,0.35719424571893277]",102.6312,104.2614,0,d,0,0.1007,,0.370120449,0.816686661,0.446566211,104.2643,104.2643,0,50,50,50,1,0.154551682,0.154551682,shape_difference3,1,,TRUE,,intensity,0.1,0.05,0.7,0.3,0.82,20,400,1E-11,3.5,0.01,0.5,0.1,,,,,,,,,,,,,,,,,,,,,,,,,,,,,,,,,,,,,,,,,,,,,,,,,,,,,,,,,,,,,,,,,,,,,,,,,,,,,,,,,
,,,,,225967,001,2025-03-14_00h37.01.876,Utility_discrimination_2024_2cat,2024.2.4,MacIntel,60.24096386,,,,,,,,4,"[0.5,0.5]","[0,1]",s,"[1.0305959345136149,0.7199331633319421]","[-0.030595934513614864,0.2800668366680579]",104.2657,106.0789,1,d,1,0.2828,,0.658502614,1.061658211,0.403155597,106.0818,106.0818,0,51,51,51,1,0.574238024,0.574238024,shape_difference1,1,,TRUE,,intensity,0.1,0.05,0.7,0.3,0.82,20,400,1E-11,3.5,0.01,0.5,0.1,,,,,,,,,,,,,,,,,,,,,,,,,,,,,,,,,,,,,,,,,,,,,,,,,,,,,,,,,,,,,,,,,,,,,,,,,,,,,,,,,
,,,,,225967,001,2025-03-14_00h37.01.876,Utility_discrimination_2024_2cat,2024.2.4,MacIntel,60.24096386,,,,,,,,2,"[0.5,0.5]","[0.707,0.707]",d,"[0.5,1.3536203933696185]","[0.5,-0.3536203933696186]",106.0828,107.646,0,d,0,0.0446,,0.359558488,0.854747758,0.49518927,107.6479,107.648,0,52,52,52,1,0.853620393,0.853620393,shape_difference4,1,,TRUE,,intensity,0.1,0.05,0.7,0.3,0.82,20,400,1E-11,3.5,0.01,0.5,0.1,,,,,,,,,,,,,,,,,,,,,,,,,,,,,,,,,,,,,,,,,,,,,,,,,,,,,,,,,,,,,,,,,,,,,,,,,,,,,,,,,
,,,,,225967,001,2025-03-14_00h37.01.876,Utility_discrimination_2024_2cat,2024.2.4,MacIntel,60.24096386,,,,,,,,0,"[0.5,0.5]","[1,0]",s,"[0.916325242731056,0.916325242731056]","[0.08367475726894408,0.08367475726894408]",107.6488,109.2627,0,s,0,0.0946,,0.022894989,0.384200364,0.361305374,109.2655,109.2655,0,53,53,53,1,0.588861729,0.588861729,shape_difference2,1,,TRUE,,intensity,0.1,0.05,0.7,0.3,0.82,20,400,1E-11,3.5,0.01,0.5,0.1,,,,,,,,,,,,,,,,,,,,,,,,,,,,,,,,,,,,,,,,,,,,,,,,,,,,,,,,,,,,,,,,,,,,,,,,,,,,,,,,,
,,,,,225967,001,2025-03-14_00h37.01.876,Utility_discrimination_2024_2cat,2024.2.4,MacIntel,60.24096386,,,,,,,,3,"[0.5,0.5]","[0.383,0.924]",d,"[0.6877261014801036,0.5]","[0.3122738985198964,0.5]",109.2661,110.929,0,s,0,0.1332,,0.045314009,0.570732649,0.52541864,110.9324,110.9325,0,54,54,54,1,0.187726101,0.187726101,shape_difference0,1,,TRUE,,intensity,0.1,0.05,0.7,0.3,0.82,20,400,1E-11,3.5,0.01,0.5,0.1,,,,,,,,,,,,,,,,,,,,,,,,,,,,,,,,,,,,,,,,,,,,,,,,,,,,,,,,,,,,,,,,,,,,,,,,,,,,,,,,,
,,,,,225967,001,2025-03-14_00h37.01.876,Utility_discrimination_2024_2cat,2024.2.4,MacIntel,60.24096386,,,,,,,,1,"[0.5,0.5]","[0.924,0.383]",d,"[0.601099478697463,0.743905791948971]","[0.39890052130253695,0.256094208051029]",110.9333,112.5114,1,d,1,0.0508,,0.356404692,0.779550808,0.423146116,112.5136,112.5136,0,55,55,55,1,0.263967307,0.263967307,shape_difference3,1,,TRUE,,intensity,0.1,0.05,0.7,0.3,0.82,20,400,1E-11,3.5,0.01,0.5,0.1,,,,,,,,,,,,,,,,,,,,,,,,,,,,,,,,,,,,,,,,,,,,,,,,,,,,,,,,,,,,,,,,,,,,,,,,,,,,,,,,,
,,,,,225967,001,2025-03-14_00h37.01.876,Utility_discrimination_2024_2cat,2024.2.4,MacIntel,60.24096386,,,,,,,,0,"[0.5,0.5]","[1,0]",d,"[1.01061618361677,0.7116515133389858]","[-0.010616183616769859,0.2883484866610142]",112.515,114.0781,1,s,1,0.0356,,0.101866833,0.468842424,0.36697559,114.081,114.0811,0,56,56,56,1,0.552614917,0.552614917,shape_difference1,1,,TRUE,,intensity,0.1,0.05,0.7,0.3,0.82,20,400,1E-11,3.5,0.01,0.5,0.1,,,,,,,,,,,,,,,,,,,,,,,,,,,,,,,,,,,,,,,,,,,,,,,,,,,,,,,,,,,,,,,,,,,,,,,,,,,,,,,,,
,,,,,225967,001,2025-03-14_00h37.01.876,Utility_discrimination_2024_2cat,2024.2.4,MacIntel,60.24096386,,,,,,,,2,"[0.5,0.5]","[0.707,0.707]",s,"[0.7462612737558203,0.5]","[0.2537387262441797,0.5]",114.0824,115.7448,0,s,0,0.1423,,0.472027819,0.938126752,0.466098933,115.7469,115.7474,0,57,57,57,1,0.246261274,0.246261274,shape_difference0,1,,TRUE,,intensity,0.1,0.05,0.7,0.3,0.82,20,400,1E-11,3.5,0.01,0.5,0.1,,,,,,,,,,,,,,,,,,,,,,,,,,,,,,,,,,,,,,,,,,,,,,,,,,,,,,,,,,,,,,,,,,,,,,,,,,,,,,,,,
,,,,,225967,001,2025-03-14_00h37.01.876,Utility_discrimination_2024_2cat,2024.2.4,MacIntel,60.24096386,,,,,,,,4,"[0.5,0.5]","[0,1]",d,"[0.9881354110584459,0.9881354110584459]","[0.011864588941554122,0.011864588941554122]",115.7482,117.278,0,d,0,0.0087,,0.744871159,1.143262391,0.398391232,117.2807,117.2807,0,58,58,58,1,0.690431982,0.690431982,shape_difference2,1,,TRUE,,intensity,0.1,0.05,0.7,0.3,0.82,20,400,1E-11,3.5,0.01,0.5,0.1,,,,,,,,,,,,,,,,,,,,,,,,,,,,,,,,,,,,,,,,,,,,,,,,,,,,,,,,,,,,,,,,,,,,,,,,,,,,,,,,,
,,,,,225967,001,2025-03-14_00h37.01.876,Utility_discrimination_2024_2cat,2024.2.4,MacIntel,60.24096386,,,,,,,,0,"[0.5,0.5]","[1,0]",s,"[0.5,1.4405800222515497]","[0.5,-0.4405800222515496]",117.2816,118.9619,1,d,1,0.1497,,0.116929825,0.532189062,0.415259236,118.9648,118.9648,0,59,59,59,1,0.940580022,0.940580022,shape_difference4,1,,TRUE,,intensity,0.1,0.05,0.7,0.3,0.82,20,400,1E-11,3.5,0.01,0.5,0.1,,,,,,,,,,,,,,,,,,,,,,,,,,,,,,,,,,,,,,,,,,,,,,,,,,,,,,,,,,,,,,,,,,,,,,,,,,,,,,,,,
,,,,,225967,001,2025-03-14_00h37.01.876,Utility_discrimination_2024_2cat,2024.2.4,MacIntel,60.24096386,,,,,,,,2,"[0.5,0.5]","[0.707,0.707]",d,"[0.7829255830641331,0.5]","[0.217074416935867,0.5]",118.9658,120.646,1,s,1,0.162,,0.575365376,1.007801311,0.432435935,120.6487,120.6487,0,60,60,60,1,0.282925583,0.282925583,shape_difference0,1,,TRUE,,intensity,0.1,0.05,0.7,0.3,0.82,20,400,1E-11,3.5,0.01,0.5,0.1,,,,,,,,,,,,,,,,,,,,,,,,,,,,,,,,,,,,,,,,,,,,,,,,,,,,,,,,,,,,,,,,,,,,,,,,,,,,,,,,,
,,,,,225967,001,2025-03-14_00h37.01.876,Utility_discrimination_2024_2cat,2024.2.4,MacIntel,60.24096386,,,,,,,,4,"[0.5,0.5]","[0,1]",s,"[1.0537989407402264,1.0537989407402264]","[-0.0537989407402264,-0.0537989407402264]",120.6501,122.3454,0,d,0,0.1676,,0.733914718,1.107556858,0.37364214,122.3491,122.3491,0,61,61,61,1,0.783308261,0.783308261,shape_difference2,1,,TRUE,,intensity,0.1,0.05,0.7,0.3,0.82,20,400,1E-11,3.5,0.01,0.5,0.1,,,,,,,,,,,,,,,,,,,,,,,,,,,,,,,,,,,,,,,,,,,,,,,,,,,,,,,,,,,,,,,,,,,,,,,,,,,,,,,,,
,,,,,225967,001,2025-03-14_00h37.01.876,Utility_discrimination_2024_2cat,2024.2.4,MacIntel,60.24096386,,,,,,,,3,"[0.5,0.5]","[0.383,0.924]",s,"[0.5,1.419380280705758]","[0.5,-0.41938028070575806]",122.3501,123.8957,0,s,0,0.0261,,0.036577537,0.506372107,0.46979457,123.8984,123.8984,0,62,62,62,1,0.919380281,0.919380281,shape_difference4,1,,TRUE,,intensity,0.1,0.05,0.7,0.3,0.82,20,400,1E-11,3.5,0.01,0.5,0.1,,,,,,,,,,,,,,,,,,,,,,,,,,,,,,,,,,,,,,,,,,,,,,,,,,,,,,,,,,,,,,,,,,,,,,,,,,,,,,,,,
,,,,,225967,001,2025-03-14_00h37.01.876,Utility_discrimination_2024_2cat,2024.2.4,MacIntel,60.24096386,,,,,,,,1,"[0.5,0.5]","[0.924,0.383]",d,"[0.5906341501850791,0.7186578453551257]","[0.40936584981492086,0.28134215464487433]",123.8994,125.5791,0,d,0,0.1621,,0.346662384,0.742184345,0.395521961,125.5817,125.5818,0,63,63,63,1,0.23664269,0.23664269,shape_difference3,1,,TRUE,,intensity,0.1,0.05,0.7,0.3,0.82,20,400,1E-11,3.5,0.01,0.5,0.1,,,,,,,,,,,,,,,,,,,,,,,,,,,,,,,,,,,,,,,,,,,,,,,,,,,,,,,,,,,,,,,,,,,,,,,,,,,,,,,,,
,,,,,225967,001,2025-03-14_00h37.01.876,Utility_discrimination_2024_2cat,2024.2.4,MacIntel,60.24096386,,,,,,,,4,"[0.5,0.5]","[0,1]",s,"[0.992683611727791,0.7042184234759133]","[0.00731638827220904,0.29578157652408665]",125.5828,127.2616,0,d,0,0.1494,,0.807315963,1.169787994,0.362472031,127.2641,127.2641,0,64,64,64,1,0.533207372,0.533207372,shape_difference1,1,,TRUE,,intensity,0.1,0.05,0.7,0.3,0.82,20,400,1E-11,3.5,0.01,0.5,0.1,,,,,,,,,,,,,,,,,,,,,,,,,,,,,,,,,,,,,,,,,,,,,,,,,,,,,,,,,,,,,,,,,,,,,,,,,,,,,,,,,
,,,,,225967,001,2025-03-14_00h37.01.876,Utility_discrimination_2024_2cat,2024.2.4,MacIntel,60.24096386,,,,,,,,3,"[0.5,0.5]","[0.383,0.924]",s,"[0.5,1.471390662092992]","[0.5,-0.47139066209299185]",127.2651,128.8291,0,d,0,0.0337,,0.11000589,0.590183977,0.480178087,128.8322,128.8322,0,65,65,65,1,0.971390662,0.971390662,shape_difference4,1,,TRUE,,intensity,0.1,0.05,0.7,0.3,0.82,20,400,1E-11,3.5,0.01,0.5,0.1,,,,,,,,,,,,,,,,,,,,,,,,,,,,,,,,,,,,,,,,,,,,,,,,,,,,,,,,,,,,,,,,,,,,,,,,,,,,,,,,,
,,,,,225967,001,2025-03-14_00h37.01.876,Utility_discrimination_2024_2cat,2024.2.4,MacIntel,60.24096386,,,,,,,,2,"[0.5,0.5]","[0.707,0.707]",s,"[0.6135774039023026,0.7740091937486362]","[0.38642259609769736,0.22599080625136386]",128.8332,130.462,1,d,1,0.1101,,0.669444611,1.087020225,0.417575614,130.4645,130.4646,0,66,66,66,1,0.296546746,0.296546746,shape_difference3,1,,TRUE,,intensity,0.1,0.05,0.7,0.3,0.82,20,400,1E-11,3.5,0.01,0.5,0.1,,,,,,,,,,,,,,,,,,,,,,,,,,,,,,,,,,,,,,,,,,,,,,,,,,,,,,,,,,,,,,,,,,,,,,,,,,,,,,,,,
,,,,,225967,001,2025-03-14_00h37.01.876,Utility_discrimination_2024_2cat,2024.2.4,MacIntel,60.24096386,,,,,,,,1,"[0.5,0.5]","[0.924,0.383]",d,"[1.1166293554241502,1.1166293554241502]","[-0.1166293554241501,-0.1166293554241501]",130.4656,132.0294,1,s,1,0.0445,,0.411193237,0.793194135,0.382000899,132.0317,132.0317,0,67,67,67,1,0.872177306,0.872177306,shape_difference2,1,,TRUE,,intensity,0.1,0.05,0.7,0.3,0.82,20,400,1E-11,3.5,0.01,0.5,0.1,,,,,,,,,,,,,,,,,,,,,,,,,,,,,,,,,,,,,,,,,,,,,,,,,,,,,,,,,,,,,,,,,,,,,,,,,,,,,,,,,
,,,,,225967,001,2025-03-14_00h37.01.876,Utility_discrimination_2024_2cat,2024.2.4,MacIntel,60.24096386,,,,,,,,0,"[0.5,0.5]","[1,0]",s,"[1.0350673150645209,0.7217865602486055]","[-0.035067315064520765,0.2782134397513945]",132.0327,133.5949,1,s,1,0.0332,,0.113428332,0.485055471,0.371627139,133.5973,133.5974,0,68,68,68,1,0.579077181,0.579077181,shape_difference1,1,,TRUE,,intensity,0.1,0.05,0.7,0.3,0.82,20,400,1E-11,3.5,0.01,0.5,0.1,,,,,,,,,,,,,,,,,,,,,,,,,,,,,,,,,,,,,,,,,,,,,,,,,,,,,,,,,,,,,,,,,,,,,,,,,,,,,,,,,
,,,,,225967,001,2025-03-14_00h37.01.876,Utility_discrimination_2024_2cat,2024.2.4,MacIntel,60.24096386,,,,,,,,1,"[0.5,0.5]","[0.924,0.383]",s,"[0.7676002246606572,0.5]","[0.23239977533934275,0.5]",133.5982,135.1628,1,s,1,0.0448,,0.40786839,0.766020216,0.358151826,135.1651,135.1652,0,69,69,69,1,0.267600225,0.267600225,shape_difference0,1,,TRUE,,intensity,0.1,0.05,0.7,0.3,0.82,20,400,1E-11,3.5,0.01,0.5,0.1,,,,,,,,,,,,,,,,,,,,,,,,,,,,,,,,,,,,,,,,,,,,,,,,,,,,,,,,,,,,,,,,,,,,,,,,,,,,,,,,,
,,,,,225967,001,2025-03-14_00h37.01.876,Utility_discrimination_2024_2cat,2024.2.4,MacIntel,60.24096386,,,,,,,,0,"[0.5,0.5]","[1,0]",s,"[1.0204909370501585,0.7157446200110505]","[-0.020490937050158586,0.28425537998894945]",135.166,136.7289,0,s,0,0.0328,,0.110840092,0.447452443,0.336612351,136.7311,136.7313,0,70,70,70,1,0.56330188,0.56330188,shape_difference1,1,,TRUE,,intensity,0.1,0.05,0.7,0.3,0.82,20,400,1E-11,3.5,0.01,0.5,0.1,,,,,,,,,,,,,,,,,,,,,,,,,,,,,,,,,,,,,,,,,,,,,,,,,,,,,,,,,,,,,,,,,,,,,,,,,,,,,,,,,
,,,,,225967,001,2025-03-14_00h37.01.876,Utility_discrimination_2024_2cat,2024.2.4,MacIntel,60.24096386,,,,,,,,4,"[0.5,0.5]","[0,1]",d,"[0.7544696047665524,0.5]","[0.2455303952334475,0.5]",136.732,138.3949,1,s,1,0.1406,,0.860494959,1.236676491,0.376181532,138.3968,138.3969,0,71,71,71,1,0.254469605,0.254469605,shape_difference0,1,,TRUE,,intensity,0.1,0.05,0.7,0.3,0.82,20,400,1E-11,3.5,0.01,0.5,0.1,,,,,,,,,,,,,,,,,,,,,,,,,,,,,,,,,,,,,,,,,,,,,,,,,,,,,,,,,,,,,,,,,,,,,,,,,,,,,,,,,
,,,,,225967,001,2025-03-14_00h37.01.876,Utility_discrimination_2024_2cat,2024.2.4,MacIntel,60.24096386,,,,,,,,3,"[0.5,0.5]","[0.383,0.924]",s,"[0.5,1.5444870547404435]","[0.5,-0.5444870547404435]",138.3978,140.0115,1,s,1,0.0848,,0.105929109,0.543722827,0.437793718,140.0138,140.0139,0,72,72,72,1,1.044487055,1.044487055,shape_difference4,1,,TRUE,,intensity,0.1,0.05,0.7,0.3,0.82,20,400,1E-11,3.5,0.01,0.5,0.1,,,,,,,,,,,,,,,,,,,,,,,,,,,,,,,,,,,,,,,,,,,,,,,,,,,,,,,,,,,,,,,,,,,,,,,,,,,,,,,,,
,,,,,225967,001,2025-03-14_00h37.01.876,Utility_discrimination_2024_2cat,2024.2.4,MacIntel,60.24096386,,,,,,,,2,"[0.5,0.5]","[0.707,0.707]",s,"[0.6048819837482837,0.7530312088339794]","[0.3951180162517163,0.2469687911660205]",140.0147,141.6623,1,s,1,0.1276,,0.656155035,1.06039878,0.404243745,141.6636,141.6637,0,73,73,73,1,0.2738433,0.2738433,shape_difference3,1,,TRUE,,intensity,0.1,0.05,0.7,0.3,0.82,20,400,1E-11,3.5,0.01,0.5,0.1,,,,,,,,,,,,,,,,,,,,,,,,,,,,,,,,,,,,,,,,,,,,,,,,,,,,,,,,,,,,,,,,,,,,,,,,,,,,,,,,,
,,,,,225967,001,2025-03-14_00h37.01.876,Utility_discrimination_2024_2cat,2024.2.4,MacIntel,60.24096386,,,,,,,,0,"[0.5,0.5]","[1,0]",s,"[1.1025898291689868,1.1025898291689868]","[-0.10258982916898685,-0.10258982916898685]",141.6642,143.2792,0,d,0,0.0827,,0.108869674,0.398944918,0.290075244,143.2816,143.2816,0,74,74,74,1,0.852319419,0.852319419,shape_difference2,1,,TRUE,,intensity,0.1,0.05,0.7,0.3,0.82,20,400,1E-11,3.5,0.01,0.5,0.1,,,,,,,,,,,,,,,,,,,,,,,,,,,,,,,,,,,,,,,,,,,,,,,,,,,,,,,,,,,,,,,,,,,,,,,,,,,,,,,,,
,,,,,225967,001,2025-03-14_00h37.01.876,Utility_discrimination_2024_2cat,2024.2.4,MacIntel,60.24096386,,,,,,,,3,"[0.5,0.5]","[0.383,0.924]",s,"[0.7426530616939602,0.5]","[0.25734693830603983,0.5]",143.2825,144.8459,1,d,1,0.0332,,0.102922066,0.488573037,0.385650971,144.8486,144.8486,0,75,75,75,1,0.242653062,0.242653062,shape_difference0,1,,TRUE,,intensity,0.1,0.05,0.7,0.3,0.82,20,400,1E-11,3.5,0.01,0.5,0.1,,,,,,,,,,,,,,,,,,,,,,,,,,,,,,,,,,,,,,,,,,,,,,,,,,,,,,,,,,,,,,,,,,,,,,,,,,,,,,,,,
,,,,,225967,001,2025-03-14_00h37.01.876,Utility_discrimination_2024_2cat,2024.2.4,MacIntel,60.24096386,,,,,,,,4,"[0.5,0.5]","[0,1]",d,"[0.5976130611416067,0.7354946958089938]","[0.4023869388583933,0.26450530419100615]",144.8494,146.5125,0,s,0,0.1363,,0.846270805,1.201430678,0.355159873,146.5151,146.5152,0,76,76,76,1,0.254864389,0.254864389,shape_difference3,1,,TRUE,,intensity,0.1,0.05,0.7,0.3,0.82,20,400,1E-11,3.5,0.01,0.5,0.1,,,,,,,,,,,,,,,,,,,,,,,,,,,,,,,,,,,,,,,,,,,,,,,,,,,,,,,,,,,,,,,,,,,,,,,,,,,,,,,,,
,,,,,225967,001,2025-03-14_00h37.01.876,Utility_discrimination_2024_2cat,2024.2.4,MacIntel,60.24096386,,,,,,,,1,"[0.5,0.5]","[0.924,0.383]",d,"[0.5,1.525625246110414]","[0.5,-0.5256252461104141]",146.5161,148.1293,0,s,0,0.0851,,0.453592357,0.852830225,0.399237867,148.1319,148.132,0,77,77,77,1,1.025625246,1.025625246,shape_difference4,1,,TRUE,,intensity,0.1,0.05,0.7,0.3,0.82,20,400,1E-11,3.5,0.01,0.5,0.1,,,,,,,,,,,,,,,,,,,,,,,,,,,,,,,,,,,,,,,,,,,,,,,,,,,,,,,,,,,,,,,,,,,,,,,,,,,,,,,,,
,,,,,225967,001,2025-03-14_00h37.01.876,Utility_discrimination_2024_2cat,2024.2.4,MacIntel,60.24096386,,,,,,,,2,"[0.5,0.5]","[0.707,0.707]",d,"[1.0863635078982687,0.7430489432089143]","[-0.08636350789826863,0.25695105679108565]",148.133,149.8292,0,d,0,0.1672,,0.744023006,1.142531812,0.398508805,149.8319,149.8319,0,78,78,78,1,0.634592541,0.634592541,shape_difference1,1,,TRUE,,intensity,0.1,0.05,0.7,0.3,0.82,20,400,1E-11,3.5,0.01,0.5,0.1,,,,,,,,,,,,,,,,,,,,,,,,,,,,,,,,,,,,,,,,,,,,,,,,,,,,,,,,,,,,,,,,,,,,,,,,,,,,,,,,,
,,,,,225967,001,2025-03-14_00h37.01.876,Utility_discrimination_2024_2cat,2024.2.4,MacIntel,60.24096386,,,,,,,,4,"[0.5,0.5]","[0,1]",s,"[1.1645093606654633,1.1645093606654633]","[-0.1645093606654633,-0.1645093606654633]",149.8329,151.5458,1,d,1,0.1864,,0.909760043,1.262261455,0.352501411,151.5477,151.5477,0,79,79,79,1,0.939900086,0.939900086,shape_difference2,1,,TRUE,,intensity,0.1,0.05,0.7,0.3,0.82,20,400,1E-11,3.5,0.01,0.5,0.1,,,,,,,,,,,,,,,,,,,,,,,,,,,,,,,,,,,,,,,,,,,,,,,,,,,,,,,,,,,,,,,,,,,,,,,,,,,,,,,,,
,,,,,225967,001,2025-03-14_00h37.01.876,Utility_discrimination_2024_2cat,2024.2.4,MacIntel,60.24096386,,,,,,,,2,"[0.5,0.5]","[0.707,0.707]",d,"[0.5,1.57129079259784]","[0.5,-0.5712907925978401]",151.5486,153.1461,1,d,1,0.0672,,0.733263349,1.106444158,0.37318081,153.149,153.1491,0,80,80,80,1,1.071290793,1.071290793,shape_difference4,1,,TRUE,,intensity,0.1,0.05,0.7,0.3,0.82,20,400,1E-11,3.5,0.01,0.5,0.1,,,,,,,,,,,,,,,,,,,,,,,,,,,,,,,,,,,,,,,,,,,,,,,,,,,,,,,,,,,,,,,,,,,,,,,,,,,,,,,,,
,,,,,225967,001,2025-03-14_00h37.01.876,Utility_discrimination_2024_2cat,2024.2.4,MacIntel,60.24096386,,,,,,,,3,"[0.5,0.5]","[0.383,0.924]",d,"[1.1494211932677203,1.1494211932677203]","[-0.1494211932677203,-0.1494211932677203]",153.1499,154.7292,0,s,0,0.0488,,0.144528843,0.610691279,0.466162435,154.7325,154.7325,0,81,81,81,1,0.918558972,0.918558972,shape_difference2,1,,TRUE,,intensity,0.1,0.05,0.7,0.3,0.82,20,400,1E-11,3.5,0.01,0.5,0.1,,,,,,,,,,,,,,,,,,,,,,,,,,,,,,,,,,,,,,,,,,,,,,,,,,,,,,,,,,,,,,,,,,,,,,,,,,,,,,,,,
,,,,,225967,001,2025-03-14_00h37.01.876,Utility_discrimination_2024_2cat,2024.2.4,MacIntel,60.24096386,,,,,,,,1,"[0.5,0.5]","[0.924,0.383]",d,"[0.6310742514810279,0.81622090957825]","[0.36892574851897214,0.18377909042175]",154.7333,156.4615,0,d,0,0.2076,,0.511766954,0.898456686,0.386689732,156.4633,156.4634,0,82,82,82,1,0.342230422,0.342230422,shape_difference3,1,,TRUE,,intensity,0.1,0.05,0.7,0.3,0.82,20,400,1E-11,3.5,0.01,0.5,0.1,,,,,,,,,,,,,,,,,,,,,,,,,,,,,,,,,,,,,,,,,,,,,,,,,,,,,,,,,,,,,,,,,,,,,,,,,,,,,,,,,
,,,,,225967,001,2025-03-14_00h37.01.876,Utility_discrimination_2024_2cat,2024.2.4,MacIntel,60.24096386,,,,,,,,0,"[0.5,0.5]","[1,0]",s,"[1.1302848890809822,0.7612544507770738]","[-0.13028488908098224,0.23874554922292623]",156.4643,157.996,0,s,0,0.0004,,0.106801769,0.385774231,0.278972462,157.9983,157.9983,0,83,83,83,1,0.682126503,0.682126503,shape_difference1,1,,TRUE,,intensity,0.1,0.05,0.7,0.3,0.82,20,400,1E-11,3.5,0.01,0.5,0.1,,,,,,,,,,,,,,,,,,,,,,,,,,,,,,,,,,,,,,,,,,,,,,,,,,,,,,,,,,,,,,,,,,,,,,,,,,,,,,,,,
,,,,,225967,001,2025-03-14_00h37.01.876,Utility_discrimination_2024_2cat,2024.2.4,MacIntel,60.24096386,,,,,,,,1,"[0.5,0.5]","[0.924,0.383]",d,"[0.7306052067287624,0.5]","[0.2693947932712376,0.5]",157.9991,159.5293,1,s,1,0.0005,,0.571257384,0.982932273,0.411674889,159.5319,159.532,0,84,84,84,1,0.230605207,0.230605207,shape_difference0,1,,TRUE,,intensity,0.1,0.05,0.7,0.3,0.82,20,400,1E-11,3.5,0.01,0.5,0.1,,,,,,,,,,,,,,,,,,,,,,,,,,,,,,,,,,,,,,,,,,,,,,,,,,,,,,,,,,,,,,,,,,,,,,,,,,,,,,,,,
,,,,,225967,001,2025-03-14_00h37.01.876,Utility_discrimination_2024_2cat,2024.2.4,MacIntel,60.24096386,,,,,,,,2,"[0.5,0.5]","[0.707,0.707]",s,"[1.2033125955715518,0.7915245931860436]","[-0.2033125955715518,0.20847540681395638]",159.5328,161.0626,0,d,0,0.0005,,0.807106171,1.169406737,0.362300566,161.065,161.065,0,85,85,85,1,0.761160818,0.761160818,shape_difference1,1,,TRUE,,intensity,0.1,0.05,0.7,0.3,0.82,20,400,1E-11,3.5,0.01,0.5,0.1,,,,,,,,,,,,,,,,,,,,,,,,,,,,,,,,,,,,,,,,,,,,,,,,,,,,,,,,,,,,,,,,,,,,,,,,,,,,,,,,,
,,,,,225967,001,2025-03-14_00h37.01.876,Utility_discrimination_2024_2cat,2024.2.4,MacIntel,60.24096386,,,,,,,,4,"[0.5,0.5]","[0,1]",s,"[1.186497300318225,1.186497300318225]","[-0.1864973003182252,-0.1864973003182252]",161.0659,162.7626,1,d,1,0.1777,,0.906883707,1.232493084,0.325609377,162.7645,162.7645,0,86,86,86,1,0.971000425,0.971000425,shape_difference2,1,,TRUE,,intensity,0.1,0.05,0.7,0.3,0.82,20,400,1E-11,3.5,0.01,0.5,0.1,,,,,,,,,,,,,,,,,,,,,,,,,,,,,,,,,,,,,,,,,,,,,,,,,,,,,,,,,,,,,,,,,,,,,,,,,,,,,,,,,
,,,,,225967,001,2025-03-14_00h37.01.876,Utility_discrimination_2024_2cat,2024.2.4,MacIntel,60.24096386,,,,,,,,3,"[0.5,0.5]","[0.383,0.924]",d,"[0.5,1.5570278850734454]","[0.5,-0.5570278850734454]",162.766,164.4627,0,s,0,0.1679,,0.211695509,0.685812096,0.474116587,164.4651,164.4656,0,87,87,87,1,1.057027885,1.057027885,shape_difference4,1,,TRUE,,intensity,0.1,0.05,0.7,0.3,0.82,20,400,1E-11,3.5,0.01,0.5,0.1,,,,,,,,,,,,,,,,,,,,,,,,,,,,,,,,,,,,,,,,,,,,,,,,,,,,,,,,,,,,,,,,,,,,,,,,,,,,,,,,,
,,,,,225967,001,2025-03-14_00h37.01.876,Utility_discrimination_2024_2cat,2024.2.4,MacIntel,60.24096386,,,,,,,,0,"[0.5,0.5]","[1,0]",d,"[0.6535943610093514,0.8705514088058504]","[0.3464056389906486,0.1294485911941496]",164.4665,166.1288,0,s,0,0.1428,,0.104988266,0.369965252,0.264976986,166.1298,166.1298,0,88,88,88,1,0.401029663,0.401029663,shape_difference3,1,,TRUE,,intensity,0.1,0.05,0.7,0.3,0.82,20,400,1E-11,3.5,0.01,0.5,0.1,,,,,,,,,,,,,,,,,,,,,,,,,,,,,,,,,,,,,,,,,,,,,,,,,,,,,,,,,,,,,,,,,,,,,,,,,,,,,,,,,
,,,,,225967,001,2025-03-14_00h37.01.876,Utility_discrimination_2024_2cat,2024.2.4,MacIntel,60.24096386,,,,,,,,1,"[0.5,0.5]","[0.924,0.383]",d,"[0.7174484332220374,0.5]","[0.2825515667779626,0.5]",166.1302,167.8126,0,s,0,0.1581,,0.648905851,1.071445805,0.422539954,167.815,167.815,0,89,89,89,1,0.217448433,0.217448433,shape_difference0,1,,TRUE,,intensity,0.1,0.05,0.7,0.3,0.82,20,400,1E-11,3.5,0.01,0.5,0.1,,,,,,,,,,,,,,,,,,,,,,,,,,,,,,,,,,,,,,,,,,,,,,,,,,,,,,,,,,,,,,,,,,,,,,,,,,,,,,,,,
,,,,,225967,001,2025-03-14_00h37.01.876,Utility_discrimination_2024_2cat,2024.2.4,MacIntel,60.24096386,,,,,,,,0,"[0.5,0.5]","[1,0]",d,"[1.2887650418194467,0.8269448171178011]","[-0.28876504181944684,0.17305518288219895]",167.8156,169.4461,0,d,0,0.1119,,0.112579214,0.398565768,0.285986554,169.448,169.448,0,90,90,90,1,0.85364182,0.85364182,shape_difference1,1,,TRUE,,intensity,0.1,0.05,0.7,0.3,0.82,20,400,1E-11,3.5,0.01,0.5,0.1,,,,,,,,,,,,,,,,,,,,,,,,,,,,,,,,,,,,,,,,,,,,,,,,,,,,,,,,,,,,,,,,,,,,,,,,,,,,,,,,,
,,,,,225967,001,2025-03-14_00h37.01.876,Utility_discrimination_2024_2cat,2024.2.4,MacIntel,60.24096386,,,,,,,,4,"[0.5,0.5]","[0,1]",s,"[0.7495155735812503,0.5]","[0.2504844264187497,0.5]",169.4489,171.0793,1,d,1,0.1023,,0.947369564,1.29396747,0.346597907,171.0823,171.0824,0,91,91,91,1,0.249515574,0.249515574,shape_difference0,1,,TRUE,,intensity,0.1,0.05,0.7,0.3,0.82,20,400,1E-11,3.5,0.01,0.5,0.1,,,,,,,,,,,,,,,,,,,,,,,,,,,,,,,,,,,,,,,,,,,,,,,,,,,,,,,,,,,,,,,,,,,,,,,,,,,,,,,,,
,,,,,225967,001,2025-03-14_00h37.01.876,Utility_discrimination_2024_2cat,2024.2.4,MacIntel,60.24096386,,,,,,,,3,"[0.5,0.5]","[0.383,0.924]",d,"[0.5,1.6218799598599092]","[0.5,-0.6218799598599092]",171.0835,172.7294,0,s,0,0.1168,,0.286353822,0.775956719,0.489602897,172.7323,172.7324,0,92,92,92,1,1.12187996,1.12187996,shape_difference4,1,,TRUE,,intensity,0.1,0.05,0.7,0.3,0.82,20,400,1E-11,3.5,0.01,0.5,0.1,,,,,,,,,,,,,,,,,,,,,,,,,,,,,,,,,,,,,,,,,,,,,,,,,,,,,,,,,,,,,,,,,,,,,,,,,,,,,,,,,
,,,,,225967,001,2025-03-14_00h37.01.876,Utility_discrimination_2024_2cat,2024.2.4,MacIntel,60.24096386,,,,,,,,2,"[0.5,0.5]","[0.707,0.707]",d,"[0.6899797320188478,0.9583323038783691]","[0.31002026798115223,0.04166769612163096]",172.7338,174.4119,1,d,1,0.1532,,0.804162777,1.140224417,0.33606164,174.4142,174.4143,0,93,93,93,1,0.496030632,0.496030632,shape_difference3,1,,TRUE,,intensity,0.1,0.05,0.7,0.3,0.82,20,400,1E-11,3.5,0.01,0.5,0.1,,,,,,,,,,,,,,,,,,,,,,,,,,,,,,,,,,,,,,,,,,,,,,,,,,,,,,,,,,,,,,,,,,,,,,,,,,,,,,,,,
,,,,,225967,001,2025-03-14_00h37.01.876,Utility_discrimination_2024_2cat,2024.2.4,MacIntel,60.24096386,,,,,,,,3,"[0.5,0.5]","[0.383,0.924]",d,"[1.175674141062548,1.175674141062548]","[-0.17567414106254797,-0.17567414106254797]",174.4158,175.9457,0,d,0,0.0116,,0.268029044,0.731220849,0.463191804,175.9473,175.9474,0,94,94,94,1,0.955691854,0.955691854,shape_difference2,1,,TRUE,,intensity,0.1,0.05,0.7,0.3,0.82,20,400,1E-11,3.5,0.01,0.5,0.1,,,,,,,,,,,,,,,,,,,,,,,,,,,,,,,,,,,,,,,,,,,,,,,,,,,,,,,,,,,,,,,,,,,,,,,,,,,,,,,,,
,,,,,225967,001,2025-03-14_00h37.01.876,Utility_discrimination_2024_2cat,2024.2.4,MacIntel,60.24096386,,,,,,,,2,"[0.5,0.5]","[0.707,0.707]",s,"[0.6796935103591801,0.9335164584122257]","[0.32030648964081987,0.06648354158777431]",175.948,177.5464,0,d,0,0.0781,,0.84592824,1.200964726,0.355036486,177.5488,177.5489,0,95,95,95,1,0.469173656,0.469173656,shape_difference3,1,,TRUE,,intensity,0.1,0.05,0.7,0.3,0.82,20,400,1E-11,3.5,0.01,0.5,0.1,,,,,,,,,,,,,,,,,,,,,,,,,,,,,,,,,,,,,,,,,,,,,,,,,,,,,,,,,,,,,,,,,,,,,,,,,,,,,,,,,
,,,,,225967,001,2025-03-14_00h37.01.876,Utility_discrimination_2024_2cat,2024.2.4,MacIntel,60.24096386,,,,,,,,4,"[0.5,0.5]","[0,1]",s,"[1.2249004154861853,1.2249004154861853]","[-0.22490041548618533,-0.22490041548618533]",177.5499,179.1629,1,s,1,0.0876,,1.009371221,1.348471335,0.339100113,179.1647,179.1647,0,96,96,96,1,1.025318834,1.025318834,shape_difference2,1,,TRUE,,intensity,0.1,0.05,0.7,0.3,0.82,20,400,1E-11,3.5,0.01,0.5,0.1,,,,,,,,,,,,,,,,,,,,,,,,,,,,,,,,,,,,,,,,,,,,,,,,,,,,,,,,,,,,,,,,,,,,,,,,,,,,,,,,,
,,,,,225967,001,2025-03-14_00h37.01.876,Utility_discrimination_2024_2cat,2024.2.4,MacIntel,60.24096386,,,,,,,,1,"[0.5,0.5]","[0.924,0.383]",s,"[0.5,1.66658141564659]","[0.5,-0.6665814156465899]",179.1655,180.7294,1,d,1,0.0329,,0.744858692,1.157505936,0.412647244,180.732,180.732,0,97,97,97,1,1.166581416,1.166581416,shape_difference4,1,,TRUE,,intensity,0.1,0.05,0.7,0.3,0.82,20,400,1E-11,3.5,0.01,0.5,0.1,,,,,,,,,,,,,,,,,,,,,,,,,,,,,,,,,,,,,,,,,,,,,,,,,,,,,,,,,,,,,,,,,,,,,,,,,,,,,,,,,
,,,,,225967,001,2025-03-14_00h37.01.876,Utility_discrimination_2024_2cat,2024.2.4,MacIntel,60.24096386,,,,,,,,0,"[0.5,0.5]","[1,0]",d,"[1.3763964350312556,0.863268219282436]","[-0.3763964350312555,0.13673178071756398]",180.7329,182.4296,1,s,1,0.1782,,0.110547985,0.386842578,0.276294592,182.4314,182.4314,0,98,98,98,1,0.94848099,0.94848099,shape_difference1,1,,TRUE,,intensity,0.1,0.05,0.7,0.3,0.82,20,400,1E-11,3.5,0.01,0.5,0.1,,,,,,,,,,,,,,,,,,,,,,,,,,,,,,,,,,,,,,,,,,,,,,,,,,,,,,,,,,,,,,,,,,,,,,,,,,,,,,,,,
,,,,,225967,001,2025-03-14_00h37.01.876,Utility_discrimination_2024_2cat,2024.2.4,MacIntel,60.24096386,,,,,,,,2,"[0.5,0.5]","[0.707,0.707]",s,"[0.7394927427710769,0.5]","[0.2605072572289231,0.5]",182.4323,184.096,0,s,0,0.133,,0.835917561,1.186098226,0.350180665,184.0987,184.0988,0,99,99,99,1,0.239492743,0.239492743,shape_difference0,1,,TRUE,,intensity,0.1,0.05,0.7,0.3,0.82,20,400,1E-11,3.5,0.01,0.5,0.1,,,,,,,,,,,,,,,,,,,,,,,,,,,,,,,,,,,,,,,,,,,,,,,,,,,,,,,,,,,,,,,,,,,,,,,,,,,,,,,,,
,,,,,225967,001,2025-03-14_00h37.01.876,Utility_discrimination_2024_2cat,2024.2.4,MacIntel,60.24096386,,,,,,,,0,"[0.5,0.5]","[1,0]",d,"[1.2099827309609976,1.2099827309609976]","[-0.20998273096099762,-0.20998273096099762]",184.0998,185.7794,1,d,1,0.159,,0.118174174,0.428082069,0.309907895,185.7813,185.7813,0,100,100,100,1,1.004218856,1.004218856,shape_difference2,1,,TRUE,,intensity,0.1,0.05,0.7,0.3,0.82,20,400,1E-11,3.5,0.01,0.5,0.1,,,,,,,,,,,,,,,,,,,,,,,,,,,,,,,,,,,,,,,,,,,,,,,,,,,,,,,,,,,,,,,,,,,,,,,,,,,,,,,,,
,,,,,225967,001,2025-03-14_00h37.01.876,Utility_discrimination_2024_2cat,2024.2.4,MacIntel,60.24096386,,,,,,,,4,"[0.5,0.5]","[0,1]",d,"[0.7628321469938811,0.5]","[0.23716785300611887,0.5]",185.7828,187.3284,1,d,1,0.0184,,1.006726916,1.314730397,0.308003481,187.3308,187.3309,0,101,101,101,1,0.262832147,0.262832147,shape_difference0,1,,TRUE,,intensity,0.1,0.05,0.7,0.3,0.82,20,400,1E-11,3.5,0.01,0.5,0.1,,,,,,,,,,,,,,,,,,,,,,,,,,,,,,,,,,,,,,,,,,,,,,,,,,,,,,,,,,,,,,,,,,,,,,,,,,,,,,,,,
,,,,,225967,001,2025-03-14_00h37.01.876,Utility_discrimination_2024_2cat,2024.2.4,MacIntel,60.24096386,,,,,,,,3,"[0.5,0.5]","[0.383,0.924]",d,"[0.5,1.6532187297425596]","[0.5,-0.6532187297425596]",187.3318,189.0295,0,s,0,0.1665,,0.354372417,0.832225474,0.477853056,189.0318,189.0319,0,102,102,102,1,1.15321873,1.15321873,shape_difference4,1,,TRUE,,intensity,0.1,0.05,0.7,0.3,0.82,20,400,1E-11,3.5,0.01,0.5,0.1,,,,,,,,,,,,,,,,,,,,,,,,,,,,,,,,,,,,,,,,,,,,,,,,,,,,,,,,,,,,,,,,,,,,,,,,,,,,,,,,,
,,,,,225967,001,2025-03-14_00h37.01.876,Utility_discrimination_2024_2cat,2024.2.4,MacIntel,60.24096386,,,,,,,,1,"[0.5,0.5]","[0.924,0.383]",d,"[0.7197026903584691,1.0300399109431475]","[0.2802973096415309,-0.030039910943147508]",189.0327,190.6127,1,d,1,0.0498,,0.733370497,1.127235056,0.393864559,190.6155,190.6156,0,103,103,103,1,0.573636267,0.573636267,shape_difference3,1,,TRUE,,intensity,0.1,0.05,0.7,0.3,0.82,20,400,1E-11,3.5,0.01,0.5,0.1,,,,,,,,,,,,,,,,,,,,,,,,,,,,,,,,,,,,,,,,,,,,,,,,,,,,,,,,,,,,,,,,,,,,,,,,,,,,,,,,,
,,,,,225967,001,2025-03-14_00h37.01.876,Utility_discrimination_2024_2cat,2024.2.4,MacIntel,60.24096386,,,,,,,,1,"[0.5,0.5]","[0.924,0.383]",d,"[1.3566064512320395,0.8550652281621982]","[-0.3566064512320395,0.14493477183780185]",190.6169,192.2295,1,d,1,0.083,,0.725264558,1.094774058,0.369509501,192.2325,192.2326,0,104,104,104,1,0.927063259,0.927063259,shape_difference1,1,,TRUE,,intensity,0.1,0.05,0.7,0.3,0.82,20,400,1E-11,3.5,0.01,0.5,0.1,,,,,,,,,,,,,,,,,,,,,,,,,,,,,,,,,,,,,,,,,,,,,,,,,,,,,,,,,,,,,,,,,,,,,,,,,,,,,,,,,
,,,,,225967,001,2025-03-14_00h37.01.876,Utility_discrimination_2024_2cat,2024.2.4,MacIntel,60.24096386,,,,,,,,2,"[0.5,0.5]","[0.707,0.707]",d,"[1.334530400734053,0.8459146574471237]","[-0.33453040073405294,0.15408534255287631]",192.2334,193.8452,0,d,0,0.0843,,0.828669228,1.168073272,0.339404044,193.8476,193.8476,0,105,105,105,1,0.903171429,0.903171429,shape_difference1,1,,TRUE,,intensity,0.1,0.05,0.7,0.3,0.82,20,400,1E-11,3.5,0.01,0.5,0.1,,,,,,,,,,,,,,,,,,,,,,,,,,,,,,,,,,,,,,,,,,,,,,,,,,,,,,,,,,,,,,,,,,,,,,,,,,,,,,,,,
,,,,,225967,001,2025-03-14_00h37.01.876,Utility_discrimination_2024_2cat,2024.2.4,MacIntel,60.24096386,,,,,,,,4,"[0.5,0.5]","[0,1]",s,"[1.199291230176604,1.199291230176604]","[-0.19929123017660422,-0.19929123017660422]",193.8484,195.4628,0,d,0,0.0818,,1.044302101,1.385203254,0.340901153,195.4651,195.4651,0,106,106,106,1,0.989096507,0.989096507,shape_difference2,1,,TRUE,,intensity,0.1,0.05,0.7,0.3,0.82,20,400,1E-11,3.5,0.01,0.5,0.1,,,,,,,,,,,,,,,,,,,,,,,,,,,,,,,,,,,,,,,,,,,,,,,,,,,,,,,,,,,,,,,,,,,,,,,,,,,,,,,,,
,,,,,225967,001,2025-03-14_00h37.01.876,Utility_discrimination_2024_2cat,2024.2.4,MacIntel,60.24096386,,,,,,,,0,"[0.5,0.5]","[1,0]",s,"[0.5,1.713949830604537]","[0.5,-0.7139498306045371]",195.4665,197.0129,1,s,1,0.0175,,0.115602903,0.394650062,0.27904716,197.0148,197.015,0,107,107,107,1,1.213949831,1.213949831,shape_difference4,1,,TRUE,,intensity,0.1,0.05,0.7,0.3,0.82,20,400,1E-11,3.5,0.01,0.5,0.1,,,,,,,,,,,,,,,,,,,,,,,,,,,,,,,,,,,,,,,,,,,,,,,,,,,,,,,,,,,,,,,,,,,,,,,,,,,,,,,,,
,,,,,225967,001,2025-03-14_00h37.01.876,Utility_discrimination_2024_2cat,2024.2.4,MacIntel,60.24096386,,,,,,,,3,"[0.5,0.5]","[0.383,0.924]",s,"[0.7542979709267129,0.5]","[0.2457020290732871,0.5]",197.0163,198.6295,1,d,1,0.0822,,0.343703234,0.787052439,0.443349205,198.6322,198.6323,0,108,108,108,1,0.254297971,0.254297971,shape_difference0,1,,TRUE,,intensity,0.1,0.05,0.7,0.3,0.82,20,400,1E-11,3.5,0.01,0.5,0.1,,,,,,,,,,,,,,,,,,,,,,,,,,,,,,,,,,,,,,,,,,,,,,,,,,,,,,,,,,,,,,,,,,,,,,,,,,,,,,,,,
,,,,,225967,001,2025-03-14_00h37.01.876,Utility_discrimination_2024_2cat,2024.2.4,MacIntel,60.24096386,,,,,,,,4,"[0.5,0.5]","[0,1]",d,"[0.7102767979685389,1.0072996379188774]","[0.28972320203146107,-0.007299637918877333]",198.6336,200.3461,0,d,0,0.1878,,1.035193804,1.369435635,0.334241831,200.3488,200.3489,0,109,109,109,1,0.549025582,0.549025582,shape_difference3,1,,TRUE,,intensity,0.1,0.05,0.7,0.3,0.82,20,400,1E-11,3.5,0.01,0.5,0.1,,,,,,,,,,,,,,,,,,,,,,,,,,,,,,,,,,,,,,,,,,,,,,,,,,,,,,,,,,,,,,,,,,,,,,,,,,,,,,,,,
,,,,,225967,001,2025-03-14_00h37.01.876,Utility_discrimination_2024_2cat,2024.2.4,MacIntel,60.24096386,,,,,,,,1,"[0.5,0.5]","[0.924,0.383]",s,"[0.5,1.69570466754157]","[0.5,-0.6957046675415699]",200.3503,201.9463,1,s,1,0.072,,0.803671504,1.161247501,0.357575997,201.949,201.949,0,110,110,110,1,1.195704668,1.195704668,shape_difference4,1,,TRUE,,intensity,0.1,0.05,0.7,0.3,0.82,20,400,1E-11,3.5,0.01,0.5,0.1,,,,,,,,,,,,,,,,,,,,,,,,,,,,,,,,,,,,,,,,,,,,,,,,,,,,,,,,,,,,,,,,,,,,,,,,,,,,,,,,,
,,,,,225967,001,2025-03-14_00h37.01.876,Utility_discrimination_2024_2cat,2024.2.4,MacIntel,60.24096386,,,,,,,,2,"[0.5,0.5]","[0.707,0.707]",s,"[1.3901858145061217,0.8689839469219097]","[-0.39018581450612166,0.13101605307809028]",201.9504,203.4962,1,d,1,0.0186,,0.90255297,1.209545533,0.306992564,203.4996,203.4996,0,111,111,111,1,0.963404561,0.963404561,shape_difference1,1,,TRUE,,intensity,0.1,0.05,0.7,0.3,0.82,20,400,1E-11,3.5,0.01,0.5,0.1,,,,,,,,,,,,,,,,,,,,,,,,,,,,,,,,,,,,,,,,,,,,,,,,,,,,,,,,,,,,,,,,,,,,,,,,,,,,,,,,,
,,,,,225967,001,2025-03-14_00h37.01.876,Utility_discrimination_2024_2cat,2024.2.4,MacIntel,60.24096386,,,,,,,,0,"[0.5,0.5]","[1,0]",d,"[1.2373545246570354,1.2373545246570354]","[-0.23735452465703555,-0.23735452465703555]",203.5006,205.0295,0,d,0,0.0015,,0.113609198,0.381388613,0.267779415,205.0319,205.0319,0,112,112,112,1,1.042934264,1.042934264,shape_difference2,1,,TRUE,,intensity,0.1,0.05,0.7,0.3,0.82,20,400,1E-11,3.5,0.01,0.5,0.1,,,,,,,,,,,,,,,,,,,,,,,,,,,,,,,,,,,,,,,,,,,,,,,,,,,,,,,,,,,,,,,,,,,,,,,,,,,,,,,,,
,,,,,225967,001,2025-03-14_00h37.01.876,Utility_discrimination_2024_2cat,2024.2.4,MacIntel,60.24096386,,,,,,,,3,"[0.5,0.5]","[0.383,0.924]",s,"[0.7464155018203087,0.5]","[0.2535844981796913,0.5]",205.0328,206.6798,1,s,1,0.1291,,0.413171578,0.850907868,0.43773629,206.6815,206.6816,0,113,113,113,1,0.246415502,0.246415502,shape_difference0,1,,TRUE,,intensity,0.1,0.05,0.7,0.3,0.82,20,400,1E-11,3.5,0.01,0.5,0.1,,,,,,,,,,,,,,,,,,,,,,,,,,,,,,,,,,,,,,,,,,,,,,,,,,,,,,,,,,,,,,,,,,,,,,,,,,,,,,,,,
,,,,,225967,001,2025-03-14_00h37.01.876,Utility_discrimination_2024_2cat,2024.2.4,MacIntel,60.24096386,,,,,,,,4,"[0.5,0.5]","[0,1]",s,"[0.7306303587120296,1.0564032674932515]","[0.26936964128797036,-0.05640326749325153]",206.6825,208.2455,1,d,1,0.0354,,1.028495553,1.348778857,0.320283303,208.2481,208.2482,0,114,114,114,1,0.602168038,0.602168038,shape_difference3,1,,TRUE,,intensity,0.1,0.05,0.7,0.3,0.82,20,400,1E-11,3.5,0.01,0.5,0.1,,,,,,,,,,,,,,,,,,,,,,,,,,,,,,,,,,,,,,,,,,,,,,,,,,,,,,,,,,,,,,,,,,,,,,,,,,,,,,,,,
,,,,,225967,001,2025-03-14_00h37.01.876,Utility_discrimination_2024_2cat,2024.2.4,MacIntel,60.24096386,,,,,,,,2,"[0.5,0.5]","[0.707,0.707]",d,"[0.5,1.6840049684674683]","[0.5,-0.6840049684674683]",208.2494,209.8294,0,s,0,0.0592,,0.916502807,1.260317643,0.343814836,209.8314,209.8314,0,115,115,115,1,1.184004968,1.184004968,shape_difference4,1,,TRUE,,intensity,0.1,0.05,0.7,0.3,0.82,20,400,1E-11,3.5,0.01,0.5,0.1,,,,,,,,,,,,,,,,,,,,,,,,,,,,,,,,,,,,,,,,,,,,,,,,,,,,,,,,,,,,,,,,,,,,,,,,,,,,,,,,,
,,,,,225967,001,2025-03-14_00h37.01.876,Utility_discrimination_2024_2cat,2024.2.4,MacIntel,60.24096386,,,,,,,,3,"[0.5,0.5]","[0.383,0.924]",d,"[1.2606575608906114,1.2606575608906114]","[-0.2606575608906113,-0.2606575608906113]",209.8322,211.3953,0,s,0,0.0345,,0.408624169,0.803118413,0.394494244,211.398,211.3982,0,116,116,116,1,1.075894711,1.075894711,shape_difference2,1,,TRUE,,intensity,0.1,0.05,0.7,0.3,0.82,20,400,1E-11,3.5,0.01,0.5,0.1,,,,,,,,,,,,,,,,,,,,,,,,,,,,,,,,,,,,,,,,,,,,,,,,,,,,,,,,,,,,,,,,,,,,,,,,,,,,,,,,,
,,,,,225967,001,2025-03-14_00h37.01.876,Utility_discrimination_2024_2cat,2024.2.4,MacIntel,60.24096386,,,,,,,,0,"[0.5,0.5]","[1,0]",d,"[0.7223114254312917,1.036333569447816]","[0.2776885745687083,-0.03633356944781596]",211.3992,212.9296,0,d,0,0.002,,0.111764217,0.369108215,0.257343999,212.9323,212.9324,0,117,117,117,1,0.580447586,0.580447586,shape_difference3,1,,TRUE,,intensity,0.1,0.05,0.7,0.3,0.82,20,400,1E-11,3.5,0.01,0.5,0.1,,,,,,,,,,,,,,,,,,,,,,,,,,,,,,,,,,,,,,,,,,,,,,,,,,,,,,,,,,,,,,,,,,,,,,,,,,,,,,,,,
,,,,,225967,001,2025-03-14_00h37.01.876,Utility_discrimination_2024_2cat,2024.2.4,MacIntel,60.24096386,,,,,,,,1,"[0.5,0.5]","[0.924,0.383]",s,"[0.7381892807490388,0.5]","[0.2618107192509612,0.5]",212.9335,214.5129,0,s,0,0.0511,,0.800984469,1.128086386,0.327101916,214.5158,214.5158,0,118,118,118,1,0.238189281,0.238189281,shape_difference0,1,,TRUE,,intensity,0.1,0.05,0.7,0.3,0.82,20,400,1E-11,3.5,0.01,0.5,0.1,,,,,,,,,,,,,,,,,,,,,,,,,,,,,,,,,,,,,,,,,,,,,,,,,,,,,,,,,,,,,,,,,,,,,,,,,,,,,,,,,
,,,,,225967,001,2025-03-14_00h37.01.876,Utility_discrimination_2024_2cat,2024.2.4,MacIntel,60.24096386,,,,,,,,1,"[0.5,0.5]","[0.924,0.383]",d,"[1.37591616489434,0.8630691462711388]","[-0.3759161648943402,0.13693085372886116]",214.5169,216.1287,1,d,1,0.0925,,0.782123505,1.097558527,0.315435022,216.1308,216.1308,0,119,119,119,1,0.947961217,0.947961217,shape_difference1,1,,TRUE,,intensity,0.1,0.05,0.7,0.3,0.82,20,400,1E-11,3.5,0.01,0.5,0.1,,,,,,,,,,,,,,,,,,,,,,,,,,,,,,,,,,,,,,,,,,,,,,,,,,,,,,,,,,,,,,,,,,,,,,,,,,,,,,,,,
,,,,,225967,001,2025-03-14_00h37.01.876,Utility_discrimination_2024_2cat,2024.2.4,MacIntel,60.24096386,,,,,,,,0,"[0.5,0.5]","[1,0]",d,"[1.3615810467201466,0.8571272087595412]","[-0.36158104672014657,0.14287279124045876]",216.1318,217.6952,0,d,0,0.0434,,0.118594772,0.390946513,0.272351741,217.6969,217.697,0,120,120,120,1,0.93244702,0.93244702,shape_difference1,1,,TRUE,,intensity,0.1,0.05,0.7,0.3,0.82,20,400,1E-11,3.5,0.01,0.5,0.1,,,,,,,,,,,,,,,,,,,,,,,,,,,,,,,,,,,,,,,,,,,,,,,,,,,,,,,,,,,,,,,,,,,,,,,,,,,,,,,,,
,,,,,225967,001,2025-03-14_00h37.01.876,Utility_discrimination_2024_2cat,2024.2.4,MacIntel,60.24096386,,,,,,,,4,"[0.5,0.5]","[0,1]",s,"[0.7577106883189628,0.5]","[0.24228931168103712,0.5]",217.6978,219.2462,0,d,0,0.0211,,1.101856047,1.389408222,0.287552174,219.249,219.2491,0,121,121,121,1,0.257710688,0.257710688,shape_difference0,1,,TRUE,,intensity,0.1,0.05,0.7,0.3,0.82,20,400,1E-11,3.5,0.01,0.5,0.1,,,,,,,,,,,,,,,,,,,,,,,,,,,,,,,,,,,,,,,,,,,,,,,,,,,,,,,,,,,,,,,,,,,,,,,,,,,,,,,,,
,,,,,225967,001,2025-03-14_00h37.01.876,Utility_discrimination_2024_2cat,2024.2.4,MacIntel,60.24096386,,,,,,,,3,"[0.5,0.5]","[0.383,0.924]",s,"[0.5,1.7332242148660968]","[0.5,-0.7332242148660968]",219.2501,220.8795,0,s,0,0.1036,,0.469120339,0.890394948,0.421274608,220.8822,220.8823,0,122,122,122,1,1.233224215,1.233224215,shape_difference4,1,,TRUE,,intensity,0.1,0.05,0.7,0.3,0.82,20,400,1E-11,3.5,0.01,0.5,0.1,,,,,,,,,,,,,,,,,,,,,,,,,,,,,,,,,,,,,,,,,,,,,,,,,,,,,,,,,,,,,,,,,,,,,,,,,,,,,,,,,
,,,,,225967,001,2025-03-14_00h37.01.876,Utility_discrimination_2024_2cat,2024.2.4,MacIntel,60.24096386,,,,,,,,2,"[0.5,0.5]","[0.707,0.707]",d,"[0.7535826061336246,1.1117763134920864]","[0.24641739386637546,-0.11177631349208639]",220.8835,222.5129,0,d,0,0.0998,,0.972447786,1.308346802,0.335899016,222.5158,222.5159,0,123,123,123,1,0.662095577,0.662095577,shape_difference3,1,,TRUE,,intensity,0.1,0.05,0.7,0.3,0.82,20,400,1E-11,3.5,0.01,0.5,0.1,,,,,,,,,,,,,,,,,,,,,,,,,,,,,,,,,,,,,,,,,,,,,,,,,,,,,,,,,,,,,,,,,,,,,,,,,,,,,,,,,
,,,,,225967,001,2025-03-14_00h37.01.876,Utility_discrimination_2024_2cat,2024.2.4,MacIntel,60.24096386,,,,,,,,3,"[0.5,0.5]","[0.383,0.924]",s,"[1.304371832131269,1.304371832131269]","[-0.30437183213126906,-0.30437183213126906]",222.5166,224.23,1,s,1,0.1941,,0.549625605,0.98369775,0.434072145,224.232,224.2321,0,124,124,124,1,1.137725364,1.137725364,shape_difference2,1,,TRUE,,intensity,0.1,0.05,0.7,0.3,0.82,20,400,1E-11,3.5,0.01,0.5,0.1,,,,,,,,,,,,,,,,,,,,,,,,,,,,,,,,,,,,,,,,,,,,,,,,,,,,,,,,,,,,,,,,,,,,,,,,,,,,,,,,,
,,,,,225967,001,2025-03-14_00h37.01.876,Utility_discrimination_2024_2cat,2024.2.4,MacIntel,60.24096386,,,,,,,,0,"[0.5,0.5]","[1,0]",s,"[0.7901942470446937,1.200103092086937]","[0.20980575295530635,-0.20010309208693722]",224.2328,225.7629,1,d,1,0.0004,,0.161676606,0.468454226,0.30677762,225.7653,225.7654,0,125,125,125,1,0.757687329,0.757687329,shape_difference3,1,,TRUE,,intensity,0.1,0.05,0.7,0.3,0.82,20,400,1E-11,3.5,0.01,0.5,0.1,,,,,,,,,,,,,,,,,,,,,,,,,,,,,,,,,,,,,,,,,,,,,,,,,,,,,,,,,,,,,,,,,,,,,,,,,,,,,,,,,
,,,,,225967,001,2025-03-14_00h37.01.876,Utility_discrimination_2024_2cat,2024.2.4,MacIntel,60.24096386,,,,,,,,4,"[0.5,0.5]","[0,1]",d,"[0.7878525602430813,0.5]","[0.21214743975691874,0.5]",225.7662,227.3796,0,s,0,0.0847,,1.114418458,1.428069821,0.313651363,227.3823,227.3824,0,126,126,126,1,0.28785256,0.28785256,shape_difference0,1,,TRUE,,intensity,0.1,0.05,0.7,0.3,0.82,20,400,1E-11,3.5,0.01,0.5,0.1,,,,,,,,,,,,,,,,,,,,,,,,,,,,,,,,,,,,,,,,,,,,,,,,,,,,,,,,,,,,,,,,,,,,,,,,,,,,,,,,,
,,,,,225967,001,2025-03-14_00h37.01.876,Utility_discrimination_2024_2cat,2024.2.4,MacIntel,60.24096386,,,,,,,,1,"[0.5,0.5]","[0.924,0.383]",d,"[0.5,1.7657433666145752]","[0.5,-0.7657433666145752]",227.3833,229.0631,1,d,1,0.1507,,0.813283924,1.153735585,0.34045166,229.0653,229.0654,0,127,127,127,1,1.265743367,1.265743367,shape_difference4,1,,TRUE,,intensity,0.1,0.05,0.7,0.3,0.82,20,400,1E-11,3.5,0.01,0.5,0.1,,,,,,,,,,,,,,,,,,,,,,,,,,,,,,,,,,,,,,,,,,,,,,,,,,,,,,,,,,,,,,,,,,,,,,,,,,,,,,,,,
,,,,,225967,001,2025-03-14_00h37.01.876,Utility_discrimination_2024_2cat,2024.2.4,MacIntel,60.24096386,,,,,,,,2,"[0.5,0.5]","[0.707,0.707]",d,"[1.3956273904193126,0.8712394919162302]","[-0.3956273904193125,0.12876050808376982]",229.0662,230.7954,0,d,0,0.2023,,0.956107929,1.290482465,0.334374536,230.7972,230.7973,0,128,128,128,1,0.969293713,0.969293713,shape_difference1,1,,TRUE,,intensity,0.1,0.05,0.7,0.3,0.82,20,400,1E-11,3.5,0.01,0.5,0.1,,,,,,,,,,,,,,,,,,,,,,,,,,,,,,,,,,,,,,,,,,,,,,,,,,,,,,,,,,,,,,,,,,,,,,,,,,,,,,,,,
,,,,,225967,001,2025-03-14_00h37.01.876,Utility_discrimination_2024_2cat,2024.2.4,MacIntel,60.24096386,,,,,,,,4,"[0.5,0.5]","[0,1]",s,"[1.291939104032484,1.291939104032484]","[-0.2919391040324839,-0.2919391040324839]",230.7981,232.4129,1,s,1,0.0838,,1.11189721,1.397445347,0.285548138,232.4151,232.4152,0,129,129,129,1,1.120140175,1.120140175,shape_difference2,1,,TRUE,,intensity,0.1,0.05,0.7,0.3,0.82,20,400,1E-11,3.5,0.01,0.5,0.1,,,,,,,,,,,,,,,,,,,,,,,,,,,,,,,,,,,,,,,,,,,,,,,,,,,,,,,,,,,,,,,,,,,,,,,,,,,,,,,,,
,,,,,225967,001,2025-03-14_00h37.01.876,Utility_discrimination_2024_2cat,2024.2.4,MacIntel,60.24096386,,,,,,,,3,"[0.5,0.5]","[0.383,0.924]",s,"[0.5,1.7547732555430415]","[0.5,-0.7547732555430415]",232.4162,234.0788,1,s,1,0.1335,,0.5408096,0.951733407,0.410923807,234.081,234.0811,0,130,130,130,1,1.254773256,1.254773256,shape_difference4,1,,TRUE,,intensity,0.1,0.05,0.7,0.3,0.82,20,400,1E-11,3.5,0.01,0.5,0.1,,,,,,,,,,,,,,,,,,,,,,,,,,,,,,,,,,,,,,,,,,,,,,,,,,,,,,,,,,,,,,,,,,,,,,,,,,,,,,,,,
,,,,,225967,001,2025-03-14_00h37.01.876,Utility_discrimination_2024_2cat,2024.2.4,MacIntel,60.24096386,,,,,,,,2,"[0.5,0.5]","[0.707,0.707]",s,"[0.7820275471663017,1.1804006620931145]","[0.21797245283369826,-0.18040066209311445]",234.082,235.713,1,d,1,0.1034,,0.94437994,1.275676637,0.331296697,235.7148,235.7149,0,131,131,131,1,0.736364353,0.736364353,shape_difference3,1,,TRUE,,intensity,0.1,0.05,0.7,0.3,0.82,20,400,1E-11,3.5,0.01,0.5,0.1,,,,,,,,,,,,,,,,,,,,,,,,,,,,,,,,,,,,,,,,,,,,,,,,,,,,,,,,,,,,,,,,,,,,,,,,,,,,,,,,,
,,,,,225967,001,2025-03-14_00h37.01.876,Utility_discrimination_2024_2cat,2024.2.4,MacIntel,60.24096386,,,,,,,,1,"[0.5,0.5]","[0.924,0.383]",d,"[1.2779556152805869,1.2779556152805869]","[-0.2779556152805869,-0.2779556152805869]",235.716,237.3288,1,s,1,0.0831,,0.862054149,1.20738764,0.345333491,237.3315,237.3316,0,132,132,132,1,1.100361549,1.100361549,shape_difference2,1,,TRUE,,intensity,0.1,0.05,0.7,0.3,0.82,20,400,1E-11,3.5,0.01,0.5,0.1,,,,,,,,,,,,,,,,,,,,,,,,,,,,,,,,,,,,,,,,,,,,,,,,,,,,,,,,,,,,,,,,,,,,,,,,,,,,,,,,,
,,,,,225967,001,2025-03-14_00h37.01.876,Utility_discrimination_2024_2cat,2024.2.4,MacIntel,60.24096386,,,,,,,,0,"[0.5,0.5]","[1,0]",s,"[1.4538405801759198,0.8953689850729191]","[-0.45384058017591966,0.10463101492708093]",237.3324,238.9631,0,d,0,0.1007,,0.206753168,0.534137308,0.32738414,238.9657,238.9658,0,133,133,133,1,1.032295,1.032295,shape_difference1,1,,TRUE,,intensity,0.1,0.05,0.7,0.3,0.82,20,400,1E-11,3.5,0.01,0.5,0.1,,,,,,,,,,,,,,,,,,,,,,,,,,,,,,,,,,,,,,,,,,,,,,,,,,,,,,,,,,,,,,,,,,,,,,,,,,,,,,,,,
,,,,,225967,001,2025-03-14_00h37.01.876,Utility_discrimination_2024_2cat,2024.2.4,MacIntel,60.24096386,,,,,,,,1,"[0.5,0.5]","[0.924,0.383]",s,"[0.8320527810130457,0.5]","[0.1679472189869543,0.5]",238.9667,240.6964,0,s,0,0.2009,,0.912151744,1.263290063,0.351138319,240.6986,240.6987,0,134,134,134,1,0.332052781,0.332052781,shape_difference0,1,,TRUE,,intensity,0.1,0.05,0.7,0.3,0.82,20,400,1E-11,3.5,0.01,0.5,0.1,,,,,,,,,,,,,,,,,,,,,,,,,,,,,,,,,,,,,,,,,,,,,,,,,,,,,,,,,,,,,,,,,,,,,,,,,,,,,,,,,
,,,,,225967,001,2025-03-14_00h37.01.876,Utility_discrimination_2024_2cat,2024.2.4,MacIntel,60.24096386,,,,,,,,2,"[0.5,0.5]","[0.707,0.707]",d,"[1.4918564575800146,0.9111266485423652]","[-0.4918564575800145,0.0888733514576347]",240.6996,242.3963,0,d,0,0.1661,,0.93580505,1.256632135,0.320827085,242.399,242.3991,0,135,135,135,1,1.073437725,1.073437725,shape_difference1,1,,TRUE,,intensity,0.1,0.05,0.7,0.3,0.82,20,400,1E-11,3.5,0.01,0.5,0.1,,,,,,,,,,,,,,,,,,,,,,,,,,,,,,,,,,,,,,,,,,,,,,,,,,,,,,,,,,,,,,,,,,,,,,,,,,,,,,,,,
,,,,,225967,001,2025-03-14_00h37.01.876,Utility_discrimination_2024_2cat,2024.2.4,MacIntel,60.24096386,,,,,,,,0,"[0.5,0.5]","[1,0]",s,"[1.26951741907789,1.26951741907789]","[-0.26951741907788995,-0.26951741907788995]",242.3999,243.9464,0,d,0,0.0162,,0.215030912,0.592625594,0.377594682,243.9486,243.9487,0,136,136,136,1,1.088426335,1.088426335,shape_difference2,1,,TRUE,,intensity,0.1,0.05,0.7,0.3,0.82,20,400,1E-11,3.5,0.01,0.5,0.1,,,,,,,,,,,,,,,,,,,,,,,,,,,,,,,,,,,,,,,,,,,,,,,,,,,,,,,,,,,,,,,,,,,,,,,,,,,,,,,,,
,,,,,225967,001,2025-03-14_00h37.01.876,Utility_discrimination_2024_2cat,2024.2.4,MacIntel,60.24096386,,,,,,,,4,"[0.5,0.5]","[0,1]",s,"[0.8682187072474904,0.5]","[0.1317812927525096,0.5]",243.9495,245.6129,0,d,0,0.1315,,1.109931036,1.386591831,0.276660795,245.6148,245.6149,0,137,137,137,1,0.368218707,0.368218707,shape_difference0,1,,TRUE,,intensity,0.1,0.05,0.7,0.3,0.82,20,400,1E-11,3.5,0.01,0.5,0.1,,,,,,,,,,,,,,,,,,,,,,,,,,,,,,,,,,,,,,,,,,,,,,,,,,,,,,,,,,,,,,,,,,,,,,,,,,,,,,,,,
,,,,,225967,001,2025-03-14_00h37.01.876,Utility_discrimination_2024_2cat,2024.2.4,MacIntel,60.24096386,,,,,,,,3,"[0.5,0.5]","[0.383,0.924]",s,"[0.5,1.7445718958627427]","[0.5,-0.7445718958627427]",245.6159,247.2954,1,d,1,0.1486,,0.531046893,0.914932323,0.38388543,247.2975,247.2975,0,138,138,138,1,1.244571896,1.244571896,shape_difference4,1,,TRUE,,intensity,0.1,0.05,0.7,0.3,0.82,20,400,1E-11,3.5,0.01,0.5,0.1,,,,,,,,,,,,,,,,,,,,,,,,,,,,,,,,,,,,,,,,,,,,,,,,,,,,,,,,,,,,,,,,,,,,,,,,,,,,,,,,,
,,,,,225967,001,2025-03-14_00h37.01.876,Utility_discrimination_2024_2cat,2024.2.4,MacIntel,60.24096386,,,,,,,,3,"[0.5,0.5]","[0.383,0.924]",d,"[0.7732429934851726,1.1592076396352469]","[0.2267570065148274,-0.15920763963524676]",247.2984,248.8464,1,s,1,0.0178,,0.524094906,0.887815225,0.363720319,248.849,248.8491,0,139,139,139,1,0.713428181,0.713428181,shape_difference3,1,,TRUE,,intensity,0.1,0.05,0.7,0.3,0.82,20,400,1E-11,3.5,0.01,0.5,0.1,,,,,,,,,,,,,,,,,,,,,,,,,,,,,,,,,,,,,,,,,,,,,,,,,,,,,,,,,,,,,,,,,,,,,,,,,,,,,,,,,
,,,,,225967,001,2025-03-14_00h37.01.876,Utility_discrimination_2024_2cat,2024.2.4,MacIntel,60.24096386,,,,,,,,4,"[0.5,0.5]","[0,1]",s,"[0.7653043743942893,1.1400554619851786]","[0.2346956256057106,-0.1400554619851786]",248.85,250.3797,1,s,1,0.0088,,1.107869196,1.37619896,0.268329764,250.382,250.382,0,140,140,140,1,0.692700716,0.692700716,shape_difference3,1,,TRUE,,intensity,0.1,0.05,0.7,0.3,0.82,20,400,1E-11,3.5,0.01,0.5,0.1,,,,,,,,,,,,,,,,,,,,,,,,,,,,,,,,,,,,,,,,,,,,,,,,,,,,,,,,,,,,,,,,,,,,,,,,,,,,,,,,,
,,,,,225967,001,2025-03-14_00h37.01.876,Utility_discrimination_2024_2cat,2024.2.4,MacIntel,60.24096386,,,,,,,,0,"[0.5,0.5]","[1,0]",s,"[0.5,1.7338153681337576]","[0.5,-0.7338153681337576]",250.383,251.9631,1,d,1,0.0501,,0.258581643,0.695368736,0.436787093,251.9657,251.9658,0,141,141,141,1,1.233815368,1.233815368,shape_difference4,1,,TRUE,,intensity,0.1,0.05,0.7,0.3,0.82,20,400,1E-11,3.5,0.01,0.5,0.1,,,,,,,,,,,,,,,,,,,,,,,,,,,,,,,,,,,,,,,,,,,,,,,,,,,,,,,,,,,,,,,,,,,,,,,,,,,,,,,,,
,,,,,225967,001,2025-03-14_00h37.01.876,Utility_discrimination_2024_2cat,2024.2.4,MacIntel,60.24096386,,,,,,,,2,"[0.5,0.5]","[0.707,0.707]",d,"[0.943026681812448,0.5]","[0.056973318187552024,0.5]",251.9668,253.53,0,d,0,0.0444,,1.004017595,1.293478011,0.289460417,253.532,253.5321,0,142,142,142,1,0.443026682,0.443026682,shape_difference0,1,,TRUE,,intensity,0.1,0.05,0.7,0.3,0.82,20,400,1E-11,3.5,0.01,0.5,0.1,,,,,,,,,,,,,,,,,,,,,,,,,,,,,,,,,,,,,,,,,,,,,,,,,,,,,,,,,,,,,,,,,,,,,,,,,,,,,,,,,
,,,,,225967,001,2025-03-14_00h37.01.876,Utility_discrimination_2024_2cat,2024.2.4,MacIntel,60.24096386,,,,,,,,1,"[0.5,0.5]","[0.924,0.383]",s,"[1.3036759520012073,1.3036759520012073]","[-0.30367595200120734,-0.30367595200120734]",253.5329,255.1458,0,d,0,0.0837,,0.964862416,1.318246334,0.353383917,255.1488,255.149,0,143,143,143,1,1.136741092,1.136741092,shape_difference2,1,,TRUE,,intensity,0.1,0.05,0.7,0.3,0.82,20,400,1E-11,3.5,0.01,0.5,0.1,,,,,,,,,,,,,,,,,,,,,,,,,,,,,,,,,,,,,,,,,,,,,,,,,,,,,,,,,,,,,,,,,,,,,,,,,,,,,,,,,
,,,,,225967,001,2025-03-14_00h37.01.876,Utility_discrimination_2024_2cat,2024.2.4,MacIntel,60.24096386,,,,,,,,4,"[0.5,0.5]","[0,1]",s,"[1.5538121468738635,0.9368074158578893]","[-0.5538121468738635,0.06319258414211071]",255.15,256.9798,0,d,0,0.3094,,1.106079519,1.363335546,0.257256027,256.9818,256.9819,0,144,144,144,1,1.140489336,1.140489336,shape_difference1,1,,TRUE,,intensity,0.1,0.05,0.7,0.3,0.82,20,400,1E-11,3.5,0.01,0.5,0.1,,,,,,,,,,,,,,,,,,,,,,,,,,,,,,,,,,,,,,,,,,,,,,,,,,,,,,,,,,,,,,,,,,,,,,,,,,,,,,,,,
,,,,,225967,001,2025-03-14_00h37.01.876,Utility_discrimination_2024_2cat,2024.2.4,MacIntel,60.24096386,,,,,,,,0,"[0.5,0.5]","[1,0]",s,"[0.5,1.7220026827726502]","[0.5,-0.7220026827726502]",256.983,258.663,1,s,1,0.1581,,0.31316833,0.768102598,0.454934267,258.6649,258.665,0,145,145,145,1,1.222002683,1.222002683,shape_difference4,1,,TRUE,,intensity,0.1,0.05,0.7,0.3,0.82,20,400,1E-11,3.5,0.01,0.5,0.1,,,,,,,,,,,,,,,,,,,,,,,,,,,,,,,,,,,,,,,,,,,,,,,,,,,,,,,,,,,,,,,,,,,,,,,,,,,,,,,,,
,,,,,225967,001,2025-03-14_00h37.01.876,Utility_discrimination_2024_2cat,2024.2.4,MacIntel,60.24096386,,,,,,,,2,"[0.5,0.5]","[0.707,0.707]",s,"[0.9970889706735293,0.5]","[0.0029110293264706932,0.5]",258.6659,260.2298,1,s,1,0.0362,,1.015542698,1.338802857,0.323260159,260.2322,260.2323,0,146,146,146,1,0.497088971,0.497088971,shape_difference0,1,,TRUE,,intensity,0.1,0.05,0.7,0.3,0.82,20,400,1E-11,3.5,0.01,0.5,0.1,,,,,,,,,,,,,,,,,,,,,,,,,,,,,,,,,,,,,,,,,,,,,,,,,,,,,,,,,,,,,,,,,,,,,,,,,,,,,,,,,
,,,,,225967,001,2025-03-14_00h37.01.876,Utility_discrimination_2024_2cat,2024.2.4,MacIntel,60.24096386,,,,,,,,3,"[0.5,0.5]","[0.383,0.924]",s,"[1.3259943390848479,1.3259943390848479]","[-0.3259943390848479,-0.3259943390848479]",260.2332,261.8117,1,d,1,0.0507,,0.519027045,0.86568874,0.346661695,261.8127,261.8127,0,147,147,147,1,1.168308825,1.168308825,shape_difference2,1,,TRUE,,intensity,0.1,0.05,0.7,0.3,0.82,20,400,1E-11,3.5,0.01,0.5,0.1,,,,,,,,,,,,,,,,,,,,,,,,,,,,,,,,,,,,,,,,,,,,,,,,,,,,,,,,,,,,,,,,,,,,,,,,,,,,,,,,,
,,,,,225967,001,2025-03-14_00h37.01.876,Utility_discrimination_2024_2cat,2024.2.4,MacIntel,60.24096386,,,,,,,,1,"[0.5,0.5]","[0.924,0.383]",d,"[0.7600981119314507,1.127495183876398]","[0.23990188806854928,-0.12749518387639802]",261.8131,263.4304,1,d,1,0.0953,,1.013866177,1.366618023,0.352751846,263.4324,263.4325,0,148,148,148,1,0.679107342,0.679107342,shape_difference3,1,,TRUE,,intensity,0.1,0.05,0.7,0.3,0.82,20,400,1E-11,3.5,0.01,0.5,0.1,,,,,,,,,,,,,,,,,,,,,,,,,,,,,,,,,,,,,,,,,,,,,,,,,,,,,,,,,,,,,,,,,,,,,,,,,,,,,,,,,
,,,,,225967,001,2025-03-14_00h37.01.876,Utility_discrimination_2024_2cat,2024.2.4,MacIntel,60.24096386,,,,,,,,1,"[0.5,0.5]","[0.924,0.383]",d,"[1.5899910374020765,0.9518036442911204]","[-0.5899910374020765,0.04819635570887959]",263.4334,265.1291,0,d,0,0.1769,,1.074448567,1.414669332,0.340220765,265.1312,265.1314,0,149,149,149,1,1.17964398,1.17964398,shape_difference1,1,,TRUE,,intensity,0.1,0.05,0.7,0.3,0.82,20,400,1E-11,3.5,0.01,0.5,0.1,,,,,,,,,,,,,,,,,,,,,,,,,,,,,,,,,,,,,,,,,,,,,,,,,,,,,,,,,,,,,,,,,,,,,,,,,,,,,,,,,
,,,,,225967,001,2025-03-14_00h37.01.876,Utility_discrimination_2024_2cat,2024.2.4,MacIntel,60.24096386,,,,,,,,0,"[0.5,0.5]","[1,0]",s,"[1.6500362969581268,0.9766925343451975]","[-0.6500362969581268,0.023307465654802406]",265.1322,266.9136,0,s,0,0.2613,,0.309347098,0.721886505,0.412539407,266.9158,266.9158,0,150,150,150,1,1.244628027,1.244628027,shape_difference1,1,,TRUE,,intensity,0.1,0.05,0.7,0.3,0.82,20,400,1E-11,3.5,0.01,0.5,0.1,,,,,,,,,,,,,,,,,,,,,,,,,,,,,,,,,,,,,,,,,,,,,,,,,,,,,,,,,,,,,,,,,,,,,,,,,,,,,,,,,
,,,,,225967,001,2025-03-14_00h37.01.876,Utility_discrimination_2024_2cat,2024.2.4,MacIntel,60.24096386,,,,,,,,4,"[0.5,0.5]","[0,1]",d,"[0.9749088663349923,0.5]","[0.025091133665007703,0.5]",266.9169,268.463,1,d,1,0.0261,,1.104469913,1.347015266,0.242545353,268.4649,268.465,0,151,151,151,1,0.474908866,0.474908866,shape_difference0,1,,TRUE,,intensity,0.1,0.05,0.7,0.3,0.82,20,400,1E-11,3.5,0.01,0.5,0.1,,,,,,,,,,,,,,,,,,,,,,,,,,,,,,,,,,,,,,,,,,,,,,,,,,,,,,,,,,,,,,,,,,,,,,,,,,,,,,,,,
,,,,,225967,001,2025-03-14_00h37.01.876,Utility_discrimination_2024_2cat,2024.2.4,MacIntel,60.24096386,,,,,,,,2,"[0.5,0.5]","[0.707,0.707]",d,"[0.5,1.7087071470709363]","[0.5,-0.7087071470709363]",268.4659,270.9122,1,d,1,0.9269,,1.012902041,1.302855748,0.289953706,270.9139,270.914,0,152,152,152,1,1.208707147,1.208707147,shape_difference4,1,,TRUE,,intensity,0.1,0.05,0.7,0.3,0.82,20,400,1E-11,3.5,0.01,0.5,0.1,,,,,,,,,,,,,,,,,,,,,,,,,,,,,,,,,,,,,,,,,,,,,,,,,,,,,,,,,,,,,,,,,,,,,,,,,,,,,,,,,
,,,,,225967,001,2025-03-14_00h37.01.876,Utility_discrimination_2024_2cat,2024.2.4,MacIntel,60.24096386,,,,,,,,3,"[0.5,0.5]","[0.383,0.924]",d,"[1.3180535903917705,1.3180535903917705]","[-0.3180535903917706,-0.3180535903917706]",270.915,273.4965,0,d,0,1.0498,,0.515244045,0.836180379,0.320936334,273.4988,273.4989,0,153,153,153,1,1.157077214,1.157077214,shape_difference2,1,,TRUE,,intensity,0.1,0.05,0.7,0.3,0.82,20,400,1E-11,3.5,0.01,0.5,0.1,,,,,,,,,,,,,,,,,,,,,,,,,,,,,,,,,,,,,,,,,,,,,,,,,,,,,,,,,,,,,,,,,,,,,,,,,,,,,,,,,
,,,,,225967,001,2025-03-14_00h37.01.876,Utility_discrimination_2024_2cat,2024.2.4,MacIntel,60.24096386,,,,,,,,4,"[0.5,0.5]","[0,1]",s,"[0.755686439553557,1.116851880280644]","[0.24431356044644298,-0.11685188028064408]",273.4998,275.1298,0,d,0,0.1087,,1.10296723,1.325875499,0.222908269,275.1316,275.1317,0,154,154,154,1,0.667588615,0.667588615,shape_difference3,1,,TRUE,,intensity,0.1,0.05,0.7,0.3,0.82,20,400,1E-11,3.5,0.01,0.5,0.1,,,,,,,,,,,,,,,,,,,,,,,,,,,,,,,,,,,,,,,,,,,,,,,,,,,,,,,,,,,,,,,,,,,,,,,,,,,,,,,,,
,,,,,225967,001,2025-03-14_00h37.01.876,Utility_discrimination_2024_2cat,2024.2.4,MacIntel,60.24096386,,,,,,,,3,"[0.5,0.5]","[0.383,0.924]",s,"[0.5,1.6963153496122687]","[0.5,-0.6963153496122687]",275.1326,276.7298,1,s,1,0.076,,0.56723549,0.895492428,0.328256938,276.7317,276.7318,0,155,155,155,1,1.19631535,1.19631535,shape_difference4,1,,TRUE,,intensity,0.1,0.05,0.7,0.3,0.82,20,400,1E-11,3.5,0.01,0.5,0.1,,,,,,,,,,,,,,,,,,,,,,,,,,,,,,,,,,,,,,,,,,,,,,,,,,,,,,,,,,,,,,,,,,,,,,,,,,,,,,,,,
,,,,,225967,001,2025-03-14_00h37.01.876,Utility_discrimination_2024_2cat,2024.2.4,MacIntel,60.24096386,,,,,,,,0,"[0.5,0.5]","[1,0]",s,"[0.7757320877090981,1.1652126606872235]","[0.22426791229090193,-0.1652126606872235]",276.7327,279.0123,0,d,0,0.7495,,0.306559019,0.680714131,0.374155112,279.0145,279.0146,0,156,156,156,1,0.719927122,0.719927122,shape_difference3,1,,TRUE,,intensity,0.1,0.05,0.7,0.3,0.82,20,400,1E-11,3.5,0.01,0.5,0.1,,,,,,,,,,,,,,,,,,,,,,,,,,,,,,,,,,,,,,,,,,,,,,,,,,,,,,,,,,,,,,,,,,,,,,,,,,,,,,,,,
,,,,,225967,001,2025-03-14_00h37.01.876,Utility_discrimination_2024_2cat,2024.2.4,MacIntel,60.24096386,,,,,,,,2,"[0.5,0.5]","[0.707,0.707]",s,"[0.9562784906605771,0.5]","[0.04372150933942287,0.5]",279.0155,280.5632,0,s,0,0.0172,,1.049592174,1.377566866,0.327974692,280.5659,280.5659,0,157,157,157,1,0.456278491,0.456278491,shape_difference0,1,,TRUE,,intensity,0.1,0.05,0.7,0.3,0.82,20,400,1E-11,3.5,0.01,0.5,0.1,,,,,,,,,,,,,,,,,,,,,,,,,,,,,,,,,,,,,,,,,,,,,,,,,,,,,,,,,,,,,,,,,,,,,,,,,,,,,,,,,
,,,,,225967,001,2025-03-14_00h37.01.876,Utility_discrimination_2024_2cat,2024.2.4,MacIntel,60.24096386,,,,,,,,1,"[0.5,0.5]","[0.924,0.383]",d,"[1.3531932199427792,1.3531932199427792]","[-0.3531932199427791,-0.3531932199427791]",280.5668,282.13,1,d,1,0.0334,,1.115432506,1.461965068,0.346532562,282.1325,282.1326,0,158,158,158,1,1.20677966,1.20677966,shape_difference2,1,,TRUE,,intensity,0.1,0.05,0.7,0.3,0.82,20,400,1E-11,3.5,0.01,0.5,0.1,,,,,,,,,,,,,,,,,,,,,,,,,,,,,,,,,,,,,,,,,,,,,,,,,,,,,,,,,,,,,,,,,,,,,,,,,,,,,,,,,
,,,,,225967,001,2025-03-14_00h37.01.876,Utility_discrimination_2024_2cat,2024.2.4,MacIntel,60.24096386,,,,,,,,2,"[0.5,0.5]","[0.707,0.707]",d,"[1.6834463356911549,0.9905410677161388]","[-0.6834463356911549,0.009458932283861132]",282.1335,283.829,1,d,1,0.1671,,1.039803306,1.360104355,0.320301048,283.8311,283.8313,0,159,159,159,1,1.280786078,1.280786078,shape_difference1,1,,TRUE,,intensity,0.1,0.05,0.7,0.3,0.82,20,400,1E-11,3.5,0.01,0.5,0.1,,,,,,,,,,,,,,,,,,,,,,,,,,,,,,,,,,,,,,,,,,,,,,,,,,,,,,,,,,,,,,,,,,,,,,,,,,,,,,,,,
,,,,,225967,001,2025-03-14_00h37.01.876,Utility_discrimination_2024_2cat,2024.2.4,MacIntel,60.24096386,,,,,,,,3,"[0.5,0.5]","[0.383,0.924]",d,"[1.3428032328226833,1.3428032328226833]","[-0.34280323282268343,-0.34280323282268343]",283.8322,285.4636,1,s,1,0.1115,,0.61070086,0.957207778,0.346506918,285.4655,285.4657,0,160,160,160,1,1.192083781,1.192083781,shape_difference2,1,,TRUE,,intensity,0.1,0.05,0.7,0.3,0.82,20,400,1E-11,3.5,0.01,0.5,0.1,,,,,,,,,,,,,,,,,,,,,,,,,,,,,,,,,,,,,,,,,,,,,,,,,,,,,,,,,,,,,,,,,,,,,,,,,,,,,,,,,
,,,,,225967,001,2025-03-14_00h37.01.876,Utility_discrimination_2024_2cat,2024.2.4,MacIntel,60.24096386,,,,,,,,0,"[0.5,0.5]","[1,0]",s,"[0.792073561921513,1.204637000562606]","[0.20792643807848699,-0.2046370005626058]",285.4666,287.1957,0,d,0,0.1988,,0.344493548,0.783862314,0.439368766,287.1982,287.1983,0,161,161,161,1,0.762594156,0.762594156,shape_difference3,1,,TRUE,,intensity,0.1,0.05,0.7,0.3,0.82,20,400,1E-11,3.5,0.01,0.5,0.1,,,,,,,,,,,,,,,,,,,,,,,,,,,,,,,,,,,,,,,,,,,,,,,,,,,,,,,,,,,,,,,,,,,,,,,,,,,,,,,,,
,,,,,225967,001,2025-03-14_00h37.01.876,Utility_discrimination_2024_2cat,2024.2.4,MacIntel,60.24096386,,,,,,,,1,"[0.5,0.5]","[0.924,0.383]",s,"[1.040923386332274,0.5]","[-0.04092338633227399,0.5]",287.1991,288.8956,0,d,0,0.168,,1.111906996,1.436201437,0.324294441,288.8973,288.8974,0,162,162,162,1,0.540923386,0.540923386,shape_difference0,1,,TRUE,,intensity,0.1,0.05,0.7,0.3,0.82,20,400,1E-11,3.5,0.01,0.5,0.1,,,,,,,,,,,,,,,,,,,,,,,,,,,,,,,,,,,,,,,,,,,,,,,,,,,,,,,,,,,,,,,,,,,,,,,,,,,,,,,,,
,,,,,225967,001,2025-03-14_00h37.01.876,Utility_discrimination_2024_2cat,2024.2.4,MacIntel,60.24096386,,,,,,,,4,"[0.5,0.5]","[0,1]",s,"[1.6710825351575735,0.9854162456334965]","[-0.6710825351575735,0.014583754366503554]",288.8982,290.4636,0,s,0,0.0447,,1.101511366,1.299708842,0.198197475,290.4653,290.4654,0,163,163,163,1,1.267405341,1.267405341,shape_difference1,1,,TRUE,,intensity,0.1,0.05,0.7,0.3,0.82,20,400,1E-11,3.5,0.01,0.5,0.1,,,,,,,,,,,,,,,,,,,,,,,,,,,,,,,,,,,,,,,,,,,,,,,,,,,,,,,,,,,,,,,,,,,,,,,,,,,,,,,,,
,,,,,225967,001,2025-03-14_00h37.01.876,Utility_discrimination_2024_2cat,2024.2.4,MacIntel,60.24096386,,,,,,,,3,"[0.5,0.5]","[0.383,0.924]",d,"[0.5,1.6885809426675424]","[0.5,-0.6885809426675424]",290.4663,292.18,0,d,0,0.1828,,0.65231509,1.03179121,0.37947612,292.1826,292.1827,0,164,164,164,1,1.188580943,1.188580943,shape_difference4,1,,TRUE,,intensity,0.1,0.05,0.7,0.3,0.82,20,400,1E-11,3.5,0.01,0.5,0.1,,,,,,,,,,,,,,,,,,,,,,,,,,,,,,,,,,,,,,,,,,,,,,,,,,,,,,,,,,,,,,,,,,,,,,,,,,,,,,,,,
,,,,,225967,001,2025-03-14_00h37.01.876,Utility_discrimination_2024_2cat,2024.2.4,MacIntel,60.24096386,,,,,,,,0,"[0.5,0.5]","[1,0]",s,"[0.818155877264248,1.2675614375774549]","[0.181844122735752,-0.26756143757745476]",292.1835,293.7966,0,d,0,0.0845,,0.411462735,0.849673732,0.438210997,293.7989,293.799,0,165,165,165,1,0.830694197,0.830694197,shape_difference3,1,,TRUE,,intensity,0.1,0.05,0.7,0.3,0.82,20,400,1E-11,3.5,0.01,0.5,0.1,,,,,,,,,,,,,,,,,,,,,,,,,,,,,,,,,,,,,,,,,,,,,,,,,,,,,,,,,,,,,,,,,,,,,,,,,,,,,,,,,
,,,,,225967,001,2025-03-14_00h37.01.876,Utility_discrimination_2024_2cat,2024.2.4,MacIntel,60.24096386,,,,,,,,1,"[0.5,0.5]","[0.924,0.383]",s,"[1.0961205928396638,0.5]","[-0.09612059283966379,0.5]",293.7999,295.3798,1,d,1,0.0532,,1.160594641,1.488871115,0.328276474,295.3817,295.3817,0,166,166,166,1,0.596120593,0.596120593,shape_difference0,1,,TRUE,,intensity,0.1,0.05,0.7,0.3,0.82,20,400,1E-11,3.5,0.01,0.5,0.1,,,,,,,,,,,,,,,,,,,,,,,,,,,,,,,,,,,,,,,,,,,,,,,,,,,,,,,,,,,,,,,,,,,,,,,,,,,,,,,,,
,,,,,225967,001,2025-03-14_00h37.01.876,Utility_discrimination_2024_2cat,2024.2.4,MacIntel,60.24096386,,,,,,,,4,"[0.5,0.5]","[0,1]",d,"[1.7258876739211808,1.008133094276853]","[-0.7258876739211808,-0.008133094276853048]",295.3826,297.0967,1,d,1,0.1866,,1.108207602,1.352287158,0.244079556,297.0992,297.0993,0,167,167,167,1,1.326718262,1.326718262,shape_difference1,1,,TRUE,,intensity,0.1,0.05,0.7,0.3,0.82,20,400,1E-11,3.5,0.01,0.5,0.1,,,,,,,,,,,,,,,,,,,,,,,,,,,,,,,,,,,,,,,,,,,,,,,,,,,,,,,,,,,,,,,,,,,,,,,,,,,,,,,,,
,,,,,225967,001,2025-03-14_00h37.01.876,Utility_discrimination_2024_2cat,2024.2.4,MacIntel,60.24096386,,,,,,,,2,"[0.5,0.5]","[0.707,0.707]",d,"[0.5,1.7213781567996493]","[0.5,-0.7213781567996493]",297.1001,298.647,0,d,0,0.0278,,1.032542137,1.337061526,0.304519389,298.6493,298.6494,0,168,168,168,1,1.221378157,1.221378157,shape_difference4,1,,TRUE,,intensity,0.1,0.05,0.7,0.3,0.82,20,400,1E-11,3.5,0.01,0.5,0.1,,,,,,,,,,,,,,,,,,,,,,,,,,,,,,,,,,,,,,,,,,,,,,,,,,,,,,,,,,,,,,,,,,,,,,,,,,,,,,,,,
,,,,,225967,001,2025-03-14_00h37.01.876,Utility_discrimination_2024_2cat,2024.2.4,MacIntel,60.24096386,,,,,,,,3,"[0.5,0.5]","[0.383,0.924]",s,"[1.335635803220843,1.335635803220843]","[-0.3356358032208432,-0.3356358032208432]",298.6502,300.23,1,d,1,0.0549,,0.711028819,1.082148004,0.371119185,300.2326,300.2328,0,169,169,169,1,1.181945973,1.181945973,shape_difference2,1,,TRUE,,intensity,0.1,0.05,0.7,0.3,0.82,20,400,1E-11,3.5,0.01,0.5,0.1,,,,,,,,,,,,,,,,,,,,,,,,,,,,,,,,,,,,,,,,,,,,,,,,,,,,,,,,,,,,,,,,,,,,,,,,,,,,,,,,,
,,,,,225967,001,2025-03-14_00h37.01.876,Utility_discrimination_2024_2cat,2024.2.4,MacIntel,60.24096386,,,,,,,,0,"[0.5,0.5]","[1,0]",d,"[0.8360050629516717,1.310623180593589]","[0.16399493704832835,-0.31062318059358907]",300.2338,301.8967,1,d,1,0.1406,,0.407458401,0.799877562,0.392419162,301.8984,301.8985,0,170,170,170,1,0.877297814,0.877297814,shape_difference3,1,,TRUE,,intensity,0.1,0.05,0.7,0.3,0.82,20,400,1E-11,3.5,0.01,0.5,0.1,,,,,,,,,,,,,,,,,,,,,,,,,,,,,,,,,,,,,,,,,,,,,,,,,,,,,,,,,,,,,,,,,,,,,,,,,,,,,,,,,
,,,,,225967,001,2025-03-14_00h37.01.876,Utility_discrimination_2024_2cat,2024.2.4,MacIntel,60.24096386,,,,,,,,1,"[0.5,0.5]","[0.924,0.383]",d,"[1.0748858902725231,0.5]","[-0.07488589027252313,0.5]",301.8994,303.4295,0,d,0,0.0027,,1.147534838,1.475635358,0.32810052,303.4305,303.4305,0,171,171,171,1,0.57488589,0.57488589,shape_difference0,1,,TRUE,,intensity,0.1,0.05,0.7,0.3,0.82,20,400,1E-11,3.5,0.01,0.5,0.1,,,,,,,,,,,,,,,,,,,,,,,,,,,,,,,,,,,,,,,,,,,,,,,,,,,,,,,,,,,,,,,,,,,,,,,,,,,,,,,,,
,,,,,225967,001,2025-03-14_00h37.01.876,Utility_discrimination_2024_2cat,2024.2.4,MacIntel,60.24096386,,,,,,,,2,"[0.5,0.5]","[0.707,0.707]",s,"[1.7094122904190683,1.001304012154224]","[-0.7094122904190683,-0.0013040121542241545]",303.4311,305.0134,1,d,1,0.0505,,1.027061824,1.305868142,0.278806318,305.0158,305.0159,0,172,172,172,1,1.30888776,1.30888776,shape_difference1,1,,TRUE,,intensity,0.1,0.05,0.7,0.3,0.82,20,400,1E-11,3.5,0.01,0.5,0.1,,,,,,,,,,,,,,,,,,,,,,,,,,,,,,,,,,,,,,,,,,,,,,,,,,,,,,,,,,,,,,,,,,,,,,,,,,,,,,,,,
,,,,,225967,001,2025-03-14_00h37.01.876,Utility_discrimination_2024_2cat,2024.2.4,MacIntel,60.24096386,,,,,,,,4,"[0.5,0.5]","[0,1]",d,"[1.3295968470750998,1.3295968470750998]","[-0.32959684707509995,-0.32959684707509995]",305.0167,306.597,1,d,1,0.0616,,1.113843506,1.378732299,0.264888792,306.5989,306.5991,0,173,173,173,1,1.17340431,1.17340431,shape_difference2,1,,TRUE,,intensity,0.1,0.05,0.7,0.3,0.82,20,400,1E-11,3.5,0.01,0.5,0.1,,,,,,,,,,,,,,,,,,,,,,,,,,,,,,,,,,,,,,,,,,,,,,,,,,,,,,,,,,,,,,,,,,,,,,,,,,,,,,,,,
,,,,,225967,001,2025-03-14_00h37.01.876,Utility_discrimination_2024_2cat,2024.2.4,MacIntel,60.24096386,,,,,,,,4,"[0.5,0.5]","[0,1]",d,"[0.5,1.7478001254877031]","[0.5,-0.7478001254877031]",306.5998,308.1632,1,d,1,0.0437,,1.111944404,1.368500574,0.25655617,308.165,308.1651,0,174,174,174,1,1.247800125,1.247800125,shape_difference4,1,,TRUE,,intensity,0.1,0.05,0.7,0.3,0.82,20,400,1E-11,3.5,0.01,0.5,0.1,,,,,,,,,,,,,,,,,,,,,,,,,,,,,,,,,,,,,,,,,,,,,,,,,,,,,,,,,,,,,,,,,,,,,,,,,,,,,,,,,
,,,,,225967,001,2025-03-14_00h37.01.876,Utility_discrimination_2024_2cat,2024.2.4,MacIntel,60.24096386,,,,,,,,1,"[0.5,0.5]","[0.924,0.383]",d,"[0.5,1.7395982078012069]","[0.5,-0.7395982078012069]",308.1658,309.7637,1,d,1,0.0779,,1.138013419,1.458610898,0.320597479,309.7659,309.766,0,175,175,175,1,1.239598208,1.239598208,shape_difference4,1,,TRUE,,intensity,0.1,0.05,0.7,0.3,0.82,20,400,1E-11,3.5,0.01,0.5,0.1,,,,,,,,,,,,,,,,,,,,,,,,,,,,,,,,,,,,,,,,,,,,,,,,,,,,,,,,,,,,,,,,,,,,,,,,,,,,,,,,,
,,,,,225967,001,2025-03-14_00h37.01.876,Utility_discrimination_2024_2cat,2024.2.4,MacIntel,60.24096386,,,,,,,,2,"[0.5,0.5]","[0.707,0.707]",d,"[1.6950018810899694,0.9953308662959506]","[-0.6950018810899694,0.004669133704049477]",309.7668,311.4635,1,d,1,0.1669,,1.022856487,1.293397601,0.270541114,311.4657,311.4658,0,176,176,176,1,1.293292079,1.293292079,shape_difference1,1,,TRUE,,intensity,0.1,0.05,0.7,0.3,0.82,20,400,1E-11,3.5,0.01,0.5,0.1,,,,,,,,,,,,,,,,,,,,,,,,,,,,,,,,,,,,,,,,,,,,,,,,,,,,,,,,,,,,,,,,,,,,,,,,,,,,,,,,,
,,,,,225967,001,2025-03-14_00h37.01.876,Utility_discrimination_2024_2cat,2024.2.4,MacIntel,60.24096386,,,,,,,,0,"[0.5,0.5]","[1,0]",d,"[1.3243563639606974,1.3243563639606974]","[-0.32435636396069745,-0.32435636396069745]",311.4665,313.1134,0,d,0,0.1169,,0.46092277,0.891628875,0.430706105,313.1155,313.1157,0,177,177,177,1,1.165992028,1.165992028,shape_difference2,1,,TRUE,,intensity,0.1,0.05,0.7,0.3,0.82,20,400,1E-11,3.5,0.01,0.5,0.1,,,,,,,,,,,,,,,,,,,,,,,,,,,,,,,,,,,,,,,,,,,,,,,,,,,,,,,,,,,,,,,,,,,,,,,,,,,,,,,,,
,,,,,225967,001,2025-03-14_00h37.01.876,Utility_discrimination_2024_2cat,2024.2.4,MacIntel,60.24096386,,,,,,,,3,"[0.5,0.5]","[0.383,0.924]",s,"[1.160381516342578,0.5]","[-0.1603815163425779,0.5]",313.1165,314.9633,0,s,0,0.3256,,0.707952362,1.056019835,0.348067473,314.9652,314.9653,0,178,178,178,1,0.660381516,0.660381516,shape_difference0,1,,TRUE,,intensity,0.1,0.05,0.7,0.3,0.82,20,400,1E-11,3.5,0.01,0.5,0.1,,,,,,,,,,,,,,,,,,,,,,,,,,,,,,,,,,,,,,,,,,,,,,,,,,,,,,,,,,,,,,,,,,,,,,,,,,,,,,,,,
,,,,,225967,001,2025-03-14_00h37.01.876,Utility_discrimination_2024_2cat,2024.2.4,MacIntel,60.24096386,,,,,,,,0,"[0.5,0.5]","[1,0]",d,"[0.8299217493276261,1.2959469879340118]","[0.17007825067237398,-0.29594698793401164]",314.966,316.497,0,s,0,0.0114,,0.548369262,0.986065447,0.437696184,316.4988,316.4989,0,179,179,179,1,0.861414489,0.861414489,shape_difference3,1,,TRUE,,intensity,0.1,0.05,0.7,0.3,0.82,20,400,1E-11,3.5,0.01,0.5,0.1,,,,,,,,,,,,,,,,,,,,,,,,,,,,,,,,,,,,,,,,,,,,,,,,,,,,,,,,,,,,,,,,,,,,,,,,,,,,,,,,,
,,,,,225967,001,2025-03-14_00h37.01.876,Utility_discrimination_2024_2cat,2024.2.4,MacIntel,60.24096386,,,,,,,,4,"[0.5,0.5]","[0,1]",d,"[1.2594758464883768,0.5]","[-0.25947584648837685,0.5]",316.4998,318.0639,1,d,1,0.0452,,1.110409728,1.355834142,0.245424414,318.0657,318.0659,0,180,180,180,1,0.759475846,0.759475846,shape_difference0,1,,TRUE,,intensity,0.1,0.05,0.7,0.3,0.82,20,400,1E-11,3.5,0.01,0.5,0.1,,,,,,,,,,,,,,,,,,,,,,,,,,,,,,,,,,,,,,,,,,,,,,,,,,,,,,,,,,,,,,,,,,,,,,,,,,,,,,,,,
,,,,,225967,001,2025-03-14_00h37.01.876,Utility_discrimination_2024_2cat,2024.2.4,MacIntel,60.24096386,,,,,,,,2,"[0.5,0.5]","[0.707,0.707]",d,"[0.5,1.7306359607922503]","[0.5,-0.7306359607922503]",318.0667,319.7134,0,d,0,0.119,,1.081795267,1.351118024,0.269322757,319.7157,319.7159,0,181,181,181,1,1.230635961,1.230635961,shape_difference4,1,,TRUE,,intensity,0.1,0.05,0.7,0.3,0.82,20,400,1E-11,3.5,0.01,0.5,0.1,,,,,,,,,,,,,,,,,,,,,,,,,,,,,,,,,,,,,,,,,,,,,,,,,,,,,,,,,,,,,,,,,,,,,,,,,,,,,,,,,
,,,,,225967,001,2025-03-14_00h37.01.876,Utility_discrimination_2024_2cat,2024.2.4,MacIntel,60.24096386,,,,,,,,1,"[0.5,0.5]","[0.924,0.383]",s,"[1.345901367454317,1.345901367454317]","[-0.345901367454317,-0.345901367454317]",319.7167,321.2472,1,d,1,0.0115,,1.130948655,1.436047134,0.305098478,321.2494,321.2495,0,182,182,182,1,1.196465866,1.196465866,shape_difference2,1,,TRUE,,intensity,0.1,0.05,0.7,0.3,0.82,20,400,1E-11,3.5,0.01,0.5,0.1,,,,,,,,,,,,,,,,,,,,,,,,,,,,,,,,,,,,,,,,,,,,,,,,,,,,,,,,,,,,,,,,,,,,,,,,,,,,,,,,,
,,,,,225967,001,2025-03-14_00h37.01.876,Utility_discrimination_2024_2cat,2024.2.4,MacIntel,60.24096386,,,,,,,,3,"[0.5,0.5]","[0.383,0.924]",d,"[1.6852483048234912,0.9912879878218583]","[-0.6852483048234912,0.00871201217814166]",321.2504,322.8299,1,s,1,0.0503,,0.750391384,1.126564181,0.376172798,322.8321,322.8322,0,183,183,183,1,1.282736261,1.282736261,shape_difference1,1,,TRUE,,intensity,0.1,0.05,0.7,0.3,0.82,20,400,1E-11,3.5,0.01,0.5,0.1,,,,,,,,,,,,,,,,,,,,,,,,,,,,,,,,,,,,,,,,,,,,,,,,,,,,,,,,,,,,,,,,,,,,,,,,,,,,,,,,,
,,,,,225967,001,2025-03-14_00h37.01.876,Utility_discrimination_2024_2cat,2024.2.4,MacIntel,60.24096386,,,,,,,,2,"[0.5,0.5]","[0.707,0.707]",s,"[0.8571739642274967,1.361693845812551]","[0.14282603577250325,-0.36169384581255093]",322.833,324.6466,1,d,1,0.2912,,1.06618697,1.328097629,0.26191066,324.6491,324.6491,0,184,184,184,1,0.932569097,0.932569097,shape_difference3,1,,TRUE,,intensity,0.1,0.05,0.7,0.3,0.82,20,400,1E-11,3.5,0.01,0.5,0.1,,,,,,,,,,,,,,,,,,,,,,,,,,,,,,,,,,,,,,,,,,,,,,,,,,,,,,,,,,,,,,,,,,,,,,,,,,,,,,,,,
,,,,,225967,001,2025-03-14_00h37.01.876,Utility_discrimination_2024_2cat,2024.2.4,MacIntel,60.24096386,,,,,,,,1,"[0.5,0.5]","[0.924,0.383]",d,"[1.3396610030038718,1.3396610030038718]","[-0.3396610030038719,-0.3396610030038719]",324.6502,326.2968,0,d,0,0.1166,,1.125615593,1.405391713,0.27977612,326.2995,326.2996,0,185,185,185,1,1.187639325,1.187639325,shape_difference2,1,,TRUE,,intensity,0.1,0.05,0.7,0.3,0.82,20,400,1E-11,3.5,0.01,0.5,0.1,,,,,,,,,,,,,,,,,,,,,,,,,,,,,,,,,,,,,,,,,,,,,,,,,,,,,,,,,,,,,,,,,,,,,,,,,,,,,,,,,
,,,,,225967,001,2025-03-14_00h37.01.876,Utility_discrimination_2024_2cat,2024.2.4,MacIntel,60.24096386,,,,,,,,4,"[0.5,0.5]","[0,1]",s,"[1.677004689175956,0.9878709912926311]","[-0.677004689175956,0.012129008707368827]",326.3005,327.9635,1,d,1,0.1371,,1.116174163,1.379168419,0.262994256,327.9661,327.9662,0,186,186,186,1,1.273814599,1.273814599,shape_difference1,1,,TRUE,,intensity,0.1,0.05,0.7,0.3,0.82,20,400,1E-11,3.5,0.01,0.5,0.1,,,,,,,,,,,,,,,,,,,,,,,,,,,,,,,,,,,,,,,,,,,,,,,,,,,,,,,,,,,,,,,,,,,,,,,,,,,,,,,,,
,,,,,225967,001,2025-03-14_00h37.01.876,Utility_discrimination_2024_2cat,2024.2.4,MacIntel,60.24096386,,,,,,,,0,"[0.5,0.5]","[1,0]",d,"[0.5,1.752381390778139]","[0.5,-0.7523813907781389]",327.9671,329.5635,1,s,1,0.0756,,0.539604189,0.955009869,0.41540568,329.5659,329.5661,0,187,187,187,1,1.252381391,1.252381391,shape_difference4,1,,TRUE,,intensity,0.1,0.05,0.7,0.3,0.82,20,400,1E-11,3.5,0.01,0.5,0.1,,,,,,,,,,,,,,,,,,,,,,,,,,,,,,,,,,,,,,,,,,,,,,,,,,,,,,,,,,,,,,,,,,,,,,,,,,,,,,,,,
,,,,,225967,001,2025-03-14_00h37.01.876,Utility_discrimination_2024_2cat,2024.2.4,MacIntel,60.24096386,,,,,,,,3,"[0.5,0.5]","[0.383,0.924]",s,"[1.2378098256440793,0.5]","[-0.23780982564407938,0.5]",329.5671,331.3793,0,s,0,0.2858,,0.739187157,1.095248304,0.356061147,331.3815,331.3817,0,188,188,188,1,0.737809826,0.737809826,shape_difference0,1,,TRUE,,intensity,0.1,0.05,0.7,0.3,0.82,20,400,1E-11,3.5,0.01,0.5,0.1,,,,,,,,,,,,,,,,,,,,,,,,,,,,,,,,,,,,,,,,,,,,,,,,,,,,,,,,,,,,,,,,,,,,,,,,,,,,,,,,,
,,,,,225967,001,2025-03-14_00h37.01.876,Utility_discrimination_2024_2cat,2024.2.4,MacIntel,60.24096386,,,,,,,,2,"[0.5,0.5]","[0.707,0.707]",d,"[0.8491568477576571,1.3423522906738254]","[0.1508431522423429,-0.34235229067382544]",331.3825,333.2136,0,s,0,0.3005,,1.106784224,1.372871645,0.266087421,333.2162,333.2163,0,189,189,189,1,0.911636678,0.911636678,shape_difference3,1,,TRUE,,intensity,0.1,0.05,0.7,0.3,0.82,20,400,1E-11,3.5,0.01,0.5,0.1,,,,,,,,,,,,,,,,,,,,,,,,,,,,,,,,,,,,,,,,,,,,,,,,,,,,,,,,,,,,,,,,,,,,,,,,,,,,,,,,,
,,,,,225967,001,2025-03-14_00h37.01.876,Utility_discrimination_2024_2cat,2024.2.4,MacIntel,60.24096386,,,,,,,,0,"[0.5,0.5]","[1,0]",d,"[1.3664524310962394,1.3664524310962394]","[-0.3664524310962394,-0.3664524310962394]",333.2172,334.9135,1,s,1,0.1704,,0.610792877,0.997537328,0.386744451,334.9162,334.9164,0,190,190,190,1,1.225533849,1.225533849,shape_difference2,1,,TRUE,,intensity,0.1,0.05,0.7,0.3,0.82,20,400,1E-11,3.5,0.01,0.5,0.1,,,,,,,,,,,,,,,,,,,,,,,,,,,,,,,,,,,,,,,,,,,,,,,,,,,,,,,,,,,,,,,,,,,,,,,,,,,,,,,,,
