Consent.started,Consent.stopped,key_resp.keys,key_resp.rt,key_resp.duration,participant,session,date,expName,psychopyVersion,OS,frameRate,SetupExperiment.started,SetupExperiment.stopped,DiscrimInstructions_Pre.started,DiscrimInstructions_Pre.stopped,KeyboardResponse.keys,KeyboardResponse.rt,KeyboardResponse.duration,feature_index,feature_center,feature_vector,correct_answer,coord1,coord2,DiscriminationTrial.started,DiscriminationTrial.stopped,PreTest.response,Resp_s_or_d.keys,Resp_s_or_d.corr,Resp_s_or_d.rt,Resp_s_or_d.duration,PreTest.CI_lower,PreTest.CI_upper,PreTest.CI_width,CrashPretest_2.started,CrashPretest_2.stopped,PreTest.thisRepN,PreTest.thisTrialN,PreTest.thisN,PreTest.thisIndex,PreTest.ran,PreTest.intensity,intensity,PreTest.label,PreTest.nReps,PreTest.method,PreTest.autoLog,PreTest.seed,PreTest.varName,PreTest.startVal,PreTest.minVal,PreTest.maxVal,PreTest.startValSd,PreTest.pThreshold,PreTest.nTrials,PreTest.maxTrials,PreTest.stopInterval,PreTest.beta,PreTest.delta,PreTest.gamma,PreTest.grain,WelcomeToCategorizationTask.started,WelcomeToCategorizationTask.stopped,PressAnyKey3.keys,PressAnyKey3.rt,PressAnyKey3.duration,shape_coordinates,category_center,category_sigma,subspace_center,subspace_vector1,subspace_vector2,CategorizationTrial.started,CategorizationTrial.stopped,Respond_1or2.keys,Respond_1or2.rt,Respond_1or2.duration,Feedback.started,Feedback.stopped,xcoord,ycoord,shape_coord,numeric_response_minus1,correctness,truecategory,mixture_index,respAifA,respBifA,respAifB,respBifB,trial_number,D,muAx,muAy,muBx,muBy,sigmaA,sigmaB,priorA,priorB,TrialLoop.thisRepN,TrialLoop.thisTrialN,TrialLoop.thisN,TrialLoop.thisIndex,TrialLoop.ran,DiscriminationInstructions_Post.started,DiscriminationInstructions_Post.stopped,key_resp_2.keys,key_resp_2.rt,key_resp_2.duration,PostTest.response,PostTest.CI_lower,PostTest.CI_upper,PostTest.CI_width,CrashPosttest.started,CrashPosttest.stopped,PostTest.thisRepN,PostTest.thisTrialN,PostTest.thisN,PostTest.thisIndex,PostTest.ran,PostTest.intensity,PostTest.label,PostTest.nReps,PostTest.method,PostTest.autoLog,PostTest.seed,PostTest.varName,PostTest.startVal,PostTest.minVal,PostTest.maxVal,PostTest.startValSd,PostTest.pThreshold,PostTest.nTrials,PostTest.maxTrials,PostTest.stopInterval,PostTest.beta,PostTest.delta,PostTest.gamma,PostTest.grain,Thanks.started,Thanks.stopped
0.0004,2.8926,y,2.8679,,225967,001,2025-03-14_09h00.29.757,Utility_discrimination_2024_2cat,2024.2.4,MacIntel,59.88023952,,,,,,,,,,,,,,,,,,,,,,,,,,,,,,,,,,,,,,,,,,,,,,,,,,,,,,,,,,,,,,,,,,,,,,,,,,,,,,,,,,,,,,,,,,,,,,,,,,,,,,,,,,,,,,,,,,,,,,,,,,,,,,,,,,,
,,,,,225967,001,2025-03-14_09h00.29.757,Utility_discrimination_2024_2cat,2024.2.4,MacIntel,59.88023952,2.893,2.8932,,,,,,,,,,,,,,,,,,,,,,,,,,,,,,,,,,,,,,,,,,,,,,,,,,,,,,,,,,,,,,,,,,,,,,,,,,,,,,,,,,,,,,,,,,,,,,,,,,,,,,,,,,,,,,,,,,,,,,,,,,,,,,,,,
,,,,,225967,001,2025-03-14_09h00.29.757,Utility_discrimination_2024_2cat,2024.2.4,MacIntel,59.88023952,,,2.8934,3.1917,s,0.2693,,,,,,,,,,,,,,,,,,,,,,,,,,,,,,,,,,,,,,,,,,,,,,,,,,,,,,,,,,,,,,,,,,,,,,,,,,,,,,,,,,,,,,,,,,,,,,,,,,,,,,,,,,,,,,,,,,,,,,,,,,,,,
,,,,,225967,001,2025-03-14_09h00.29.757,Utility_discrimination_2024_2cat,2024.2.4,MacIntel,59.88023952,,,,,,,,4,"[0.5,0.5]","[0,1]",,"[0.6185239449756466,0.5]","[0.3814760550243534,0.5]",3.2248,4.7583,1,s,1,0.0003,,-0.447967632,0.547967632,0.995935263,4.7608,4.7609,0,0,0,0,1,0.118523945,0.118523945,shape_difference1,1,,TRUE,,intensity,0.1,0.05,0.7,0.3,0.82,20,400,1E-11,3.5,0.01,0.5,0.1,,,,,,,,,,,,,,,,,,,,,,,,,,,,,,,,,,,,,,,,,,,,,,,,,,,,,,,,,,,,,,,,,,,,,,,,,,,,,,,,,
,,,,,225967,001,2025-03-14_09h00.29.757,Utility_discrimination_2024_2cat,2024.2.4,MacIntel,59.88023952,,,,,,,,3,"[0.5,0.5]","[0.383,0.924]",s,"[0.5,0.6185239449756466]","[0.5,0.3814760550243534]",4.7619,6.3417,1,s,1,0.0575,,-0.447967632,0.547967632,0.995935263,6.3425,6.3425,0,1,1,1,1,0.118523945,0.118523945,shape_difference4,1,,TRUE,,intensity,0.1,0.05,0.7,0.3,0.82,20,400,1E-11,3.5,0.01,0.5,0.1,,,,,,,,,,,,,,,,,,,,,,,,,,,,,,,,,,,,,,,,,,,,,,,,,,,,,,,,,,,,,,,,,,,,,,,,,,,,,,,,,
,,,,,225967,001,2025-03-14_09h00.29.757,Utility_discrimination_2024_2cat,2024.2.4,MacIntel,59.88023952,,,,,,,,2,"[0.5,0.5]","[0.707,0.707]",s,"[0.5453946709256726,0.6095161251574974]","[0.4546053290743273,0.3904838748425025]",6.3431,7.9425,0,s,0,0.0753,,-0.447967632,0.547967632,0.995935263,7.945,7.9451,0,2,2,2,1,0.118523945,0.118523945,shape_difference3,1,,TRUE,,intensity,0.1,0.05,0.7,0.3,0.82,20,400,1E-11,3.5,0.01,0.5,0.1,,,,,,,,,,,,,,,,,,,,,,,,,,,,,,,,,,,,,,,,,,,,,,,,,,,,,,,,,,,,,,,,,,,,,,,,,,,,,,,,,
,,,,,225967,001,2025-03-14_09h00.29.757,Utility_discrimination_2024_2cat,2024.2.4,MacIntel,59.88023952,,,,,,,,0,"[0.5,0.5]","[1,0]",d,"[0.5837964290977822,0.5837964290977822]","[0.4162035709022178,0.4162035709022178]",7.946,9.4918,1,s,1,0.024,,-0.447967632,0.547967632,0.995935263,9.4929,9.493,0,3,3,3,1,0.118523945,0.118523945,shape_difference2,1,,TRUE,,intensity,0.1,0.05,0.7,0.3,0.82,20,400,1E-11,3.5,0.01,0.5,0.1,,,,,,,,,,,,,,,,,,,,,,,,,,,,,,,,,,,,,,,,,,,,,,,,,,,,,,,,,,,,,,,,,,,,,,,,,,,,,,,,,
,,,,,225967,001,2025-03-14_09h00.29.757,Utility_discrimination_2024_2cat,2024.2.4,MacIntel,59.88023952,,,,,,,,1,"[0.5,0.5]","[0.924,0.383]",s,"[0.6185239449756466,0.5]","[0.3814760550243534,0.5]",9.4935,11.1088,0,s,0,0.0837,,-0.479157219,0.478510979,0.957668197,11.1113,11.1113,0,4,4,4,1,0.118523945,0.118523945,shape_difference0,1,,TRUE,,intensity,0.1,0.05,0.7,0.3,0.82,20,400,1E-11,3.5,0.01,0.5,0.1,,,,,,,,,,,,,,,,,,,,,,,,,,,,,,,,,,,,,,,,,,,,,,,,,,,,,,,,,,,,,,,,,,,,,,,,,,,,,,,,,
,,,,,225967,001,2025-03-14_09h00.29.757,Utility_discrimination_2024_2cat,2024.2.4,MacIntel,59.88023952,,,,,,,,3,"[0.5,0.5]","[0.383,0.924]",d,"[0.5341894661325662,0.5141716077151222]","[0.46581053386743376,0.48582839228487784]",11.1124,12.7585,0,s,0,0.1166,,0.008797352,0.664308158,0.655510806,12.76,12.76,0,5,5,5,1,0.037001587,0.037001587,shape_difference1,1,,TRUE,,intensity,0.1,0.05,0.7,0.3,0.82,20,400,1E-11,3.5,0.01,0.5,0.1,,,,,,,,,,,,,,,,,,,,,,,,,,,,,,,,,,,,,,,,,,,,,,,,,,,,,,,,,,,,,,,,,,,,,,,,,,,,,,,,,
,,,,,225967,001,2025-03-14_09h00.29.757,Utility_discrimination_2024_2cat,2024.2.4,MacIntel,59.88023952,,,,,,,,0,"[0.5,0.5]","[1,0]",d,"[0.6243672079123823,0.8000399480706037]","[0.37563279208761774,0.19996005192939625]",12.7607,14.3753,0,s,0,0.091,,0.008797352,0.664308158,0.655510806,14.3765,14.3765,0,6,6,6,1,0.324718559,0.324718559,shape_difference3,1,,TRUE,,intensity,0.1,0.05,0.7,0.3,0.82,20,400,1E-11,3.5,0.01,0.5,0.1,,,,,,,,,,,,,,,,,,,,,,,,,,,,,,,,,,,,,,,,,,,,,,,,,,,,,,,,,,,,,,,,,,,,,,,,,,,,,,,,,
,,,,,225967,001,2025-03-14_09h00.29.757,Utility_discrimination_2024_2cat,2024.2.4,MacIntel,59.88023952,,,,,,,,4,"[0.5,0.5]","[0,1]",d,"[0.8247185585179694,0.5]","[0.17528144148203062,0.5]",14.3769,16.0257,1,s,1,0.1159,,-0.479157219,0.478510979,0.957668197,16.0292,16.0292,0,7,7,7,1,0.324718559,0.324718559,shape_difference0,1,,TRUE,,intensity,0.1,0.05,0.7,0.3,0.82,20,400,1E-11,3.5,0.01,0.5,0.1,,,,,,,,,,,,,,,,,,,,,,,,,,,,,,,,,,,,,,,,,,,,,,,,,,,,,,,,,,,,,,,,,,,,,,,,,,,,,,,,,
,,,,,225967,001,2025-03-14_09h00.29.757,Utility_discrimination_2024_2cat,2024.2.4,MacIntel,59.88023952,,,,,,,,2,"[0.5,0.5]","[0.707,0.707]",s,"[0.5,0.5370015867235566]","[0.5,0.4629984132764434]",16.0309,17.6923,1,s,1,0.1447,,-0.479157219,0.478510979,0.957668197,17.6953,17.6954,0,8,8,8,1,0.037001587,0.037001587,shape_difference4,1,,TRUE,,intensity,0.1,0.05,0.7,0.3,0.82,20,400,1E-11,3.5,0.01,0.5,0.1,,,,,,,,,,,,,,,,,,,,,,,,,,,,,,,,,,,,,,,,,,,,,,,,,,,,,,,,,,,,,,,,,,,,,,,,,,,,,,,,,
,,,,,225967,001,2025-03-14_09h00.29.757,Utility_discrimination_2024_2cat,2024.2.4,MacIntel,59.88023952,,,,,,,,1,"[0.5,0.5]","[0.924,0.383]",s,"[0.5261601218135545,0.5261601218135545]","[0.4738398781864455,0.4738398781864455]",17.6965,19.3922,0,s,0,0.1654,,-0.090065158,0.591798206,0.681863364,19.395,19.3951,0,9,9,9,1,0.037001587,0.037001587,shape_difference2,1,,TRUE,,intensity,0.1,0.05,0.7,0.3,0.82,20,400,1E-11,3.5,0.01,0.5,0.1,,,,,,,,,,,,,,,,,,,,,,,,,,,,,,,,,,,,,,,,,,,,,,,,,,,,,,,,,,,,,,,,,,,,,,,,,,,,,,,,,
,,,,,225967,001,2025-03-14_09h00.29.757,Utility_discrimination_2024_2cat,2024.2.4,MacIntel,59.88023952,,,,,,,,4,"[0.5,0.5]","[0,1]",d,"[0.7085118474629236,0.586428612097727]","[0.2914881525370764,0.413571387902273]",19.3961,20.9927,0,s,0,0.0772,,-0.510435314,0.404710629,0.915145943,20.9952,20.9952,0,10,10,10,1,0.225662173,0.225662173,shape_difference1,1,,TRUE,,intensity,0.1,0.05,0.7,0.3,0.82,20,400,1E-11,3.5,0.01,0.5,0.1,,,,,,,,,,,,,,,,,,,,,,,,,,,,,,,,,,,,,,,,,,,,,,,,,,,,,,,,,,,,,,,,,,,,,,,,,,,,,,,,,
,,,,,225967,001,2025-03-14_09h00.29.757,Utility_discrimination_2024_2cat,2024.2.4,MacIntel,59.88023952,,,,,,,,3,"[0.5,0.5]","[0.383,0.924]",d,"[0.5,0.4627317496680746]","[0.5,0.5372682503319254]",20.9958,22.6419,0,s,0,0.1192,,0.200901354,0.758241115,0.557339761,22.6444,22.6445,0,11,11,11,1,-0.03726825,-0.03726825,shape_difference4,1,,TRUE,,intensity,0.1,0.05,0.7,0.3,0.82,20,400,1E-11,3.5,0.01,0.5,0.1,,,,,,,,,,,,,,,,,,,,,,,,,,,,,,,,,,,,,,,,,,,,,,,,,,,,,,,,,,,,,,,,,,,,,,,,,,,,,,,,,
,,,,,225967,001,2025-03-14_09h00.29.757,Utility_discrimination_2024_2cat,2024.2.4,MacIntel,59.88023952,,,,,,,,2,"[0.5,0.5]","[0.707,0.707]",d,"[0.6763457784188817,0.9254399458460747]","[0.32365422158111834,0.07456005415392525]",22.6455,24.2755,1,s,1,0.1074,,-0.090065158,0.591798206,0.681863364,24.2782,24.2782,0,12,12,12,1,0.460432842,0.460432842,shape_difference3,1,,TRUE,,intensity,0.1,0.05,0.7,0.3,0.82,20,400,1E-11,3.5,0.01,0.5,0.1,,,,,,,,,,,,,,,,,,,,,,,,,,,,,,,,,,,,,,,,,,,,,,,,,,,,,,,,,,,,,,,,,,,,,,,,,,,,,,,,,
,,,,,225967,001,2025-03-14_09h00.29.757,Utility_discrimination_2024_2cat,2024.2.4,MacIntel,59.88023952,,,,,,,,0,"[0.5,0.5]","[1,0]",s,"[0.6595431560132976,0.6595431560132976]","[0.3404568439867024,0.3404568439867024]",24.2792,25.8922,1,s,1,0.0832,,-0.003741292,0.604569979,0.608311271,25.8957,25.8957,0,13,13,13,1,0.225662173,0.225662173,shape_difference2,1,,TRUE,,intensity,0.1,0.05,0.7,0.3,0.82,20,400,1E-11,3.5,0.01,0.5,0.1,,,,,,,,,,,,,,,,,,,,,,,,,,,,,,,,,,,,,,,,,,,,,,,,,,,,,,,,,,,,,,,,,,,,,,,,,,,,,,,,,
,,,,,225967,001,2025-03-14_09h00.29.757,Utility_discrimination_2024_2cat,2024.2.4,MacIntel,59.88023952,,,,,,,,3,"[0.5,0.5]","[0.383,0.924]",s,"[0.7748173464265704,0.5]","[0.22518265357342954,0.5]",25.8971,27.4929,1,s,1,0.0773,,0.183787094,0.698673471,0.514886377,27.4954,27.4954,0,14,14,14,1,0.274817346,0.274817346,shape_difference0,1,,TRUE,,intensity,0.1,0.05,0.7,0.3,0.82,20,400,1E-11,3.5,0.01,0.5,0.1,,,,,,,,,,,,,,,,,,,,,,,,,,,,,,,,,,,,,,,,,,,,,,,,,,,,,,,,,,,,,,,,,,,,,,,,,,,,,,,,,
,,,,,225967,001,2025-03-14_09h00.29.757,Utility_discrimination_2024_2cat,2024.2.4,MacIntel,59.88023952,,,,,,,,2,"[0.5,0.5]","[0.707,0.707]",s,"[0.6627873385020193,0.8927297670388141]","[0.3372126614979807,0.10727023296118582]",27.4966,29.1255,1,s,1,0.1105,,-0.09936101,0.537490534,0.636851544,29.1279,29.128,0,15,15,15,1,0.425032215,0.425032215,shape_difference3,1,,TRUE,,intensity,0.1,0.05,0.7,0.3,0.82,20,400,1E-11,3.5,0.01,0.5,0.1,,,,,,,,,,,,,,,,,,,,,,,,,,,,,,,,,,,,,,,,,,,,,,,,,,,,,,,,,,,,,,,,,,,,,,,,,,,,,,,,,
,,,,,225967,001,2025-03-14_09h00.29.757,Utility_discrimination_2024_2cat,2024.2.4,MacIntel,59.88023952,,,,,,,,0,"[0.5,0.5]","[1,0]",s,"[0.6214082432493439,0.6214082432493439]","[0.37859175675065615,0.37859175675065615]",29.1297,30.6589,0,s,0,0.0006,,-0.026700702,0.552121039,0.578821741,30.6606,30.6606,0,16,16,16,1,0.171723116,0.171723116,shape_difference2,1,,TRUE,,intensity,0.1,0.05,0.7,0.3,0.82,20,400,1E-11,3.5,0.01,0.5,0.1,,,,,,,,,,,,,,,,,,,,,,,,,,,,,,,,,,,,,,,,,,,,,,,,,,,,,,,,,,,,,,,,,,,,,,,,,,,,,,,,,
,,,,,225967,001,2025-03-14_09h00.29.757,Utility_discrimination_2024_2cat,2024.2.4,MacIntel,59.88023952,,,,,,,,1,"[0.5,0.5]","[0.924,0.383]",d,"[0.7361666255365733,0.5]","[0.26383337446342664,0.5]",30.6616,32.359,1,s,1,0.1662,,0.100128431,0.691751185,0.591622754,32.3613,32.3613,0,17,17,17,1,0.236166626,0.236166626,shape_difference0,1,,TRUE,,intensity,0.1,0.05,0.7,0.3,0.82,20,400,1E-11,3.5,0.01,0.5,0.1,,,,,,,,,,,,,,,,,,,,,,,,,,,,,,,,,,,,,,,,,,,,,,,,,,,,,,,,,,,,,,,,,,,,,,,,,,,,,,,,,
,,,,,225967,001,2025-03-14_09h00.29.757,Utility_discrimination_2024_2cat,2024.2.4,MacIntel,59.88023952,,,,,,,,4,"[0.5,0.5]","[0,1]",s,"[0.8466998224093067,0.6437078268211737]","[0.1533001775906932,0.35629217317882633]",32.3623,33.9589,0,s,0,0.0771,,-0.118157943,0.566731222,0.684889165,33.9612,33.9613,0,18,18,18,1,0.375216258,0.375216258,shape_difference1,1,,TRUE,,intensity,0.1,0.05,0.7,0.3,0.82,20,400,1E-11,3.5,0.01,0.5,0.1,,,,,,,,,,,,,,,,,,,,,,,,,,,,,,,,,,,,,,,,,,,,,,,,,,,,,,,,,,,,,,,,,,,,,,,,,,,,,,,,,
,,,,,225967,001,2025-03-14_09h00.29.757,Utility_discrimination_2024_2cat,2024.2.4,MacIntel,59.88023952,,,,,,,,0,"[0.5,0.5]","[1,0]",d,"[0.5,0.6844698465378827]","[0.5,0.3155301534621173]",33.9624,35.5089,1,s,1,0.0163,,-0.050981617,0.494068035,0.545049652,35.512,35.5121,0,19,19,19,1,0.184469847,0.184469847,shape_difference4,1,,TRUE,,intensity,0.1,0.05,0.7,0.3,0.82,20,400,1E-11,3.5,0.01,0.5,0.1,,,,,,,,,,,,,,,,,,,,,,,,,,,,,,,,,,,,,,,,,,,,,,,,,,,,,,,,,,,,,,,,,,,,,,,,,,,,,,,,,
,,,,,225967,001,2025-03-14_09h00.29.757,Utility_discrimination_2024_2cat,2024.2.4,MacIntel,59.88023952,,,,,,,,4,"[0.5,0.5]","[0,1]",s,"[0.69671503713367,0.5]","[0.30328496286633,0.5]",35.5132,37.7924,0,s,0,0.7504,,-0.138426098,0.496127593,0.634553691,37.7953,37.7953,0,20,20,20,1,0.196715037,0.196715037,shape_difference0,1,,TRUE,,intensity,0.1,0.05,0.7,0.3,0.82,20,400,1E-11,3.5,0.01,0.5,0.1,,,,,,,,,,,,,,,,,,,,,,,,,,,,,,,,,,,,,,,,,,,,,,,,,,,,,,,,,,,,,,,,,,,,,,,,,,,,,,,,,
,,,,,225967,001,2025-03-14_09h00.29.757,Utility_discrimination_2024_2cat,2024.2.4,MacIntel,59.88023952,,,,,,,,1,"[0.5,0.5]","[0.924,0.383]",d,"[0.5,0.6357080695737778]","[0.5,0.36429193042622215]",37.7964,39.4756,0,s,0,0.1497,,0.267459718,0.797866403,0.530406685,39.4775,39.4775,0,21,21,21,1,0.13570807,0.13570807,shape_difference4,1,,TRUE,,intensity,0.1,0.05,0.7,0.3,0.82,20,400,1E-11,3.5,0.01,0.5,0.1,,,,,,,,,,,,,,,,,,,,,,,,,,,,,,,,,,,,,,,,,,,,,,,,,,,,,,,,,,,,,,,,,,,,,,,,,,,,,,,,,
,,,,,225967,001,2025-03-14_09h00.29.757,Utility_discrimination_2024_2cat,2024.2.4,MacIntel,59.88023952,,,,,,,,3,"[0.5,0.5]","[0.383,0.924]",d,"[0.9853638140681935,0.7011843515022923]","[0.014636185931806545,0.2988156484977077]",39.4784,41.1088,0,s,0,0.11,,0.161915205,0.663473103,0.501557898,41.1102,41.1102,0,22,22,22,1,0.525285513,0.525285513,shape_difference1,1,,TRUE,,intensity,0.1,0.05,0.7,0.3,0.82,20,400,1E-11,3.5,0.01,0.5,0.1,,,,,,,,,,,,,,,,,,,,,,,,,,,,,,,,,,,,,,,,,,,,,,,,,,,,,,,,,,,,,,,,,,,,,,,,,,,,,,,,,
,,,,,225967,001,2025-03-14_09h00.29.757,Utility_discrimination_2024_2cat,2024.2.4,MacIntel,59.88023952,,,,,,,,2,"[0.5,0.5]","[0.707,0.707]",d,"[0.6493312469575643,0.8602665070203378]","[0.3506687530424357,0.1397334929796622]",41.1108,42.7097,0,s,0,0.078,,0.064206312,0.666780888,0.602574576,42.7117,42.7118,0,23,23,23,1,0.389898817,0.389898817,shape_difference3,1,,TRUE,,intensity,0.1,0.05,0.7,0.3,0.82,20,400,1E-11,3.5,0.01,0.5,0.1,,,,,,,,,,,,,,,,,,,,,,,,,,,,,,,,,,,,,,,,,,,,,,,,,,,,,,,,,,,,,,,,,,,,,,,,,,,,,,,,,
,,,,,225967,001,2025-03-14_09h00.29.757,Utility_discrimination_2024_2cat,2024.2.4,MacIntel,59.88023952,,,,,,,,4,"[0.5,0.5]","[0,1]",d,"[0.7404010129194715,0.7404010129194715]","[0.25959898708052853,0.25959898708052853]",42.7135,44.3921,1,s,1,0.149,,0.003001688,0.59577868,0.592776992,44.3935,44.3935,0,24,24,24,1,0.340029721,0.340029721,shape_difference2,1,,TRUE,,intensity,0.1,0.05,0.7,0.3,0.82,20,400,1E-11,3.5,0.01,0.5,0.1,,,,,,,,,,,,,,,,,,,,,,,,,,,,,,,,,,,,,,,,,,,,,,,,,,,,,,,,,,,,,,,,,,,,,,,,,,,,,,,,,
,,,,,225967,001,2025-03-14_09h00.29.757,Utility_discrimination_2024_2cat,2024.2.4,MacIntel,59.88023952,,,,,,,,3,"[0.5,0.5]","[0.383,0.924]",s,"[0.5,0.7554615754976168]","[0.5,0.2445384245023831]",44.394,46.059,0,s,0,0.1354,,0.27691405,0.758572592,0.481658541,46.0619,46.062,0,25,25,25,1,0.255461575,0.255461575,shape_difference4,1,,TRUE,,intensity,0.1,0.05,0.7,0.3,0.82,20,400,1E-11,3.5,0.01,0.5,0.1,,,,,,,,,,,,,,,,,,,,,,,,,,,,,,,,,,,,,,,,,,,,,,,,,,,,,,,,,,,,,,,,,,,,,,,,,,,,,,,,,
,,,,,225967,001,2025-03-14_09h00.29.757,Utility_discrimination_2024_2cat,2024.2.4,MacIntel,59.88023952,,,,,,,,1,"[0.5,0.5]","[0.924,0.383]",d,"[0.6869747420072758,0.9510826674013653]","[0.3130252579927242,0.04891733259863479]",46.063,47.7757,1,s,1,0.1938,,0.401293488,0.880445684,0.479152196,47.7784,47.7785,0,26,26,26,1,0.488184705,0.488184705,shape_difference3,1,,TRUE,,intensity,0.1,0.05,0.7,0.3,0.82,20,400,1E-11,3.5,0.01,0.5,0.1,,,,,,,,,,,,,,,,,,,,,,,,,,,,,,,,,,,,,,,,,,,,,,,,,,,,,,,,,,,,,,,,,,,,,,,,,,,,,,,,,
,,,,,225967,001,2025-03-14_09h00.29.757,Utility_discrimination_2024_2cat,2024.2.4,MacIntel,59.88023952,,,,,,,,0,"[0.5,0.5]","[1,0]",s,"[1.0757064312665525,0.7386315618778027]","[-0.07570643126655263,0.26136843812219734]",47.7794,49.442,0,s,0,0.1376,,0.086822279,0.600153011,0.513330733,49.4431,49.4431,0,27,27,27,1,0.623058908,0.623058908,shape_difference1,1,,TRUE,,intensity,0.1,0.05,0.7,0.3,0.82,20,400,1E-11,3.5,0.01,0.5,0.1,,,,,,,,,,,,,,,,,,,,,,,,,,,,,,,,,,,,,,,,,,,,,,,,,,,,,,,,,,,,,,,,,,,,,,,,,,,,,,,,,
,,,,,225967,001,2025-03-14_09h00.29.757,Utility_discrimination_2024_2cat,2024.2.4,MacIntel,59.88023952,,,,,,,,2,"[0.5,0.5]","[0.707,0.707]",d,"[0.7985943458203237,0.5]","[0.2014056541796762,0.5]",49.4436,51.0257,1,s,1,0.0523,,0.046106493,0.612747238,0.566640745,51.0279,51.0279,0,28,28,28,1,0.298594346,0.298594346,shape_difference0,1,,TRUE,,intensity,0.1,0.05,0.7,0.3,0.82,20,400,1E-11,3.5,0.01,0.5,0.1,,,,,,,,,,,,,,,,,,,,,,,,,,,,,,,,,,,,,,,,,,,,,,,,,,,,,,,,,,,,,,,,,,,,,,,,,,,,,,,,,
,,,,,225967,001,2025-03-14_09h00.29.757,Utility_discrimination_2024_2cat,2024.2.4,MacIntel,59.88023952,,,,,,,,3,"[0.5,0.5]","[0.383,0.924]",s,"[0.7076900834488034,0.7076900834488034]","[0.2923099165511966,0.2923099165511966]",51.0291,52.726,1,s,1,0.1792,,0.26053918,0.705926003,0.445386823,52.7273,52.7273,0,29,29,29,1,0.293762494,0.293762494,shape_difference2,1,,TRUE,,intensity,0.1,0.05,0.7,0.3,0.82,20,400,1E-11,3.5,0.01,0.5,0.1,,,,,,,,,,,,,,,,,,,,,,,,,,,,,,,,,,,,,,,,,,,,,,,,,,,,,,,,,,,,,,,,,,,,,,,,,,,,,,,,,
,,,,,225967,001,2025-03-14_09h00.29.757,Utility_discrimination_2024_2cat,2024.2.4,MacIntel,59.88023952,,,,,,,,1,"[0.5,0.5]","[0.924,0.383]",s,"[0.6776724160147023,0.9286405023435637]","[0.3223275839852977,0.07135949765643634]",52.7282,54.2915,1,s,1,0.0414,,0.501649484,0.953947062,0.452297577,54.2944,54.2945,0,30,30,30,1,0.463896648,0.463896648,shape_difference3,1,,TRUE,,intensity,0.1,0.05,0.7,0.3,0.82,20,400,1E-11,3.5,0.01,0.5,0.1,,,,,,,,,,,,,,,,,,,,,,,,,,,,,,,,,,,,,,,,,,,,,,,,,,,,,,,,,,,,,,,,,,,,,,,,,,,,,,,,,
,,,,,225967,001,2025-03-14_09h00.29.757,Utility_discrimination_2024_2cat,2024.2.4,MacIntel,59.88023952,,,,,,,,4,"[0.5,0.5]","[0,1]",s,"[1.1536633619583105,0.7709448783874815]","[-0.15366336195831054,0.22905512161251845]",54.2954,56.042,0,s,0,0.2266,,0.154289389,0.729256832,0.574967443,56.0443,56.0443,0,31,31,31,1,0.707427881,0.707427881,shape_difference1,1,,TRUE,,intensity,0.1,0.05,0.7,0.3,0.82,20,400,1E-11,3.5,0.01,0.5,0.1,,,,,,,,,,,,,,,,,,,,,,,,,,,,,,,,,,,,,,,,,,,,,,,,,,,,,,,,,,,,,,,,,,,,,,,,,,,,,,,,,
,,,,,225967,001,2025-03-14_09h00.29.757,Utility_discrimination_2024_2cat,2024.2.4,MacIntel,59.88023952,,,,,,,,0,"[0.5,0.5]","[1,0]",d,"[0.5,0.9261584260463593]","[0.5,0.07384157395364066]",56.0463,57.7426,1,s,1,0.1776,,0.067160185,0.556411783,0.489251598,57.7445,57.7445,0,32,32,32,1,0.426158426,0.426158426,shape_difference4,1,,TRUE,,intensity,0.1,0.05,0.7,0.3,0.82,20,400,1E-11,3.5,0.01,0.5,0.1,,,,,,,,,,,,,,,,,,,,,,,,,,,,,,,,,,,,,,,,,,,,,,,,,,,,,,,,,,,,,,,,,,,,,,,,,,,,,,,,,
,,,,,225967,001,2025-03-14_09h00.29.757,Utility_discrimination_2024_2cat,2024.2.4,MacIntel,59.88023952,,,,,,,,2,"[0.5,0.5]","[0.707,0.707]",s,"[0.7717207369037922,0.5]","[0.22827926309620777,0.5]",57.7456,59.4424,0,s,0,0.1671,,0.034258812,0.562756016,0.528497204,59.4446,59.4447,0,33,33,33,1,0.271720737,0.271720737,shape_difference0,1,,TRUE,,intensity,0.1,0.05,0.7,0.3,0.82,20,400,1E-11,3.5,0.01,0.5,0.1,,,,,,,,,,,,,,,,,,,,,,,,,,,,,,,,,,,,,,,,,,,,,,,,,,,,,,,,,,,,,,,,,,,,,,,,,,,,,,,,,
,,,,,225967,001,2025-03-14_09h00.29.757,Utility_discrimination_2024_2cat,2024.2.4,MacIntel,59.88023952,,,,,,,,0,"[0.5,0.5]","[1,0]",d,"[0.6854408753325492,0.6854408753325492]","[0.3145591246674509,0.3145591246674509]",59.4458,61.143,0,s,0,0.1671,,0.158041921,0.671627007,0.513585086,61.146,61.146,0,34,34,34,1,0.26229261,0.26229261,shape_difference2,1,,TRUE,,intensity,0.1,0.05,0.7,0.3,0.82,20,400,1E-11,3.5,0.01,0.5,0.1,,,,,,,,,,,,,,,,,,,,,,,,,,,,,,,,,,,,,,,,,,,,,,,,,,,,,,,,,,,,,,,,,,,,,,,,,,,,,,,,,
,,,,,225967,001,2025-03-14_09h00.29.757,Utility_discrimination_2024_2cat,2024.2.4,MacIntel,59.88023952,,,,,,,,3,"[0.5,0.5]","[0.383,0.924]",d,"[0.8778260723354947,0.5]","[0.1221739276645053,0.5]",61.1475,62.7924,1,s,1,0.1158,,0.249152631,0.670375619,0.421222988,62.7953,62.7953,0,35,35,35,1,0.377826072,0.377826072,shape_difference0,1,,TRUE,,intensity,0.1,0.05,0.7,0.3,0.82,20,400,1E-11,3.5,0.01,0.5,0.1,,,,,,,,,,,,,,,,,,,,,,,,,,,,,,,,,,,,,,,,,,,,,,,,,,,,,,,,,,,,,,,,,,,,,,,,,,,,,,,,,
,,,,,225967,001,2025-03-14_09h00.29.757,Utility_discrimination_2024_2cat,2024.2.4,MacIntel,59.88023952,,,,,,,,4,"[0.5,0.5]","[0,1]",s,"[0.6696019623147942,0.9091702693965271]","[0.33039803768520576,0.09082973060347288]",62.797,64.4424,0,s,0,0.1155,,0.139040107,0.681803611,0.542763504,64.4451,64.4451,0,36,36,36,1,0.442824967,0.442824967,shape_difference3,1,,TRUE,,intensity,0.1,0.05,0.7,0.3,0.82,20,400,1E-11,3.5,0.01,0.5,0.1,,,,,,,,,,,,,,,,,,,,,,,,,,,,,,,,,,,,,,,,,,,,,,,,,,,,,,,,,,,,,,,,,,,,,,,,,,,,,,,,,
,,,,,225967,001,2025-03-14_09h00.29.757,Utility_discrimination_2024_2cat,2024.2.4,MacIntel,59.88023952,,,,,,,,1,"[0.5,0.5]","[0.924,0.383]",d,"[0.5,0.8851685470588081]","[0.5,0.1148314529411919]",64.4461,67.2251,1,s,1,1.2514,,0.594306003,1.017942195,0.423636193,67.2272,67.2273,0,37,37,37,1,0.385168547,0.385168547,shape_difference4,1,,TRUE,,intensity,0.1,0.05,0.7,0.3,0.82,20,400,1E-11,3.5,0.01,0.5,0.1,,,,,,,,,,,,,,,,,,,,,,,,,,,,,,,,,,,,,,,,,,,,,,,,,,,,,,,,,,,,,,,,,,,,,,,,,,,,,,,,,
,,,,,225967,001,2025-03-14_09h00.29.757,Utility_discrimination_2024_2cat,2024.2.4,MacIntel,59.88023952,,,,,,,,2,"[0.5,0.5]","[0.707,0.707]",s,"[1.2303908487920132,0.8027485877568625]","[-0.23039084879201321,0.19725141224313741]",67.2282,68.9091,1,s,1,0.1528,,0.151799491,0.684255939,0.532456448,68.9118,68.9119,0,38,38,38,1,0.790466287,0.790466287,shape_difference1,1,,TRUE,,intensity,0.1,0.05,0.7,0.3,0.82,20,400,1E-11,3.5,0.01,0.5,0.1,,,,,,,,,,,,,,,,,,,,,,,,,,,,,,,,,,,,,,,,,,,,,,,,,,,,,,,,,,,,,,,,,,,,,,,,,,,,,,,,,
,,,,,225967,001,2025-03-14_09h00.29.757,Utility_discrimination_2024_2cat,2024.2.4,MacIntel,59.88023952,,,,,,,,3,"[0.5,0.5]","[0.383,0.924]",s,"[0.7726957537235573,0.7726957537235573]","[0.22730424627644275,0.22730424627644275]",68.9135,70.8257,0,s,0,0.394,,0.313137507,0.729683928,0.416546421,70.8286,70.8286,0,39,39,39,1,0.38570828,0.38570828,shape_difference2,1,,TRUE,,intensity,0.1,0.05,0.7,0.3,0.82,20,400,1E-11,3.5,0.01,0.5,0.1,,,,,,,,,,,,,,,,,,,,,,,,,,,,,,,,,,,,,,,,,,,,,,,,,,,,,,,,,,,,,,,,,,,,,,,,,,,,,,,,,
,,,,,225967,001,2025-03-14_09h00.29.757,Utility_discrimination_2024_2cat,2024.2.4,MacIntel,59.88023952,,,,,,,,2,"[0.5,0.5]","[0.707,0.707]",d,"[0.6874156146009626,0.9521462869224268]","[0.31258438539903743,0.047853713077573246]",70.8296,72.4924,0,s,0,0.1408,,0.267292717,0.784372082,0.517079365,72.4945,72.4946,0,40,40,40,1,0.489335808,0.489335808,shape_difference3,1,,TRUE,,intensity,0.1,0.05,0.7,0.3,0.82,20,400,1E-11,3.5,0.01,0.5,0.1,,,,,,,,,,,,,,,,,,,,,,,,,,,,,,,,,,,,,,,,,,,,,,,,,,,,,,,,,,,,,,,,,,,,,,,,,,,,,,,,,
,,,,,225967,001,2025-03-14_09h00.29.757,Utility_discrimination_2024_2cat,2024.2.4,MacIntel,59.88023952,,,,,,,,0,"[0.5,0.5]","[1,0]",d,"[0.856127831321785,0.856127831321785]","[0.1438721686782149,0.1438721686782149]",72.4955,74.2424,0,s,0,0.2167,,0.146289465,0.616633457,0.470343991,74.2458,74.246,0,41,41,41,1,0.503716876,0.503716876,shape_difference2,1,,TRUE,,intensity,0.1,0.05,0.7,0.3,0.82,20,400,1E-11,3.5,0.01,0.5,0.1,,,,,,,,,,,,,,,,,,,,,,,,,,,,,,,,,,,,,,,,,,,,,,,,,,,,,,,,,,,,,,,,,,,,,,,,,,,,,,,,,
,,,,,225967,001,2025-03-14_09h00.29.757,Utility_discrimination_2024_2cat,2024.2.4,MacIntel,59.88023952,,,,,,,,1,"[0.5,0.5]","[0.924,0.383]",d,"[0.8510514104266633,0.5]","[0.14894858957333668,0.5]",74.2469,75.7758,1,s,1,0.0013,,0.574577515,0.98539987,0.410822355,75.7783,75.7784,0,42,42,42,1,0.35105141,0.35105141,shape_difference0,1,,TRUE,,intensity,0.1,0.05,0.7,0.3,0.82,20,400,1E-11,3.5,0.01,0.5,0.1,,,,,,,,,,,,,,,,,,,,,,,,,,,,,,,,,,,,,,,,,,,,,,,,,,,,,,,,,,,,,,,,,,,,,,,,,,,,,,,,,
,,,,,225967,001,2025-03-14_09h00.29.757,Utility_discrimination_2024_2cat,2024.2.4,MacIntel,59.88023952,,,,,,,,4,"[0.5,0.5]","[0,1]",s,"[1.2102688546069205,0.7944079776130417]","[-0.21026885460692057,0.20559202238695823]",75.7793,77.3759,1,s,1,0.0772,,0.128917301,0.632299884,0.503382583,77.3779,77.378,0,43,43,43,1,0.768689237,0.768689237,shape_difference1,1,,TRUE,,intensity,0.1,0.05,0.7,0.3,0.82,20,400,1E-11,3.5,0.01,0.5,0.1,,,,,,,,,,,,,,,,,,,,,,,,,,,,,,,,,,,,,,,,,,,,,,,,,,,,,,,,,,,,,,,,,,,,,,,,,,,,,,,,,
,,,,,225967,001,2025-03-14_09h00.29.757,Utility_discrimination_2024_2cat,2024.2.4,MacIntel,59.88023952,,,,,,,,4,"[0.5,0.5]","[0,1]",s,"[0.5,0.8554616017959902]","[0.5,0.14453839820400982]",77.3789,78.9593,0,s,0,0.0493,,0.247948984,0.753492241,0.505543257,78.9618,78.9618,0,44,44,44,1,0.355461602,0.355461602,shape_difference4,1,,TRUE,,intensity,0.1,0.05,0.7,0.3,0.82,20,400,1E-11,3.5,0.01,0.5,0.1,,,,,,,,,,,,,,,,,,,,,,,,,,,,,,,,,,,,,,,,,,,,,,,,,,,,,,,,,,,,,,,,,,,,,,,,,,,,,,,,,
,,,,,225967,001,2025-03-14_09h00.29.757,Utility_discrimination_2024_2cat,2024.2.4,MacIntel,59.88023952,,,,,,,,1,"[0.5,0.5]","[0.924,0.383]",d,"[0.5,0.9754333334087889]","[0.5,0.024566666591211095]",78.963,80.8096,0,s,0,0.3275,,0.560692789,0.956581593,0.395888805,80.8125,80.8126,0,45,45,45,1,0.475433333,0.475433333,shape_difference4,1,,TRUE,,intensity,0.1,0.05,0.7,0.3,0.82,20,400,1E-11,3.5,0.01,0.5,0.1,,,,,,,,,,,,,,,,,,,,,,,,,,,,,,,,,,,,,,,,,,,,,,,,,,,,,,,,,,,,,,,,,,,,,,,,,,,,,,,,,
,,,,,225967,001,2025-03-14_09h00.29.757,Utility_discrimination_2024_2cat,2024.2.4,MacIntel,59.88023952,,,,,,,,3,"[0.5,0.5]","[0.383,0.924]",d,"[1.192731428885172,0.7871386766915811]","[-0.19273142888517214,0.2128613233084189]",80.8135,82.4592,0,s,0,0.1168,,0.383614581,0.807769575,0.424154994,82.4612,82.4613,0,46,46,46,1,0.749709339,0.749709339,shape_difference1,1,,TRUE,,intensity,0.1,0.05,0.7,0.3,0.82,20,400,1E-11,3.5,0.01,0.5,0.1,,,,,,,,,,,,,,,,,,,,,,,,,,,,,,,,,,,,,,,,,,,,,,,,,,,,,,,,,,,,,,,,,,,,,,,,,,,,,,,,,
,,,,,225967,001,2025-03-14_09h00.29.757,Utility_discrimination_2024_2cat,2024.2.4,MacIntel,59.88023952,,,,,,,,2,"[0.5,0.5]","[0.707,0.707]",d,"[0.717898537689541,1.025687333747091]","[0.282101462310459,-0.02568733374709109]",82.4622,84.176,1,s,1,0.1939,,0.384036611,0.871308203,0.487271591,84.1783,84.1783,0,47,47,47,1,0.568925686,0.568925686,shape_difference3,1,,TRUE,,intensity,0.1,0.05,0.7,0.3,0.82,20,400,1E-11,3.5,0.01,0.5,0.1,,,,,,,,,,,,,,,,,,,,,,,,,,,,,,,,,,,,,,,,,,,,,,,,,,,,,,,,,,,,,,,,,,,,,,,,,,,,,,,,,
,,,,,225967,001,2025-03-14_09h00.29.757,Utility_discrimination_2024_2cat,2024.2.4,MacIntel,59.88023952,,,,,,,,0,"[0.5,0.5]","[1,0]",s,"[0.9302760873476564,0.9302760873476564]","[0.06972391265234357,0.06972391265234357]",84.1793,85.7426,0,s,0,0.0309,,0.138139788,0.570195551,0.432055763,85.7446,85.7446,0,48,48,48,1,0.608594183,0.608594183,shape_difference2,1,,TRUE,,intensity,0.1,0.05,0.7,0.3,0.82,20,400,1E-11,3.5,0.01,0.5,0.1,,,,,,,,,,,,,,,,,,,,,,,,,,,,,,,,,,,,,,,,,,,,,,,,,,,,,,,,,,,,,,,,,,,,,,,,,,,,,,,,,
,,,,,225967,001,2025-03-14_09h00.29.757,Utility_discrimination_2024_2cat,2024.2.4,MacIntel,59.88023952,,,,,,,,0,"[0.5,0.5]","[1,0]",d,"[0.8274461535443294,0.5]","[0.17255384645567062,0.5]",85.746,87.4756,1,s,1,0.1982,,0.129136047,0.528316387,0.39918034,87.4765,87.4765,0,49,49,49,1,0.327446154,0.327446154,shape_difference0,1,,TRUE,,intensity,0.1,0.05,0.7,0.3,0.82,20,400,1E-11,3.5,0.01,0.5,0.1,,,,,,,,,,,,,,,,,,,,,,,,,,,,,,,,,,,,,,,,,,,,,,,,,,,,,,,,,,,,,,,,,,,,,,,,,,,,,,,,,
,,,,,225967,001,2025-03-14_09h00.29.757,Utility_discrimination_2024_2cat,2024.2.4,MacIntel,59.88023952,,,,,,,,4,"[0.5,0.5]","[0,1]",s,"[0.8019611787915765,0.5]","[0.19803882120842353,0.5]",87.477,89.3592,1,s,1,0.3572,,0.360077145,0.85222498,0.492147834,89.3601,89.3601,0,50,50,50,1,0.301961179,0.301961179,shape_difference0,1,,TRUE,,intensity,0.1,0.05,0.7,0.3,0.82,20,400,1E-11,3.5,0.01,0.5,0.1,,,,,,,,,,,,,,,,,,,,,,,,,,,,,,,,,,,,,,,,,,,,,,,,,,,,,,,,,,,,,,,,,,,,,,,,,,,,,,,,,
,,,,,225967,001,2025-03-14_09h00.29.757,Utility_discrimination_2024_2cat,2024.2.4,MacIntel,59.88023952,,,,,,,,3,"[0.5,0.5]","[0.383,0.924]",s,"[0.5,1.0871780499701529]","[0.5,-0.08717804997015288]",89.3605,91.1101,0,s,0,0.2281,,0.368267903,0.773937635,0.405669732,91.1124,91.1125,0,51,51,51,1,0.58717805,0.58717805,shape_difference4,1,,TRUE,,intensity,0.1,0.05,0.7,0.3,0.82,20,400,1E-11,3.5,0.01,0.5,0.1,,,,,,,,,,,,,,,,,,,,,,,,,,,,,,,,,,,,,,,,,,,,,,,,,,,,,,,,,,,,,,,,,,,,,,,,,,,,,,,,,
,,,,,225967,001,2025-03-14_09h00.29.757,Utility_discrimination_2024_2cat,2024.2.4,MacIntel,59.88023952,,,,,,,,1,"[0.5,0.5]","[0.924,0.383]",d,"[0.7099288512986176,1.0064602052217304]","[0.2900711487013824,-0.006460205221730297]",91.1137,93.3594,1,s,1,0.7279,,0.61562763,0.99447734,0.378849711,93.3623,93.3623,0,52,52,52,1,0.548117105,0.548117105,shape_difference3,1,,TRUE,,intensity,0.1,0.05,0.7,0.3,0.82,20,400,1E-11,3.5,0.01,0.5,0.1,,,,,,,,,,,,,,,,,,,,,,,,,,,,,,,,,,,,,,,,,,,,,,,,,,,,,,,,,,,,,,,,,,,,,,,,,,,,,,,,,
,,,,,225967,001,2025-03-14_09h00.29.757,Utility_discrimination_2024_2cat,2024.2.4,MacIntel,59.88023952,,,,,,,,2,"[0.5,0.5]","[0.707,0.707]",s,"[1.2307308666288734,0.8028895258862105]","[-0.23073086662887343,0.1971104741137895]",93.3635,95.1594,1,s,1,0.2671,,0.491360858,0.948050005,0.456689147,95.1623,95.1624,0,53,53,53,1,0.790834271,0.790834271,shape_difference1,1,,TRUE,,intensity,0.1,0.05,0.7,0.3,0.82,20,400,1E-11,3.5,0.01,0.5,0.1,,,,,,,,,,,,,,,,,,,,,,,,,,,,,,,,,,,,,,,,,,,,,,,,,,,,,,,,,,,,,,,,,,,,,,,,,,,,,,,,,
,,,,,225967,001,2025-03-14_09h00.29.757,Utility_discrimination_2024_2cat,2024.2.4,MacIntel,59.88023952,,,,,,,,0,"[0.5,0.5]","[1,0]",s,"[0.9945728664827094,0.9945728664827094]","[0.005427133517290683,0.005427133517290683]",95.1634,96.7259,1,s,1,0.0425,,0.122698387,0.488864827,0.36616644,96.7282,96.7283,0,54,54,54,1,0.699537293,0.699537293,shape_difference2,1,,TRUE,,intensity,0.1,0.05,0.7,0.3,0.82,20,400,1E-11,3.5,0.01,0.5,0.1,,,,,,,,,,,,,,,,,,,,,,,,,,,,,,,,,,,,,,,,,,,,,,,,,,,,,,,,,,,,,,,,,,,,,,,,,,,,,,,,,
,,,,,225967,001,2025-03-14_09h00.29.757,Utility_discrimination_2024_2cat,2024.2.4,MacIntel,59.88023952,,,,,,,,3,"[0.5,0.5]","[0.383,0.924]",s,"[0.7862736646790267,0.5]","[0.21372633532097324,0.5]",96.7294,98.4259,1,s,1,0.1662,,0.351956136,0.742754434,0.390798298,98.4278,98.4279,0,55,55,55,1,0.286273665,0.286273665,shape_difference0,1,,TRUE,,intensity,0.1,0.05,0.7,0.3,0.82,20,400,1E-11,3.5,0.01,0.5,0.1,,,,,,,,,,,,,,,,,,,,,,,,,,,,,,,,,,,,,,,,,,,,,,,,,,,,,,,,,,,,,,,,,,,,,,,,,,,,,,,,,
,,,,,225967,001,2025-03-14_09h00.29.757,Utility_discrimination_2024_2cat,2024.2.4,MacIntel,59.88023952,,,,,,,,1,"[0.5,0.5]","[0.924,0.383]",s,"[0.7021803953353143,0.9877668023233168]","[0.29781960466468577,0.012233197676683127]",98.4289,100.1596,1,s,1,0.2116,,0.611473999,0.972695045,0.361221047,100.1626,100.1626,0,56,56,56,1,0.52788615,0.52788615,shape_difference3,1,,TRUE,,intensity,0.1,0.05,0.7,0.3,0.82,20,400,1E-11,3.5,0.01,0.5,0.1,,,,,,,,,,,,,,,,,,,,,,,,,,,,,,,,,,,,,,,,,,,,,,,,,,,,,,,,,,,,,,,,,,,,,,,,,,,,,,,,,
,,,,,225967,001,2025-03-14_09h00.29.757,Utility_discrimination_2024_2cat,2024.2.4,MacIntel,59.88023952,,,,,,,,2,"[0.5,0.5]","[0.707,0.707]",s,"[1.2156796461481916,0.7966507624185686]","[-0.21567964614819146,0.20334923758143147]",100.1636,101.8926,0,s,0,0.1995,,0.471212764,0.900037038,0.428824274,101.8946,101.8947,0,57,57,57,1,0.774545072,0.774545072,shape_difference1,1,,TRUE,,intensity,0.1,0.05,0.7,0.3,0.82,20,400,1E-11,3.5,0.01,0.5,0.1,,,,,,,,,,,,,,,,,,,,,,,,,,,,,,,,,,,,,,,,,,,,,,,,,,,,,,,,,,,,,,,,,,,,,,,,,,,,,,,,,
,,,,,225967,001,2025-03-14_09h00.29.757,Utility_discrimination_2024_2cat,2024.2.4,MacIntel,59.88023952,,,,,,,,4,"[0.5,0.5]","[0,1]",d,"[0.9773002401668756,0.9773002401668756]","[0.0226997598331245,0.0226997598331245]",101.8956,103.4756,1,s,1,0.05,,0.470445611,0.936076603,0.465630992,103.4769,103.4769,0,58,58,58,1,0.675106422,0.675106422,shape_difference2,1,,TRUE,,intensity,0.1,0.05,0.7,0.3,0.82,20,400,1E-11,3.5,0.01,0.5,0.1,,,,,,,,,,,,,,,,,,,,,,,,,,,,,,,,,,,,,,,,,,,,,,,,,,,,,,,,,,,,,,,,,,,,,,,,,,,,,,,,,
,,,,,225967,001,2025-03-14_09h00.29.757,Utility_discrimination_2024_2cat,2024.2.4,MacIntel,59.88023952,,,,,,,,4,"[0.5,0.5]","[0,1]",s,"[0.5,1.1888446263501011]","[0.5,-0.18884462635010102]",103.4776,105.1594,0,s,0,0.1522,,0.573638944,1.006335368,0.432696424,105.1614,105.1614,0,59,59,59,1,0.688844626,0.688844626,shape_difference4,1,,TRUE,,intensity,0.1,0.05,0.7,0.3,0.82,20,400,1E-11,3.5,0.01,0.5,0.1,,,,,,,,,,,,,,,,,,,,,,,,,,,,,,,,,,,,,,,,,,,,,,,,,,,,,,,,,,,,,,,,,,,,,,,,,,,,,,,,,
,,,,,225967,001,2025-03-14_09h00.29.757,Utility_discrimination_2024_2cat,2024.2.4,MacIntel,59.88023952,,,,,,,,0,"[0.5,0.5]","[1,0]",d,"[0.5,1.2823642469897778]","[0.5,-0.2823642469897777]",105.1624,106.7927,1,s,1,0.0996,,0.117976085,0.461318836,0.343342751,106.7957,106.7957,0,60,60,60,1,0.782364247,0.782364247,shape_difference4,1,,TRUE,,intensity,0.1,0.05,0.7,0.3,0.82,20,400,1E-11,3.5,0.01,0.5,0.1,,,,,,,,,,,,,,,,,,,,,,,,,,,,,,,,,,,,,,,,,,,,,,,,,,,,,,,,,,,,,,,,,,,,,,,,,,,,,,,,,
,,,,,225967,001,2025-03-14_09h00.29.757,Utility_discrimination_2024_2cat,2024.2.4,MacIntel,59.88023952,,,,,,,,3,"[0.5,0.5]","[0.383,0.924]",s,"[0.7740258894927635,0.5]","[0.22597411050723648,0.5]",106.7968,108.4095,1,s,1,0.0839,,0.340497721,0.6995001,0.359002379,108.4119,108.412,0,61,61,61,1,0.274025889,0.274025889,shape_difference0,1,,TRUE,,intensity,0.1,0.05,0.7,0.3,0.82,20,400,1E-11,3.5,0.01,0.5,0.1,,,,,,,,,,,,,,,,,,,,,,,,,,,,,,,,,,,,,,,,,,,,,,,,,,,,,,,,,,,,,,,,,,,,,,,,,,,,,,,,,
,,,,,225967,001,2025-03-14_09h00.29.757,Utility_discrimination_2024_2cat,2024.2.4,MacIntel,59.88023952,,,,,,,,1,"[0.5,0.5]","[0.924,0.383]",s,"[0.6937158499728608,0.9673458103783902]","[0.30628415002713916,0.03265418962160982]",108.4128,109.9926,1,s,1,0.0496,,0.667636576,1.044351711,0.376715134,109.9956,109.9956,0,62,62,62,1,0.505785509,0.505785509,shape_difference3,1,,TRUE,,intensity,0.1,0.05,0.7,0.3,0.82,20,400,1E-11,3.5,0.01,0.5,0.1,,,,,,,,,,,,,,,,,,,,,,,,,,,,,,,,,,,,,,,,,,,,,,,,,,,,,,,,,,,,,,,,,,,,,,,,,,,,,,,,,
,,,,,225967,001,2025-03-14_09h00.29.757,Utility_discrimination_2024_2cat,2024.2.4,MacIntel,59.88023952,,,,,,,,2,"[0.5,0.5]","[0.707,0.707]",s,"[1.2792092105765414,0.8229839043839993]","[-0.27920921057654147,0.17701609561600068]",109.9966,111.526,0,s,0,0.0073,,0.457246454,0.873565712,0.416319258,111.528,111.528,0,63,63,63,1,0.843300011,0.843300011,shape_difference1,1,,TRUE,,intensity,0.1,0.05,0.7,0.3,0.82,20,400,1E-11,3.5,0.01,0.5,0.1,,,,,,,,,,,,,,,,,,,,,,,,,,,,,,,,,,,,,,,,,,,,,,,,,,,,,,,,,,,,,,,,,,,,,,,,,,,,,,,,,
,,,,,225967,001,2025-03-14_09h00.29.757,Utility_discrimination_2024_2cat,2024.2.4,MacIntel,59.88023952,,,,,,,,4,"[0.5,0.5]","[0,1]",d,"[0.962533854608183,0.962533854608183]","[0.037466145391816974,0.037466145391816974]",111.5289,113.4428,1,s,1,0.3934,,0.558643553,0.978893795,0.420250242,113.4448,113.4448,0,64,64,64,1,0.654220445,0.654220445,shape_difference2,1,,TRUE,,intensity,0.1,0.05,0.7,0.3,0.82,20,400,1E-11,3.5,0.01,0.5,0.1,,,,,,,,,,,,,,,,,,,,,,,,,,,,,,,,,,,,,,,,,,,,,,,,,,,,,,,,,,,,,,,,,,,,,,,,,,,,,,,,,
,,,,,225967,001,2025-03-14_09h00.29.757,Utility_discrimination_2024_2cat,2024.2.4,MacIntel,59.88023952,,,,,,,,2,"[0.5,0.5]","[0.707,0.707]",s,"[0.5,1.2605699213662576]","[0.5,-0.26056992136625756]",113.4456,115.2928,1,s,1,0.3171,,0.447288183,0.83715019,0.389862007,115.2959,115.2959,0,65,65,65,1,0.760569921,0.760569921,shape_difference4,1,,TRUE,,intensity,0.1,0.05,0.7,0.3,0.82,20,400,1E-11,3.5,0.01,0.5,0.1,,,,,,,,,,,,,,,,,,,,,,,,,,,,,,,,,,,,,,,,,,,,,,,,,,,,,,,,,,,,,,,,,,,,,,,,,,,,,,,,,
,,,,,225967,001,2025-03-14_09h00.29.757,Utility_discrimination_2024_2cat,2024.2.4,MacIntel,59.88023952,,,,,,,,1,"[0.5,0.5]","[0.924,0.383]",s,"[0.9492485051551365,0.9492485051551365]","[0.050751494844863465,0.050751494844863465]",115.2969,117.2595,0,s,0,0.4323,,0.714474054,1.086524221,0.372050167,117.2623,117.2623,0,66,66,66,1,0.635429286,0.635429286,shape_difference2,1,,TRUE,,intensity,0.1,0.05,0.7,0.3,0.82,20,400,1E-11,3.5,0.01,0.5,0.1,,,,,,,,,,,,,,,,,,,,,,,,,,,,,,,,,,,,,,,,,,,,,,,,,,,,,,,,,,,,,,,,,,,,,,,,,,,,,,,,,
,,,,,225967,001,2025-03-14_09h00.29.757,Utility_discrimination_2024_2cat,2024.2.4,MacIntel,59.88023952,,,,,,,,3,"[0.5,0.5]","[0.383,0.924]",d,"[1.317183663071373,0.8387243971388916]","[-0.3171836630713729,0.16127560286110842]",117.2632,118.8261,1,s,1,0.0349,,0.332270981,0.679883024,0.347612044,118.828,118.8282,0,67,67,67,1,0.884397904,0.884397904,shape_difference1,1,,TRUE,,intensity,0.1,0.05,0.7,0.3,0.82,20,400,1E-11,3.5,0.01,0.5,0.1,,,,,,,,,,,,,,,,,,,,,,,,,,,,,,,,,,,,,,,,,,,,,,,,,,,,,,,,,,,,,,,,,,,,,,,,,,,,,,,,,
,,,,,225967,001,2025-03-14_09h00.29.757,Utility_discrimination_2024_2cat,2024.2.4,MacIntel,59.88023952,,,,,,,,0,"[0.5,0.5]","[1,0]",s,"[0.6876865975906746,0.9528000422291993]","[0.31231340240932537,0.047199957770800716]",118.829,120.4756,1,s,1,0.1192,,0.114422717,0.424724716,0.310301999,120.4788,120.4788,0,68,68,68,1,0.490043336,0.490043336,shape_difference3,1,,TRUE,,intensity,0.1,0.05,0.7,0.3,0.82,20,400,1E-11,3.5,0.01,0.5,0.1,,,,,,,,,,,,,,,,,,,,,,,,,,,,,,,,,,,,,,,,,,,,,,,,,,,,,,,,,,,,,,,,,,,,,,,,,,,,,,,,,
,,,,,225967,001,2025-03-14_09h00.29.757,Utility_discrimination_2024_2cat,2024.2.4,MacIntel,59.88023952,,,,,,,,0,"[0.5,0.5]","[1,0]",s,"[0.7635770917900189,0.5]","[0.23642290820998113,0.5]",120.4799,122.1262,0,s,0,0.1277,,0.163714113,0.498141768,0.334427655,122.1281,122.1283,0,69,69,69,1,0.263577092,0.263577092,shape_difference0,1,,TRUE,,intensity,0.1,0.05,0.7,0.3,0.82,20,400,1E-11,3.5,0.01,0.5,0.1,,,,,,,,,,,,,,,,,,,,,,,,,,,,,,,,,,,,,,,,,,,,,,,,,,,,,,,,,,,,,,,,,,,,,,,,,,,,,,,,,
,,,,,225967,001,2025-03-14_09h00.29.757,Utility_discrimination_2024_2cat,2024.2.4,MacIntel,59.88023952,,,,,,,,3,"[0.5,0.5]","[0.383,0.924]",d,"[0.809982945910761,0.5]","[0.19001705408923897,0.5]",122.129,123.6595,1,s,1,0.0074,,0.32623525,0.654783388,0.328548139,123.6613,123.6614,0,70,70,70,1,0.309982946,0.309982946,shape_difference0,1,,TRUE,,intensity,0.1,0.05,0.7,0.3,0.82,20,400,1E-11,3.5,0.01,0.5,0.1,,,,,,,,,,,,,,,,,,,,,,,,,,,,,,,,,,,,,,,,,,,,,,,,,,,,,,,,,,,,,,,,,,,,,,,,,,,,,,,,,
,,,,,225967,001,2025-03-14_09h00.29.757,Utility_discrimination_2024_2cat,2024.2.4,MacIntel,59.88023952,,,,,,,,4,"[0.5,0.5]","[0,1]",s,"[0.6834655075241143,0.9426165246795866]","[0.3165344924758857,0.05738347532041349]",123.6622,125.2763,1,s,1,0.0869,,0.548025476,0.946776963,0.398751487,125.2792,125.2792,0,71,71,71,1,0.479022213,0.479022213,shape_difference3,1,,TRUE,,intensity,0.1,0.05,0.7,0.3,0.82,20,400,1E-11,3.5,0.01,0.5,0.1,,,,,,,,,,,,,,,,,,,,,,,,,,,,,,,,,,,,,,,,,,,,,,,,,,,,,,,,,,,,,,,,,,,,,,,,,,,,,,,,,
,,,,,225967,001,2025-03-14_09h00.29.757,Utility_discrimination_2024_2cat,2024.2.4,MacIntel,59.88023952,,,,,,,,2,"[0.5,0.5]","[0.707,0.707]",s,"[0.5,1.2412085948577882]","[0.5,-0.24120859485778834]",125.2801,126.8096,0,s,0,0.0005,,0.511663294,0.887163143,0.375499849,126.8122,126.8122,0,72,72,72,1,0.741208595,0.741208595,shape_difference4,1,,TRUE,,intensity,0.1,0.05,0.7,0.3,0.82,20,400,1E-11,3.5,0.01,0.5,0.1,,,,,,,,,,,,,,,,,,,,,,,,,,,,,,,,,,,,,,,,,,,,,,,,,,,,,,,,,,,,,,,,,,,,,,,,,,,,,,,,,
,,,,,225967,001,2025-03-14_09h00.29.757,Utility_discrimination_2024_2cat,2024.2.4,MacIntel,59.88023952,,,,,,,,1,"[0.5,0.5]","[0.924,0.383]",d,"[0.9806270113167639,0.9806270113167639]","[0.01937298868323617,0.01937298868323617]",126.8132,128.3594,0,s,0,0.0262,,0.71091018,1.062943542,0.352033362,128.3622,128.3623,0,73,73,73,1,0.679811897,0.679811897,shape_difference2,1,,TRUE,,intensity,0.1,0.05,0.7,0.3,0.82,20,400,1E-11,3.5,0.01,0.5,0.1,,,,,,,,,,,,,,,,,,,,,,,,,,,,,,,,,,,,,,,,,,,,,,,,,,,,,,,,,,,,,,,,,,,,,,,,,,,,,,,,,
,,,,,225967,001,2025-03-14_09h00.29.757,Utility_discrimination_2024_2cat,2024.2.4,MacIntel,59.88023952,,,,,,,,1,"[0.5,0.5]","[0.924,0.383]",d,"[1.3027462714544158,0.8327400670638974]","[-0.3027462714544157,0.16725993293610258]",128.3635,129.9262,1,s,1,0.0436,,0.708214697,1.030721989,0.322507291,129.9284,129.9284,0,74,74,74,1,0.868773021,0.868773021,shape_difference1,1,,TRUE,,intensity,0.1,0.05,0.7,0.3,0.82,20,400,1E-11,3.5,0.01,0.5,0.1,,,,,,,,,,,,,,,,,,,,,,,,,,,,,,,,,,,,,,,,,,,,,,,,,,,,,,,,,,,,,,,,,,,,,,,,,,,,,,,,,
,,,,,225967,001,2025-03-14_09h00.29.757,Utility_discrimination_2024_2cat,2024.2.4,MacIntel,59.88023952,,,,,,,,3,"[0.5,0.5]","[0.383,0.924]",s,"[1.290124549352492,0.8275083359329053]","[-0.2901245493524921,0.1724916640670947]",129.9293,131.5763,1,s,1,0.119,,0.321712802,0.621449843,0.299737041,131.5791,131.5793,0,75,75,75,1,0.855113149,0.855113149,shape_difference1,1,,TRUE,,intensity,0.1,0.05,0.7,0.3,0.82,20,400,1E-11,3.5,0.01,0.5,0.1,,,,,,,,,,,,,,,,,,,,,,,,,,,,,,,,,,,,,,,,,,,,,,,,,,,,,,,,,,,,,,,,,,,,,,,,,,,,,,,,,
,,,,,225967,001,2025-03-14_09h00.29.757,Utility_discrimination_2024_2cat,2024.2.4,MacIntel,59.88023952,,,,,,,,4,"[0.5,0.5]","[0,1]",s,"[0.679915608784969,0.9340522781130844]","[0.32008439121503096,0.0659477218869155]",131.5803,133.2932,1,s,1,0.1945,,0.61274458,0.990414893,0.377670312,133.2956,133.2956,0,76,76,76,1,0.469753548,0.469753548,shape_difference3,1,,TRUE,,intensity,0.1,0.05,0.7,0.3,0.82,20,400,1E-11,3.5,0.01,0.5,0.1,,,,,,,,,,,,,,,,,,,,,,,,,,,,,,,,,,,,,,,,,,,,,,,,,,,,,,,,,,,,,,,,,,,,,,,,,,,,,,,,,
,,,,,225967,001,2025-03-14_09h00.29.757,Utility_discrimination_2024_2cat,2024.2.4,MacIntel,59.88023952,,,,,,,,0,"[0.5,0.5]","[1,0]",s,"[0.5,1.285581951883131]","[0.5,-0.2855819518831312]",133.2965,135.0094,1,s,1,0.193,,0.150630923,0.478184087,0.327553164,135.0115,135.0118,0,77,77,77,1,0.785581952,0.785581952,shape_difference4,1,,TRUE,,intensity,0.1,0.05,0.7,0.3,0.82,20,400,1E-11,3.5,0.01,0.5,0.1,,,,,,,,,,,,,,,,,,,,,,,,,,,,,,,,,,,,,,,,,,,,,,,,,,,,,,,,,,,,,,,,,,,,,,,,,,,,,,,,,
,,,,,225967,001,2025-03-14_09h00.29.757,Utility_discrimination_2024_2cat,2024.2.4,MacIntel,59.88023952,,,,,,,,2,"[0.5,0.5]","[0.707,0.707]",s,"[0.7938612280529156,0.5]","[0.20613877194708435,0.5]",135.0128,136.6262,1,s,1,0.0928,,0.573086776,0.967280933,0.394194157,136.6288,136.6289,0,78,78,78,1,0.293861228,0.293861228,shape_difference0,1,,TRUE,,intensity,0.1,0.05,0.7,0.3,0.82,20,400,1E-11,3.5,0.01,0.5,0.1,,,,,,,,,,,,,,,,,,,,,,,,,,,,,,,,,,,,,,,,,,,,,,,,,,,,,,,,,,,,,,,,,,,,,,,,,,,,,,,,,
,,,,,225967,001,2025-03-14_09h00.29.757,Utility_discrimination_2024_2cat,2024.2.4,MacIntel,59.88023952,,,,,,,,2,"[0.5,0.5]","[0.707,0.707]",s,"[1.0320617363484517,1.0320617363484517]","[-0.03206173634845155,-0.03206173634845155]",136.6298,138.1595,0,s,0,0.0024,,0.643045736,1.056509286,0.413463551,138.1619,138.162,0,79,79,79,1,0.752562569,0.752562569,shape_difference2,1,,TRUE,,intensity,0.1,0.05,0.7,0.3,0.82,20,400,1E-11,3.5,0.01,0.5,0.1,,,,,,,,,,,,,,,,,,,,,,,,,,,,,,,,,,,,,,,,,,,,,,,,,,,,,,,,,,,,,,,,,,,,,,,,,,,,,,,,,
,,,,,225967,001,2025-03-14_09h00.29.757,Utility_discrimination_2024_2cat,2024.2.4,MacIntel,59.88023952,,,,,,,,3,"[0.5,0.5]","[0.383,0.924]",d,"[1.0947286384376416,1.0947286384376416]","[-0.09472863843764157,-0.09472863843764157]",138.1629,139.7762,0,s,0,0.084,,0.318255388,0.59524514,0.276989753,139.7789,139.779,0,80,80,80,1,0.841200337,0.841200337,shape_difference2,1,,TRUE,,intensity,0.1,0.05,0.7,0.3,0.82,20,400,1E-11,3.5,0.01,0.5,0.1,,,,,,,,,,,,,,,,,,,,,,,,,,,,,,,,,,,,,,,,,,,,,,,,,,,,,,,,,,,,,,,,,,,,,,,,,,,,,,,,,
,,,,,225967,001,2025-03-14_09h00.29.757,Utility_discrimination_2024_2cat,2024.2.4,MacIntel,59.88023952,,,,,,,,4,"[0.5,0.5]","[0,1]",d,"[0.6768217189131406,0.9265881678217803]","[0.3231782810868594,0.07341183217821967]",139.78,141.326,0,s,0,0.0166,,0.608971113,0.966867311,0.357896198,141.327,141.3271,0,81,81,81,1,0.461675506,0.461675506,shape_difference3,1,,TRUE,,intensity,0.1,0.05,0.7,0.3,0.82,20,400,1E-11,3.5,0.01,0.5,0.1,,,,,,,,,,,,,,,,,,,,,,,,,,,,,,,,,,,,,,,,,,,,,,,,,,,,,,,,,,,,,,,,,,,,,,,,,,,,,,,,,
,,,,,225967,001,2025-03-14_09h00.29.757,Utility_discrimination_2024_2cat,2024.2.4,MacIntel,59.88023952,,,,,,,,1,"[0.5,0.5]","[0.924,0.383]",d,"[0.5,1.2695055066758814]","[0.5,-0.26950550667588125]",141.3276,143.043,0,s,0,0.1838,,0.706116362,0.996273911,0.290157549,143.045,143.0452,0,82,82,82,1,0.769505507,0.769505507,shape_difference4,1,,TRUE,,intensity,0.1,0.05,0.7,0.3,0.82,20,400,1E-11,3.5,0.01,0.5,0.1,,,,,,,,,,,,,,,,,,,,,,,,,,,,,,,,,,,,,,,,,,,,,,,,,,,,,,,,,,,,,,,,,,,,,,,,,,,,,,,,,
,,,,,225967,001,2025-03-14_09h00.29.757,Utility_discrimination_2024_2cat,2024.2.4,MacIntel,59.88023952,,,,,,,,0,"[0.5,0.5]","[1,0]",d,"[1.2785908515320608,0.8227275932216227]","[-0.27859085153206087,0.17727240677837736]",143.0461,144.6255,1,s,1,0.0591,,0.141005717,0.453059842,0.312054125,144.6275,144.6276,0,83,83,83,1,0.842630792,0.842630792,shape_difference1,1,,TRUE,,intensity,0.1,0.05,0.7,0.3,0.82,20,400,1E-11,3.5,0.01,0.5,0.1,,,,,,,,,,,,,,,,,,,,,,,,,,,,,,,,,,,,,,,,,,,,,,,,,,,,,,,,,,,,,,,,,,,,,,,,,,,,,,,,,
,,,,,225967,001,2025-03-14_09h00.29.757,Utility_discrimination_2024_2cat,2024.2.4,MacIntel,59.88023952,,,,,,,,4,"[0.5,0.5]","[0,1]",s,"[0.7839850532163326,0.5]","[0.21601494678366745,0.5]",144.6285,146.443,0,s,0,0.2836,,0.660625253,1.03941762,0.378792366,146.4447,146.4448,0,84,84,84,1,0.283985053,0.283985053,shape_difference0,1,,TRUE,,intensity,0.1,0.05,0.7,0.3,0.82,20,400,1E-11,3.5,0.01,0.5,0.1,,,,,,,,,,,,,,,,,,,,,,,,,,,,,,,,,,,,,,,,,,,,,,,,,,,,,,,,,,,,,,,,,,,,,,,,,,,,,,,,,
,,,,,225967,001,2025-03-14_09h00.29.757,Utility_discrimination_2024_2cat,2024.2.4,MacIntel,59.88023952,,,,,,,,2,"[0.5,0.5]","[0.707,0.707]",d,"[0.5,1.3393120390486586]","[0.5,-0.3393120390486587]",146.4456,148.0762,1,s,1,0.1005,,0.711738788,1.096191743,0.384452954,148.0792,148.0793,0,85,85,85,1,0.839312039,0.839312039,shape_difference4,1,,TRUE,,intensity,0.1,0.05,0.7,0.3,0.82,20,400,1E-11,3.5,0.01,0.5,0.1,,,,,,,,,,,,,,,,,,,,,,,,,,,,,,,,,,,,,,,,,,,,,,,,,,,,,,,,,,,,,,,,,,,,,,,,,,,,,,,,,
,,,,,225967,001,2025-03-14_09h00.29.757,Utility_discrimination_2024_2cat,2024.2.4,MacIntel,59.88023952,,,,,,,,0,"[0.5,0.5]","[1,0]",s,"[1.1296071544148325,1.1296071544148325]","[-0.1296071544148324,-0.1296071544148324]",148.0801,149.8428,1,s,1,0.2355,,0.204482172,0.502808236,0.298326064,149.8447,149.8448,0,86,86,86,1,0.890533457,0.890533457,shape_difference2,1,,TRUE,,intensity,0.1,0.05,0.7,0.3,0.82,20,400,1E-11,3.5,0.01,0.5,0.1,,,,,,,,,,,,,,,,,,,,,,,,,,,,,,,,,,,,,,,,,,,,,,,,,,,,,,,,,,,,,,,,,,,,,,,,,,,,,,,,,
,,,,,225967,001,2025-03-14_09h00.29.757,Utility_discrimination_2024_2cat,2024.2.4,MacIntel,59.88023952,,,,,,,,1,"[0.5,0.5]","[0.924,0.383]",s,"[0.8278819770279995,0.5]","[0.17211802297200052,0.5]",149.8456,151.6096,0,s,0,0.2362,,0.703621677,0.984796061,0.281174385,151.6118,151.6119,0,87,87,87,1,0.327881977,0.327881977,shape_difference0,1,,TRUE,,intensity,0.1,0.05,0.7,0.3,0.82,20,400,1E-11,3.5,0.01,0.5,0.1,,,,,,,,,,,,,,,,,,,,,,,,,,,,,,,,,,,,,,,,,,,,,,,,,,,,,,,,,,,,,,,,,,,,,,,,,,,,,,,,,
,,,,,225967,001,2025-03-14_09h00.29.757,Utility_discrimination_2024_2cat,2024.2.4,MacIntel,59.88023952,,,,,,,,3,"[0.5,0.5]","[0.383,0.924]",d,"[1.2665501120844618,0.8177366806583861]","[-0.26655011208446167,0.18226331934161383]",151.613,153.1431,1,s,1,0.0004,,0.366692129,0.66905109,0.302358961,153.1454,153.1455,0,88,88,88,1,0.829599688,0.829599688,shape_difference1,1,,TRUE,,intensity,0.1,0.05,0.7,0.3,0.82,20,400,1E-11,3.5,0.01,0.5,0.1,,,,,,,,,,,,,,,,,,,,,,,,,,,,,,,,,,,,,,,,,,,,,,,,,,,,,,,,,,,,,,,,,,,,,,,,,,,,,,,,,
,,,,,225967,001,2025-03-14_09h00.29.757,Utility_discrimination_2024_2cat,2024.2.4,MacIntel,59.88023952,,,,,,,,2,"[0.5,0.5]","[0.707,0.707]",s,"[0.6896695460812098,0.9575839701802555]","[0.3103304539187902,0.042416029819744516]",153.1463,154.9268,1,s,1,0.2611,,0.707793035,1.075050104,0.367257069,154.9289,154.9289,0,89,89,89,1,0.495220747,0.495220747,shape_difference3,1,,TRUE,,intensity,0.1,0.05,0.7,0.3,0.82,20,400,1E-11,3.5,0.01,0.5,0.1,,,,,,,,,,,,,,,,,,,,,,,,,,,,,,,,,,,,,,,,,,,,,,,,,,,,,,,,,,,,,,,,,,,,,,,,,,,,,,,,,
,,,,,225967,001,2025-03-14_09h00.29.757,Utility_discrimination_2024_2cat,2024.2.4,MacIntel,59.88023952,,,,,,,,3,"[0.5,0.5]","[0.383,0.924]",s,"[1.1168950011877161,1.1168950011877161]","[-0.11689500118771612,-0.11689500118771612]",154.9299,156.7098,0,s,0,0.25,,0.353968149,0.644989594,0.291021445,156.712,156.7121,0,90,90,90,1,0.872553043,0.872553043,shape_difference2,1,,TRUE,,intensity,0.1,0.05,0.7,0.3,0.82,20,400,1E-11,3.5,0.01,0.5,0.1,,,,,,,,,,,,,,,,,,,,,,,,,,,,,,,,,,,,,,,,,,,,,,,,,,,,,,,,,,,,,,,,,,,,,,,,,,,,,,,,,
,,,,,225967,001,2025-03-14_09h00.29.757,Utility_discrimination_2024_2cat,2024.2.4,MacIntel,59.88023952,,,,,,,,0,"[0.5,0.5]","[1,0]",d,"[0.6861224849579683,0.949026569454733]","[0.31387751504203165,0.05097343054526704]",156.713,158.4264,1,s,1,0.1928,,0.213957976,0.572878436,0.35892046,158.4283,158.4284,0,91,91,91,1,0.485959491,0.485959491,shape_difference3,1,,TRUE,,intensity,0.1,0.05,0.7,0.3,0.82,20,400,1E-11,3.5,0.01,0.5,0.1,,,,,,,,,,,,,,,,,,,,,,,,,,,,,,,,,,,,,,,,,,,,,,,,,,,,,,,,,,,,,,,,,,,,,,,,,,,,,,,,,
,,,,,225967,001,2025-03-14_09h00.29.757,Utility_discrimination_2024_2cat,2024.2.4,MacIntel,59.88023952,,,,,,,,1,"[0.5,0.5]","[0.924,0.383]",s,"[0.8633143505734978,0.5]","[0.1366856494265022,0.5]",158.4293,160.2097,1,s,1,0.2497,,0.701319325,0.9707594,0.269440075,160.2123,160.2124,0,92,92,92,1,0.363314351,0.363314351,shape_difference0,1,,TRUE,,intensity,0.1,0.05,0.7,0.3,0.82,20,400,1E-11,3.5,0.01,0.5,0.1,,,,,,,,,,,,,,,,,,,,,,,,,,,,,,,,,,,,,,,,,,,,,,,,,,,,,,,,,,,,,,,,,,,,,,,,,,,,,,,,,
,,,,,225967,001,2025-03-14_09h00.29.757,Utility_discrimination_2024_2cat,2024.2.4,MacIntel,59.88023952,,,,,,,,4,"[0.5,0.5]","[0,1]",s,"[1.2532927500882631,0.8122414754153732]","[-0.25329275008826324,0.18775852458462683]",160.2132,161.8097,0,s,0,0.0676,,0.64668204,1.001653536,0.354971496,161.812,161.8121,0,93,93,93,1,0.815251894,0.815251894,shape_difference1,1,,TRUE,,intensity,0.1,0.05,0.7,0.3,0.82,20,400,1E-11,3.5,0.01,0.5,0.1,,,,,,,,,,,,,,,,,,,,,,,,,,,,,,,,,,,,,,,,,,,,,,,,,,,,,,,,,,,,,,,,,,,,,,,,,,,,,,,,,
,,,,,225967,001,2025-03-14_09h00.29.757,Utility_discrimination_2024_2cat,2024.2.4,MacIntel,59.88023952,,,,,,,,0,"[0.5,0.5]","[1,0]",d,"[0.5,1.31967640109375]","[0.5,-0.31967640109375006]",161.8131,163.4598,0,s,0,0.1177,,0.211689105,0.532735196,0.321046092,163.4626,163.4627,0,94,94,94,1,0.819676401,0.819676401,shape_difference4,1,,TRUE,,intensity,0.1,0.05,0.7,0.3,0.82,20,400,1E-11,3.5,0.01,0.5,0.1,,,,,,,,,,,,,,,,,,,,,,,,,,,,,,,,,,,,,,,,,,,,,,,,,,,,,,,,,,,,,,,,,,,,,,,,,,,,,,,,,
,,,,,225967,001,2025-03-14_09h00.29.757,Utility_discrimination_2024_2cat,2024.2.4,MacIntel,59.88023952,,,,,,,,1,"[0.5,0.5]","[0.924,0.383]",d,"[0.8508066687810768,0.5]","[0.1491933312189232,0.5]",163.4635,165.3263,1,s,1,0.3427,,0.711483878,0.996586324,0.285102446,165.3285,165.3286,0,95,95,95,1,0.350806669,0.350806669,shape_difference0,1,,TRUE,,intensity,0.1,0.05,0.7,0.3,0.82,20,400,1E-11,3.5,0.01,0.5,0.1,,,,,,,,,,,,,,,,,,,,,,,,,,,,,,,,,,,,,,,,,,,,,,,,,,,,,,,,,,,,,,,,,,,,,,,,,,,,,,,,,
,,,,,225967,001,2025-03-14_09h00.29.757,Utility_discrimination_2024_2cat,2024.2.4,MacIntel,59.88023952,,,,,,,,4,"[0.5,0.5]","[0,1]",s,"[1.285880596206453,0.8257492081678263]","[-0.285880596206453,0.17425079183217373]",165.3296,166.9597,0,s,0,0.1004,,0.709060473,1.066831949,0.357771476,166.9616,166.9618,0,96,96,96,1,0.850520126,0.850520126,shape_difference1,1,,TRUE,,intensity,0.1,0.05,0.7,0.3,0.82,20,400,1E-11,3.5,0.01,0.5,0.1,,,,,,,,,,,,,,,,,,,,,,,,,,,,,,,,,,,,,,,,,,,,,,,,,,,,,,,,,,,,,,,,,,,,,,,,,,,,,,,,,
,,,,,225967,001,2025-03-14_09h00.29.757,Utility_discrimination_2024_2cat,2024.2.4,MacIntel,59.88023952,,,,,,,,3,"[0.5,0.5]","[0.383,0.924]",d,"[0.5,1.3674281242465112]","[0.5,-0.3674281242465113]",166.9627,168.5431,1,s,1,0.0598,,0.3443762,0.613453214,0.269077014,168.5449,168.5451,0,97,97,97,1,0.867428124,0.867428124,shape_difference4,1,,TRUE,,intensity,0.1,0.05,0.7,0.3,0.82,20,400,1E-11,3.5,0.01,0.5,0.1,,,,,,,,,,,,,,,,,,,,,,,,,,,,,,,,,,,,,,,,,,,,,,,,,,,,,,,,,,,,,,,,,,,,,,,,,,,,,,,,,
,,,,,225967,001,2025-03-14_09h00.29.757,Utility_discrimination_2024_2cat,2024.2.4,MacIntel,59.88023952,,,,,,,,2,"[0.5,0.5]","[0.707,0.707]",s,"[0.6832236695422252,0.9420330826553946]","[0.31677633045777476,0.057966917344605406]",168.546,170.2431,1,s,1,0.1784,,0.761579317,1.147788021,0.386208704,170.2451,170.2452,0,98,98,98,1,0.478390782,0.478390782,shape_difference3,1,,TRUE,,intensity,0.1,0.05,0.7,0.3,0.82,20,400,1E-11,3.5,0.01,0.5,0.1,,,,,,,,,,,,,,,,,,,,,,,,,,,,,,,,,,,,,,,,,,,,,,,,,,,,,,,,,,,,,,,,,,,,,,,,,,,,,,,,,
,,,,,225967,001,2025-03-14_09h00.29.757,Utility_discrimination_2024_2cat,2024.2.4,MacIntel,59.88023952,,,,,,,,1,"[0.5,0.5]","[0.924,0.383]",s,"[1.1694405347600934,1.1694405347600934]","[-0.16944053476009346,-0.16944053476009346]",170.2462,171.9264,1,s,1,0.1585,,0.743215279,1.077126228,0.333910949,171.9284,171.9284,0,99,99,99,1,0.946874872,0.946874872,shape_difference2,1,,TRUE,,intensity,0.1,0.05,0.7,0.3,0.82,20,400,1E-11,3.5,0.01,0.5,0.1,,,,,,,,,,,,,,,,,,,,,,,,,,,,,,,,,,,,,,,,,,,,,,,,,,,,,,,,,,,,,,,,,,,,,,,,,,,,,,,,,
,,,,,225967,001,2025-03-14_09h00.29.757,Utility_discrimination_2024_2cat,2024.2.4,MacIntel,59.88023952,,,,,,,,4,"[0.5,0.5]","[0,1]",s,"[1.3287538981859173,0.8435202846376691]","[-0.32875389818591727,0.15647971536233085]",171.9293,173.7931,1,s,1,0.3336,,0.706430978,1.034974227,0.328543249,173.7953,173.7953,0,100,100,100,1,0.896919803,0.896919803,shape_difference1,1,,TRUE,,intensity,0.1,0.05,0.7,0.3,0.82,20,400,1E-11,3.5,0.01,0.5,0.1,,,,,,,,,,,,,,,,,,,,,,,,,,,,,,,,,,,,,,,,,,,,,,,,,,,,,,,,,,,,,,,,,,,,,,,,,,,,,,,,,
,,,,,225967,001,2025-03-14_09h00.29.757,Utility_discrimination_2024_2cat,2024.2.4,MacIntel,59.88023952,,,,,,,,2,"[0.5,0.5]","[0.707,0.707]",s,"[0.5,1.3528422827925142]","[0.5,-0.35284228279251406]",173.7965,175.376,1,s,1,0.0504,,0.74696059,1.115126671,0.368166081,175.3768,175.3768,0,101,101,101,1,0.852842283,0.852842283,shape_difference4,1,,TRUE,,intensity,0.1,0.05,0.7,0.3,0.82,20,400,1E-11,3.5,0.01,0.5,0.1,,,,,,,,,,,,,,,,,,,,,,,,,,,,,,,,,,,,,,,,,,,,,,,,,,,,,,,,,,,,,,,,,,,,,,,,,,,,,,,,,
,,,,,225967,001,2025-03-14_09h00.29.757,Utility_discrimination_2024_2cat,2024.2.4,MacIntel,59.88023952,,,,,,,,0,"[0.5,0.5]","[1,0]",s,"[1.1558326462081108,1.1558326462081108]","[-0.15583264620811066,-0.15583264620811066]",175.3773,177.2591,0,s,0,0.3529,,0.209964334,0.494131659,0.284167325,177.2609,177.2611,0,102,102,102,1,0.927627505,0.927627505,shape_difference2,1,,TRUE,,intensity,0.1,0.05,0.7,0.3,0.82,20,400,1E-11,3.5,0.01,0.5,0.1,,,,,,,,,,,,,,,,,,,,,,,,,,,,,,,,,,,,,,,,,,,,,,,,,,,,,,,,,,,,,,,,,,,,,,,,,,,,,,,,,
,,,,,225967,001,2025-03-14_09h00.29.757,Utility_discrimination_2024_2cat,2024.2.4,MacIntel,59.88023952,,,,,,,,3,"[0.5,0.5]","[0.383,0.924]",d,"[0.83937960744246,0.5]","[0.16062039255754001,0.5]",177.262,178.793,1,s,1,0.0093,,0.337019614,0.595231057,0.258211444,178.7951,178.7951,0,103,103,103,1,0.339379607,0.339379607,shape_difference0,1,,TRUE,,intensity,0.1,0.05,0.7,0.3,0.82,20,400,1E-11,3.5,0.01,0.5,0.1,,,,,,,,,,,,,,,,,,,,,,,,,,,,,,,,,,,,,,,,,,,,,,,,,,,,,,,,,,,,,,,,,,,,,,,,,,,,,,,,,
,,,,,225967,001,2025-03-14_09h00.29.757,Utility_discrimination_2024_2cat,2024.2.4,MacIntel,59.88023952,,,,,,,,3,"[0.5,0.5]","[0.383,0.924]",s,"[0.680797365082857,0.9361795439596865]","[0.31920263491714296,0.0638204560403135]",178.796,180.3765,0,s,0,0.0508,,0.402505968,0.655639628,0.25313366,180.3791,180.3791,0,104,104,104,1,0.472055784,0.472055784,shape_difference3,1,,TRUE,,intensity,0.1,0.05,0.7,0.3,0.82,20,400,1E-11,3.5,0.01,0.5,0.1,,,,,,,,,,,,,,,,,,,,,,,,,,,,,,,,,,,,,,,,,,,,,,,,,,,,,,,,,,,,,,,,,,,,,,,,,,,,,,,,,
,,,,,225967,001,2025-03-14_09h00.29.757,Utility_discrimination_2024_2cat,2024.2.4,MacIntel,59.88023952,,,,,,,,4,"[0.5,0.5]","[0,1]",d,"[0.6903651866421702,0.9592622257372461]","[0.30963481335782983,0.040737774262753934]",180.38,182.0764,0,s,0,0.1737,,0.704373227,0.997340468,0.292967241,182.0782,182.0783,0,105,105,105,1,0.497037041,0.497037041,shape_difference3,1,,TRUE,,intensity,0.1,0.05,0.7,0.3,0.82,20,400,1E-11,3.5,0.01,0.5,0.1,,,,,,,,,,,,,,,,,,,,,,,,,,,,,,,,,,,,,,,,,,,,,,,,,,,,,,,,,,,,,,,,,,,,,,,,,,,,,,,,,
,,,,,225967,001,2025-03-14_09h00.29.757,Utility_discrimination_2024_2cat,2024.2.4,MacIntel,59.88023952,,,,,,,,1,"[0.5,0.5]","[0.924,0.383]",d,"[0.5,1.3394726648813262]","[0.5,-0.3394726648813261]",182.0791,183.7434,1,s,1,0.135,,0.735008531,1.056448917,0.321440386,183.7461,183.7461,0,106,106,106,1,0.839472665,0.839472665,shape_difference4,1,,TRUE,,intensity,0.1,0.05,0.7,0.3,0.82,20,400,1E-11,3.5,0.01,0.5,0.1,,,,,,,,,,,,,,,,,,,,,,,,,,,,,,,,,,,,,,,,,,,,,,,,,,,,,,,,,,,,,,,,,,,,,,,,,,,,,,,,,
,,,,,225967,001,2025-03-14_09h00.29.757,Utility_discrimination_2024_2cat,2024.2.4,MacIntel,59.88023952,,,,,,,,2,"[0.5,0.5]","[0.707,0.707]",s,"[1.3184121078104574,0.8392335901422133]","[-0.31841210781045726,0.16076640985778667]",183.747,185.3767,0,s,0,0.1031,,0.810106956,1.17126336,0.361156404,185.3792,185.3793,0,107,107,107,1,0.885727389,0.885727389,shape_difference1,1,,TRUE,,intensity,0.1,0.05,0.7,0.3,0.82,20,400,1E-11,3.5,0.01,0.5,0.1,,,,,,,,,,,,,,,,,,,,,,,,,,,,,,,,,,,,,,,,,,,,,,,,,,,,,,,,,,,,,,,,,,,,,,,,,,,,,,,,,
,,,,,225967,001,2025-03-14_09h00.29.757,Utility_discrimination_2024_2cat,2024.2.4,MacIntel,59.88023952,,,,,,,,0,"[0.5,0.5]","[1,0]",d,"[1.1885537526601364,1.1885537526601364]","[-0.1885537526601364,-0.1885537526601364]",185.3801,186.9595,0,s,0,0.0572,,0.208273011,0.480375721,0.27210271,186.9607,186.9607,0,108,108,108,1,0.973909127,0.973909127,shape_difference2,1,,TRUE,,intensity,0.1,0.05,0.7,0.3,0.82,20,400,1E-11,3.5,0.01,0.5,0.1,,,,,,,,,,,,,,,,,,,,,,,,,,,,,,,,,,,,,,,,,,,,,,,,,,,,,,,,,,,,,,,,,,,,,,,,,,,,,,,,,
,,,,,225967,001,2025-03-14_09h00.29.757,Utility_discrimination_2024_2cat,2024.2.4,MacIntel,59.88023952,,,,,,,,4,"[0.5,0.5]","[0,1]",d,"[0.8274644025774819,0.5]","[0.17253559742251812,0.5]",186.9613,188.5431,1,s,1,0.0501,,0.701777624,0.985207579,0.283429955,188.5453,188.5453,0,109,109,109,1,0.327464403,0.327464403,shape_difference0,1,,TRUE,,intensity,0.1,0.05,0.7,0.3,0.82,20,400,1E-11,3.5,0.01,0.5,0.1,,,,,,,,,,,,,,,,,,,,,,,,,,,,,,,,,,,,,,,,,,,,,,,,,,,,,,,,,,,,,,,,,,,,,,,,,,,,,,,,,
,,,,,225967,001,2025-03-14_09h00.29.757,Utility_discrimination_2024_2cat,2024.2.4,MacIntel,59.88023952,,,,,,,,1,"[0.5,0.5]","[0.924,0.383]",s,"[0.5,1.3253134855629143]","[0.5,-0.3253134855629143]",188.5463,190.1103,0,s,0,0.0446,,0.803586328,1.0963524,0.292766072,190.1122,190.1123,0,110,110,110,1,0.825313486,0.825313486,shape_difference4,1,,TRUE,,intensity,0.1,0.05,0.7,0.3,0.82,20,400,1E-11,3.5,0.01,0.5,0.1,,,,,,,,,,,,,,,,,,,,,,,,,,,,,,,,,,,,,,,,,,,,,,,,,,,,,,,,,,,,,,,,,,,,,,,,,,,,,,,,,
,,,,,225967,001,2025-03-14_09h00.29.757,Utility_discrimination_2024_2cat,2024.2.4,MacIntel,59.88023952,,,,,,,,3,"[0.5,0.5]","[0.383,0.924]",d,"[1.3627354878574138,0.8576057271097288]","[-0.3627354878574137,0.14239427289027118]",190.1132,192.2272,1,s,1,0.595,,0.409763722,0.692052364,0.282288642,192.2293,192.2294,0,111,111,111,1,0.933696415,0.933696415,shape_difference1,1,,TRUE,,intensity,0.1,0.05,0.7,0.3,0.82,20,400,1E-11,3.5,0.01,0.5,0.1,,,,,,,,,,,,,,,,,,,,,,,,,,,,,,,,,,,,,,,,,,,,,,,,,,,,,,,,,,,,,,,,,,,,,,,,,,,,,,,,,
,,,,,225967,001,2025-03-14_09h00.29.757,Utility_discrimination_2024_2cat,2024.2.4,MacIntel,59.88023952,,,,,,,,0,"[0.5,0.5]","[1,0]",s,"[0.7056682712893936,0.9961814168966049]","[0.2943317287106064,0.0038185831033951123]",192.2303,193.9433,0,s,0,0.1849,,0.206842358,0.463709587,0.256867229,193.9461,193.9463,0,112,112,112,1,0.536992875,0.536992875,shape_difference3,1,,TRUE,,intensity,0.1,0.05,0.7,0.3,0.82,20,400,1E-11,3.5,0.01,0.5,0.1,,,,,,,,,,,,,,,,,,,,,,,,,,,,,,,,,,,,,,,,,,,,,,,,,,,,,,,,,,,,,,,,,,,,,,,,,,,,,,,,,
,,,,,225967,001,2025-03-14_09h00.29.757,Utility_discrimination_2024_2cat,2024.2.4,MacIntel,59.88023952,,,,,,,,2,"[0.5,0.5]","[0.707,0.707]",d,"[0.8143906072733046,0.5]","[0.1856093927266954,0.5]",193.9473,195.6765,1,s,1,0.2097,,0.863843585,1.236860908,0.373017323,195.6783,195.6785,0,113,113,113,1,0.314390607,0.314390607,shape_difference0,1,,TRUE,,intensity,0.1,0.05,0.7,0.3,0.82,20,400,1E-11,3.5,0.01,0.5,0.1,,,,,,,,,,,,,,,,,,,,,,,,,,,,,,,,,,,,,,,,,,,,,,,,,,,,,,,,,,,,,,,,,,,,,,,,,,,,,,,,,
,,,,,225967,001,2025-03-14_09h00.29.757,Utility_discrimination_2024_2cat,2024.2.4,MacIntel,59.88023952,,,,,,,,4,"[0.5,0.5]","[0,1]",s,"[1.2388902961273884,1.2388902961273884]","[-0.23889029612738855,-0.23889029612738855]",195.6794,197.2092,1,s,1,0.0002,,0.713017534,1.025417463,0.312399929,197.2113,197.2114,0,114,114,114,1,1.045106501,1.045106501,shape_difference2,1,,TRUE,,intensity,0.1,0.05,0.7,0.3,0.82,20,400,1E-11,3.5,0.01,0.5,0.1,,,,,,,,,,,,,,,,,,,,,,,,,,,,,,,,,,,,,,,,,,,,,,,,,,,,,,,,,,,,,,,,,,,,,,,,,,,,,,,,,
,,,,,225967,001,2025-03-14_09h00.29.757,Utility_discrimination_2024_2cat,2024.2.4,MacIntel,59.88023952,,,,,,,,3,"[0.5,0.5]","[0.383,0.924]",s,"[0.5,1.3593783660529852]","[0.5,-0.3593783660529851]",197.2124,198.7766,0,s,0,0.0339,,0.417013457,0.742352708,0.325339252,198.779,198.7792,0,115,115,115,1,0.859378366,0.859378366,shape_difference4,1,,TRUE,,intensity,0.1,0.05,0.7,0.3,0.82,20,400,1E-11,3.5,0.01,0.5,0.1,,,,,,,,,,,,,,,,,,,,,,,,,,,,,,,,,,,,,,,,,,,,,,,,,,,,,,,,,,,,,,,,,,,,,,,,,,,,,,,,,
,,,,,225967,001,2025-03-14_09h00.29.757,Utility_discrimination_2024_2cat,2024.2.4,MacIntel,59.88023952,,,,,,,,2,"[0.5,0.5]","[0.707,0.707]",d,"[0.7159711427215404,1.021037430482254]","[0.2840288572784596,-0.021037430482254038]",198.7804,200.51,1,s,1,0.2,,0.848873923,1.201880338,0.353006414,200.5125,200.5126,0,116,116,116,1,0.563893323,0.563893323,shape_difference3,1,,TRUE,,intensity,0.1,0.05,0.7,0.3,0.82,20,400,1E-11,3.5,0.01,0.5,0.1,,,,,,,,,,,,,,,,,,,,,,,,,,,,,,,,,,,,,,,,,,,,,,,,,,,,,,,,,,,,,,,,,,,,,,,,,,,,,,,,,
,,,,,225967,001,2025-03-14_09h00.29.757,Utility_discrimination_2024_2cat,2024.2.4,MacIntel,59.88023952,,,,,,,,0,"[0.5,0.5]","[1,0]",s,"[1.22575020414246,1.22575020414246]","[-0.22575020414245994,-0.22575020414245994]",200.5136,202.076,1,s,1,0.0421,,0.205590999,0.442901072,0.237310073,202.0779,202.0781,0,117,117,117,1,1.026520798,1.026520798,shape_difference2,1,,TRUE,,intensity,0.1,0.05,0.7,0.3,0.82,20,400,1E-11,3.5,0.01,0.5,0.1,,,,,,,,,,,,,,,,,,,,,,,,,,,,,,,,,,,,,,,,,,,,,,,,,,,,,,,,,,,,,,,,,,,,,,,,,,,,,,,,,
,,,,,225967,001,2025-03-14_09h00.29.757,Utility_discrimination_2024_2cat,2024.2.4,MacIntel,59.88023952,,,,,,,,1,"[0.5,0.5]","[0.924,0.383]",s,"[0.7998162600018504,0.5]","[0.20018373999814965,0.5]",202.079,203.71,0,s,0,0.1008,,0.801148283,1.083322771,0.282174487,203.7126,203.7127,0,118,118,118,1,0.29981626,0.29981626,shape_difference0,1,,TRUE,,intensity,0.1,0.05,0.7,0.3,0.82,20,400,1E-11,3.5,0.01,0.5,0.1,,,,,,,,,,,,,,,,,,,,,,,,,,,,,,,,,,,,,,,,,,,,,,,,,,,,,,,,,,,,,,,,,,,,,,,,,,,,,,,,,
,,,,,225967,001,2025-03-14_09h00.29.757,Utility_discrimination_2024_2cat,2024.2.4,MacIntel,59.88023952,,,,,,,,0,"[0.5,0.5]","[1,0]",d,"[1.3483700176416509,0.8516512086112038]","[-0.3483700176416509,0.1483487913887962]",203.7138,205.3592,0,s,0,0.1184,,0.210794326,0.48173952,0.270945193,205.3613,205.3614,0,119,119,119,1,0.91814937,0.91814937,shape_difference1,1,,TRUE,,intensity,0.1,0.05,0.7,0.3,0.82,20,400,1E-11,3.5,0.01,0.5,0.1,,,,,,,,,,,,,,,,,,,,,,,,,,,,,,,,,,,,,,,,,,,,,,,,,,,,,,,,,,,,,,,,,,,,,,,,,,,,,,,,,
,,,,,225967,001,2025-03-14_09h00.29.757,Utility_discrimination_2024_2cat,2024.2.4,MacIntel,59.88023952,,,,,,,,1,"[0.5,0.5]","[0.924,0.383]",d,"[0.836319728675545,0.5]","[0.1636802713244549,0.5]",205.3625,206.9932,0,s,0,0.1026,,0.81182544,1.12418583,0.312360389,206.995,206.9952,0,120,120,120,1,0.336319729,0.336319729,shape_difference0,1,,TRUE,,intensity,0.1,0.05,0.7,0.3,0.82,20,400,1E-11,3.5,0.01,0.5,0.1,,,,,,,,,,,,,,,,,,,,,,,,,,,,,,,,,,,,,,,,,,,,,,,,,,,,,,,,,,,,,,,,,,,,,,,,,,,,,,,,,
,,,,,225967,001,2025-03-14_09h00.29.757,Utility_discrimination_2024_2cat,2024.2.4,MacIntel,59.88023952,,,,,,,,3,"[0.5,0.5]","[0.383,0.924]",d,"[1.3831923711453973,0.8660851495115661]","[-0.38319237114539717,0.13391485048843388]",206.9961,208.7265,1,s,1,0.1988,,0.414571723,0.699697948,0.285126225,208.7286,208.7287,0,121,121,121,1,0.9558359,0.9558359,shape_difference1,1,,TRUE,,intensity,0.1,0.05,0.7,0.3,0.82,20,400,1E-11,3.5,0.01,0.5,0.1,,,,,,,,,,,,,,,,,,,,,,,,,,,,,,,,,,,,,,,,,,,,,,,,,,,,,,,,,,,,,,,,,,,,,,,,,,,,,,,,,
,,,,,225967,001,2025-03-14_09h00.29.757,Utility_discrimination_2024_2cat,2024.2.4,MacIntel,59.88023952,,,,,,,,2,"[0.5,0.5]","[0.707,0.707]",s,"[0.7121766997476535,1.0118832129682294]","[0.2878233002523465,-0.011883212968229362]",208.7295,210.3934,1,s,1,0.1341,,0.83825835,1.186573437,0.348315087,210.3958,210.3958,0,122,122,122,1,0.553986161,0.553986161,shape_difference3,1,,TRUE,,intensity,0.1,0.05,0.7,0.3,0.82,20,400,1E-11,3.5,0.01,0.5,0.1,,,,,,,,,,,,,,,,,,,,,,,,,,,,,,,,,,,,,,,,,,,,,,,,,,,,,,,,,,,,,,,,,,,,,,,,,,,,,,,,,
,,,,,225967,001,2025-03-14_09h00.29.757,Utility_discrimination_2024_2cat,2024.2.4,MacIntel,59.88023952,,,,,,,,4,"[0.5,0.5]","[0,1]",s,"[1.2111376533401605,1.2111376533401605]","[-0.21113765334016055,-0.21113765334016055]",210.397,211.9271,0,s,0,0.0115,,0.751883696,1.092114465,0.340230769,211.9293,211.9294,0,123,123,123,1,1.005852409,1.005852409,shape_difference2,1,,TRUE,,intensity,0.1,0.05,0.7,0.3,0.82,20,400,1E-11,3.5,0.01,0.5,0.1,,,,,,,,,,,,,,,,,,,,,,,,,,,,,,,,,,,,,,,,,,,,,,,,,,,,,,,,,,,,,,,,,,,,,,,,,,,,,,,,,
,,,,,225967,001,2025-03-14_09h00.29.757,Utility_discrimination_2024_2cat,2024.2.4,MacIntel,59.88023952,,,,,,,,3,"[0.5,0.5]","[0.383,0.924]",d,"[0.5,1.413618600018755]","[0.5,-0.41361860001875494]",211.9304,213.5267,1,s,1,0.0671,,0.412696482,0.686522007,0.273825525,213.5295,213.5296,0,124,124,124,1,0.9136186,0.9136186,shape_difference4,1,,TRUE,,intensity,0.1,0.05,0.7,0.3,0.82,20,400,1E-11,3.5,0.01,0.5,0.1,,,,,,,,,,,,,,,,,,,,,,,,,,,,,,,,,,,,,,,,,,,,,,,,,,,,,,,,,,,,,,,,,,,,,,,,,,,,,,,,,
,,,,,225967,001,2025-03-14_09h00.29.757,Utility_discrimination_2024_2cat,2024.2.4,MacIntel,59.88023952,,,,,,,,4,"[0.5,0.5]","[0,1]",s,"[0.708682349723329,1.0034529794891802]","[0.291317650276671,-0.003452979489180108]",213.5304,215.1934,0,s,0,0.1452,,0.741290487,1.075571462,0.334280975,215.1951,215.1953,0,125,125,125,1,0.544862532,0.544862532,shape_difference3,1,,TRUE,,intensity,0.1,0.05,0.7,0.3,0.82,20,400,1E-11,3.5,0.01,0.5,0.1,,,,,,,,,,,,,,,,,,,,,,,,,,,,,,,,,,,,,,,,,,,,,,,,,,,,,,,,,,,,,,,,,,,,,,,,,,,,,,,,,
,,,,,225967,001,2025-03-14_09h00.29.757,Utility_discrimination_2024_2cat,2024.2.4,MacIntel,59.88023952,,,,,,,,0,"[0.5,0.5]","[1,0]",d,"[0.5,1.3954959666561693]","[0.5,-0.39549596665616915]",215.1964,216.8599,0,s,0,0.1362,,0.217397804,0.513146645,0.295748841,216.8621,216.8623,0,126,126,126,1,0.895495967,0.895495967,shape_difference4,1,,TRUE,,intensity,0.1,0.05,0.7,0.3,0.82,20,400,1E-11,3.5,0.01,0.5,0.1,,,,,,,,,,,,,,,,,,,,,,,,,,,,,,,,,,,,,,,,,,,,,,,,,,,,,,,,,,,,,,,,,,,,,,,,,,,,,,,,,
,,,,,225967,001,2025-03-14_09h00.29.757,Utility_discrimination_2024_2cat,2024.2.4,MacIntel,59.88023952,,,,,,,,1,"[0.5,0.5]","[0.924,0.383]",d,"[0.8598080179369347,0.5]","[0.14019198206306527,0.5]",216.8631,218.4937,1,s,1,0.111,,0.809885466,1.094527201,0.284641735,218.4959,218.496,0,127,127,127,1,0.359808018,0.359808018,shape_difference0,1,,TRUE,,intensity,0.1,0.05,0.7,0.3,0.82,20,400,1E-11,3.5,0.01,0.5,0.1,,,,,,,,,,,,,,,,,,,,,,,,,,,,,,,,,,,,,,,,,,,,,,,,,,,,,,,,,,,,,,,,,,,,,,,,,,,,,,,,,
,,,,,225967,001,2025-03-14_09h00.29.757,Utility_discrimination_2024_2cat,2024.2.4,MacIntel,59.88023952,,,,,,,,2,"[0.5,0.5]","[0.707,0.707]",s,"[1.3724890815453334,0.8616486128050462]","[-0.37248908154533356,0.13835138719495377]",218.4968,220.0767,0,s,0,0.0516,,0.906397943,1.240075802,0.333677858,220.0792,220.0793,0,128,128,128,1,0.944252253,0.944252253,shape_difference1,1,,TRUE,,intensity,0.1,0.05,0.7,0.3,0.82,20,400,1E-11,3.5,0.01,0.5,0.1,,,,,,,,,,,,,,,,,,,,,,,,,,,,,,,,,,,,,,,,,,,,,,,,,,,,,,,,,,,,,,,,,,,,,,,,,,,,,,,,,
,,,,,225967,001,2025-03-14_09h00.29.757,Utility_discrimination_2024_2cat,2024.2.4,MacIntel,59.88023952,,,,,,,,4,"[0.5,0.5]","[0,1]",d,"[1.2477047589732173,1.2477047589732173]","[-0.2477047589732173,-0.2477047589732173]",220.0801,221.7101,1,s,1,0.1006,,0.805811571,1.122111296,0.316299725,221.7127,221.7128,0,129,129,129,1,1.057573917,1.057573917,shape_difference2,1,,TRUE,,intensity,0.1,0.05,0.7,0.3,0.82,20,400,1E-11,3.5,0.01,0.5,0.1,,,,,,,,,,,,,,,,,,,,,,,,,,,,,,,,,,,,,,,,,,,,,,,,,,,,,,,,,,,,,,,,,,,,,,,,,,,,,,,,,
,,,,,225967,001,2025-03-14_09h00.29.757,Utility_discrimination_2024_2cat,2024.2.4,MacIntel,59.88023952,,,,,,,,2,"[0.5,0.5]","[0.707,0.707]",s,"[0.5,1.4467970245952941]","[0.5,-0.44679702459529413]",221.7137,223.4434,1,s,1,0.205,,0.90412762,1.200335793,0.296208173,223.4456,223.4458,0,130,130,130,1,0.946797025,0.946797025,shape_difference4,1,,TRUE,,intensity,0.1,0.05,0.7,0.3,0.82,20,400,1E-11,3.5,0.01,0.5,0.1,,,,,,,,,,,,,,,,,,,,,,,,,,,,,,,,,,,,,,,,,,,,,,,,,,,,,,,,,,,,,,,,,,,,,,,,,,,,,,,,,
,,,,,225967,001,2025-03-14_09h00.29.757,Utility_discrimination_2024_2cat,2024.2.4,MacIntel,59.88023952,,,,,,,,0,"[0.5,0.5]","[1,0]",s,"[1.2380129737873011,1.2380129737873011]","[-0.23801297378730113,-0.23801297378730113]",223.4466,225.1435,0,s,0,0.1664,,0.215063916,0.49056614,0.275502223,225.1458,225.1459,0,131,131,131,1,1.043865592,1.043865592,shape_difference2,1,,TRUE,,intensity,0.1,0.05,0.7,0.3,0.82,20,400,1E-11,3.5,0.01,0.5,0.1,,,,,,,,,,,,,,,,,,,,,,,,,,,,,,,,,,,,,,,,,,,,,,,,,,,,,,,,,,,,,,,,,,,,,,,,,,,,,,,,,
,,,,,225967,001,2025-03-14_09h00.29.757,Utility_discrimination_2024_2cat,2024.2.4,MacIntel,59.88023952,,,,,,,,1,"[0.5,0.5]","[0.924,0.383]",d,"[0.8515355172070926,0.5]","[0.14846448279290736,0.5]",225.1468,226.8768,0,s,0,0.1997,,0.818861644,1.139199279,0.320337635,226.8794,226.8795,0,132,132,132,1,0.351535517,0.351535517,shape_difference0,1,,TRUE,,intensity,0.1,0.05,0.7,0.3,0.82,20,400,1E-11,3.5,0.01,0.5,0.1,,,,,,,,,,,,,,,,,,,,,,,,,,,,,,,,,,,,,,,,,,,,,,,,,,,,,,,,,,,,,,,,,,,,,,,,,,,,,,,,,
,,,,,225967,001,2025-03-14_09h00.29.757,Utility_discrimination_2024_2cat,2024.2.4,MacIntel,59.88023952,,,,,,,,3,"[0.5,0.5]","[0.383,0.924]",d,"[1.3963435282208785,0.8715363325850611]","[-0.3963435282208785,0.12846366741493892]",226.8807,228.4933,0,s,0,0.0946,,0.420548717,0.717210625,0.296661908,228.4952,228.4954,0,133,133,133,1,0.970068753,0.970068753,shape_difference1,1,,TRUE,,intensity,0.1,0.05,0.7,0.3,0.82,20,400,1E-11,3.5,0.01,0.5,0.1,,,,,,,,,,,,,,,,,,,,,,,,,,,,,,,,,,,,,,,,,,,,,,,,,,,,,,,,,,,,,,,,,,,,,,,,,,,,,,,,,
,,,,,225967,001,2025-03-14_09h00.29.757,Utility_discrimination_2024_2cat,2024.2.4,MacIntel,59.88023952,,,,,,,,1,"[0.5,0.5]","[0.924,0.383]",d,"[0.7165566101399927,1.0224498897372147]","[0.28344338986000733,-0.022449889737214734]",228.4963,230.0272,1,s,1,0.0116,,0.871105398,1.192931182,0.321825784,230.0301,230.0302,0,134,134,134,1,0.565421959,0.565421959,shape_difference3,1,,TRUE,,intensity,0.1,0.05,0.7,0.3,0.82,20,400,1E-11,3.5,0.01,0.5,0.1,,,,,,,,,,,,,,,,,,,,,,,,,,,,,,,,,,,,,,,,,,,,,,,,,,,,,,,,,,,,,,,,,,,,,,,,,,,,,,,,,
,,,,,225967,001,2025-03-14_09h00.29.757,Utility_discrimination_2024_2cat,2024.2.4,MacIntel,59.88023952,,,,,,,,3,"[0.5,0.5]","[0.383,0.924]",s,"[1.4444124533700682,0.8914610061046928]","[-0.4444124533700682,0.10853899389530725]",230.0308,231.7102,1,s,1,0.1512,,0.417635603,0.693239186,0.275603584,231.7124,231.7125,0,135,135,135,1,1.0220914,1.0220914,shape_difference1,1,,TRUE,,intensity,0.1,0.05,0.7,0.3,0.82,20,400,1E-11,3.5,0.01,0.5,0.1,,,,,,,,,,,,,,,,,,,,,,,,,,,,,,,,,,,,,,,,,,,,,,,,,,,,,,,,,,,,,,,,,,,,,,,,,,,,,,,,,
,,,,,225967,001,2025-03-14_09h00.29.757,Utility_discrimination_2024_2cat,2024.2.4,MacIntel,59.88023952,,,,,,,,4,"[0.5,0.5]","[0,1]",s,"[0.713544944769102,1.0151841487379905]","[0.286455055230898,-0.015184148737990344]",231.7134,233.2601,1,s,1,0.0173,,0.803138605,1.095496449,0.292357844,233.2621,233.2623,0,136,136,136,1,0.557558603,0.557558603,shape_difference3,1,,TRUE,,intensity,0.1,0.05,0.7,0.3,0.82,20,400,1E-11,3.5,0.01,0.5,0.1,,,,,,,,,,,,,,,,,,,,,,,,,,,,,,,,,,,,,,,,,,,,,,,,,,,,,,,,,,,,,,,,,,,,,,,,,,,,,,,,,
,,,,,225967,001,2025-03-14_09h00.29.757,Utility_discrimination_2024_2cat,2024.2.4,MacIntel,59.88023952,,,,,,,,2,"[0.5,0.5]","[0.707,0.707]",s,"[0.5,1.432258513797012]","[0.5,-0.4322585137970122]",233.2632,234.9101,1,s,1,0.1273,,0.91720916,1.253717817,0.336508657,234.9122,234.9123,0,137,137,137,1,0.932258514,0.932258514,shape_difference4,1,,TRUE,,intensity,0.1,0.05,0.7,0.3,0.82,20,400,1E-11,3.5,0.01,0.5,0.1,,,,,,,,,,,,,,,,,,,,,,,,,,,,,,,,,,,,,,,,,,,,,,,,,,,,,,,,,,,,,,,,,,,,,,,,,,,,,,,,,
,,,,,225967,001,2025-03-14_09h00.29.757,Utility_discrimination_2024_2cat,2024.2.4,MacIntel,59.88023952,,,,,,,,0,"[0.5,0.5]","[1,0]",s,"[1.259786696989455,1.259786696989455]","[-0.2597866969894549,-0.2597866969894549]",234.9133,236.7105,1,s,1,0.2671,,0.247765752,0.574185488,0.326419736,236.713,236.7131,0,138,138,138,1,1.074662938,1.074662938,shape_difference2,1,,TRUE,,intensity,0.1,0.05,0.7,0.3,0.82,20,400,1E-11,3.5,0.01,0.5,0.1,,,,,,,,,,,,,,,,,,,,,,,,,,,,,,,,,,,,,,,,,,,,,,,,,,,,,,,,,,,,,,,,,,,,,,,,,,,,,,,,,
,,,,,225967,001,2025-03-14_09h00.29.757,Utility_discrimination_2024_2cat,2024.2.4,MacIntel,59.88023952,,,,,,,,1,"[0.5,0.5]","[0.924,0.383]",s,"[0.8870973956932489,0.5]","[0.11290260430675114,0.5]",236.7138,238.4434,0,s,0,0.1999,,0.856073754,1.178210487,0.322136732,238.4453,238.4454,0,139,139,139,1,0.387097396,0.387097396,shape_difference0,1,,TRUE,,intensity,0.1,0.05,0.7,0.3,0.82,20,400,1E-11,3.5,0.01,0.5,0.1,,,,,,,,,,,,,,,,,,,,,,,,,,,,,,,,,,,,,,,,,,,,,,,,,,,,,,,,,,,,,,,,,,,,,,,,,,,,,,,,,
,,,,,225967,001,2025-03-14_09h00.29.757,Utility_discrimination_2024_2cat,2024.2.4,MacIntel,59.88023952,,,,,,,,4,"[0.5,0.5]","[0,1]",d,"[1.426805561421996,0.8841629112820611]","[-0.4268055614219961,0.11583708871793885]",238.4464,240.1102,1,s,1,0.1332,,0.800681499,1.082218256,0.281536757,240.1124,240.1125,0,140,140,140,1,1.003036322,1.003036322,shape_difference1,1,,TRUE,,intensity,0.1,0.05,0.7,0.3,0.82,20,400,1E-11,3.5,0.01,0.5,0.1,,,,,,,,,,,,,,,,,,,,,,,,,,,,,,,,,,,,,,,,,,,,,,,,,,,,,,,,,,,,,,,,,,,,,,,,,,,,,,,,,
,,,,,225967,001,2025-03-14_09h00.29.757,Utility_discrimination_2024_2cat,2024.2.4,MacIntel,59.88023952,,,,,,,,0,"[0.5,0.5]","[1,0]",s,"[0.5,1.4164775523375086]","[0.5,-0.4164775523375085]",240.1135,241.7435,1,s,1,0.1099,,0.305652626,0.644226287,0.33857366,241.7455,241.7456,0,141,141,141,1,0.916477552,0.916477552,shape_difference4,1,,TRUE,,intensity,0.1,0.05,0.7,0.3,0.82,20,400,1E-11,3.5,0.01,0.5,0.1,,,,,,,,,,,,,,,,,,,,,,,,,,,,,,,,,,,,,,,,,,,,,,,,,,,,,,,,,,,,,,,,,,,,,,,,,,,,,,,,,
,,,,,225967,001,2025-03-14_09h00.29.757,Utility_discrimination_2024_2cat,2024.2.4,MacIntel,59.88023952,,,,,,,,3,"[0.5,0.5]","[0.383,0.924]",s,"[0.9347884224187795,0.5]","[0.06521157758122054,0.5]",241.7466,243.4601,1,s,1,0.1841,,0.415369581,0.681493806,0.266124225,243.462,243.4621,0,142,142,142,1,0.434788422,0.434788422,shape_difference0,1,,TRUE,,intensity,0.1,0.05,0.7,0.3,0.82,20,400,1E-11,3.5,0.01,0.5,0.1,,,,,,,,,,,,,,,,,,,,,,,,,,,,,,,,,,,,,,,,,,,,,,,,,,,,,,,,,,,,,,,,,,,,,,,,,,,,,,,,,
,,,,,225967,001,2025-03-14_09h00.29.757,Utility_discrimination_2024_2cat,2024.2.4,MacIntel,59.88023952,,,,,,,,2,"[0.5,0.5]","[0.707,0.707]",s,"[0.7107786304014145,1.0085103250415326]","[0.28922136959858546,-0.008510325041532707]",243.4631,245.161,1,s,1,0.1784,,0.914102903,1.223036529,0.308933626,245.1631,245.1633,0,143,143,143,1,0.55033585,0.55033585,shape_difference3,1,,TRUE,,intensity,0.1,0.05,0.7,0.3,0.82,20,400,1E-11,3.5,0.01,0.5,0.1,,,,,,,,,,,,,,,,,,,,,,,,,,,,,,,,,,,,,,,,,,,,,,,,,,,,,,,,,,,,,,,,,,,,,,,,,,,,,,,,,
,,,,,225967,001,2025-03-14_09h00.29.757,Utility_discrimination_2024_2cat,2024.2.4,MacIntel,59.88023952,,,,,,,,1,"[0.5,0.5]","[0.924,0.383]",s,"[1.2514793226856318,1.2514793226856318]","[-0.2514793226856318,-0.2514793226856318]",245.1642,246.6938,1,s,1,0.0004,,0.845092157,1.159507294,0.314415137,246.6961,246.6962,0,144,144,144,1,1.062912762,1.062912762,shape_difference2,1,,TRUE,,intensity,0.1,0.05,0.7,0.3,0.82,20,400,1E-11,3.5,0.01,0.5,0.1,,,,,,,,,,,,,,,,,,,,,,,,,,,,,,,,,,,,,,,,,,,,,,,,,,,,,,,,,,,,,,,,,,,,,,,,,,,,,,,,,
,,,,,225967,001,2025-03-14_09h00.29.757,Utility_discrimination_2024_2cat,2024.2.4,MacIntel,59.88023952,,,,,,,,4,"[0.5,0.5]","[0,1]",s,"[1.4152043071492133,0.8793541662750526]","[-0.4152043071492132,0.12064583372494736]",246.6975,248.2439,0,s,0,0.0281,,0.784759955,1.065742245,0.28098229,248.2463,248.2464,0,145,145,145,1,0.990480852,0.990480852,shape_difference1,1,,TRUE,,intensity,0.1,0.05,0.7,0.3,0.82,20,400,1E-11,3.5,0.01,0.5,0.1,,,,,,,,,,,,,,,,,,,,,,,,,,,,,,,,,,,,,,,,,,,,,,,,,,,,,,,,,,,,,,,,,,,,,,,,,,,,,,,,,
,,,,,225967,001,2025-03-14_09h00.29.757,Utility_discrimination_2024_2cat,2024.2.4,MacIntel,59.88023952,,,,,,,,0,"[0.5,0.5]","[1,0]",d,"[0.5,1.3993180811064092]","[0.5,-0.3993180811064093]",248.2475,250.1102,1,s,1,0.3423,,0.303572636,0.600902938,0.297330302,250.1121,250.1123,0,146,146,146,1,0.899318081,0.899318081,shape_difference4,1,,TRUE,,intensity,0.1,0.05,0.7,0.3,0.82,20,400,1E-11,3.5,0.01,0.5,0.1,,,,,,,,,,,,,,,,,,,,,,,,,,,,,,,,,,,,,,,,,,,,,,,,,,,,,,,,,,,,,,,,,,,,,,,,,,,,,,,,,
,,,,,225967,001,2025-03-14_09h00.29.757,Utility_discrimination_2024_2cat,2024.2.4,MacIntel,59.88023952,,,,,,,,3,"[0.5,0.5]","[0.383,0.924]",s,"[0.9173826771850117,0.5]","[0.08261732281498835,0.5]",250.1133,251.677,1,s,1,0.034,,0.413577877,0.668238709,0.254660832,251.6794,251.6795,0,147,147,147,1,0.417382677,0.417382677,shape_difference0,1,,TRUE,,intensity,0.1,0.05,0.7,0.3,0.82,20,400,1E-11,3.5,0.01,0.5,0.1,,,,,,,,,,,,,,,,,,,,,,,,,,,,,,,,,,,,,,,,,,,,,,,,,,,,,,,,,,,,,,,,,,,,,,,,,,,,,,,,,
,,,,,225967,001,2025-03-14_09h00.29.757,Utility_discrimination_2024_2cat,2024.2.4,MacIntel,59.88023952,,,,,,,,2,"[0.5,0.5]","[0.707,0.707]",s,"[0.7081326136131179,1.002126723181517]","[0.2918673863868821,-0.002126723181516854]",251.6805,253.2441,0,s,0,0.0448,,0.911724416,1.195463843,0.283739427,253.2462,253.2463,0,148,148,148,1,0.54342719,0.54342719,shape_difference3,1,,TRUE,,intensity,0.1,0.05,0.7,0.3,0.82,20,400,1E-11,3.5,0.01,0.5,0.1,,,,,,,,,,,,,,,,,,,,,,,,,,,,,,,,,,,,,,,,,,,,,,,,,,,,,,,,,,,,,,,,,,,,,,,,,,,,,,,,,
,,,,,225967,001,2025-03-14_09h00.29.757,Utility_discrimination_2024_2cat,2024.2.4,MacIntel,59.88023952,,,,,,,,4,"[0.5,0.5]","[0,1]",d,"[1.244007368723518,1.244007368723518]","[-0.24400736872351803,-0.24400736872351803]",253.2474,254.8771,1,s,1,0.1007,,0.76820242,1.044652343,0.276449923,254.8795,254.8797,0,149,149,149,1,1.052344227,1.052344227,shape_difference2,1,,TRUE,,intensity,0.1,0.05,0.7,0.3,0.82,20,400,1E-11,3.5,0.01,0.5,0.1,,,,,,,,,,,,,,,,,,,,,,,,,,,,,,,,,,,,,,,,,,,,,,,,,,,,,,,,,,,,,,,,,,,,,,,,,,,,,,,,,
,,,,,225967,001,2025-03-14_09h00.29.757,Utility_discrimination_2024_2cat,2024.2.4,MacIntel,59.88023952,,,,,,,,2,"[0.5,0.5]","[0.707,0.707]",s,"[0.5,1.3897543899322384]","[0.5,-0.38975438993223854]",254.8807,256.5437,1,s,1,0.1336,,0.909863796,1.183953446,0.27408965,256.5462,256.5463,0,150,150,150,1,0.88975439,0.88975439,shape_difference4,1,,TRUE,,intensity,0.1,0.05,0.7,0.3,0.82,20,400,1E-11,3.5,0.01,0.5,0.1,,,,,,,,,,,,,,,,,,,,,,,,,,,,,,,,,,,,,,,,,,,,,,,,,,,,,,,,,,,,,,,,,,,,,,,,,,,,,,,,,
,,,,,225967,001,2025-03-14_09h00.29.757,Utility_discrimination_2024_2cat,2024.2.4,MacIntel,59.88023952,,,,,,,,1,"[0.5,0.5]","[0.924,0.383]",s,"[1.237007297580727,1.237007297580727]","[-0.2370072975807268,-0.2370072975807268]",256.5473,258.2769,0,s,0,0.2003,,0.905652874,1.195264535,0.289611662,258.2787,258.2789,0,151,151,151,1,1.042443137,1.042443137,shape_difference2,1,,TRUE,,intensity,0.1,0.05,0.7,0.3,0.82,20,400,1E-11,3.5,0.01,0.5,0.1,,,,,,,,,,,,,,,,,,,,,,,,,,,,,,,,,,,,,,,,,,,,,,,,,,,,,,,,,,,,,,,,,,,,,,,,,,,,,,,,,
,,,,,225967,001,2025-03-14_09h00.29.757,Utility_discrimination_2024_2cat,2024.2.4,MacIntel,59.88023952,,,,,,,,0,"[0.5,0.5]","[1,0]",d,"[1.4582827104151106,0.8972102576720642]","[-0.4582827104151106,0.1027897423279358]",258.2798,260.2437,0,s,0,0.436,,0.301671236,0.582049117,0.280377881,260.246,260.2461,0,152,152,152,1,1.0371025,1.0371025,shape_difference1,1,,TRUE,,intensity,0.1,0.05,0.7,0.3,0.82,20,400,1E-11,3.5,0.01,0.5,0.1,,,,,,,,,,,,,,,,,,,,,,,,,,,,,,,,,,,,,,,,,,,,,,,,,,,,,,,,,,,,,,,,,,,,,,,,,,,,,,,,,
,,,,,225967,001,2025-03-14_09h00.29.757,Utility_discrimination_2024_2cat,2024.2.4,MacIntel,59.88023952,,,,,,,,3,"[0.5,0.5]","[0.383,0.924]",d,"[0.8991350961632832,0.5]","[0.10086490383671676,0.5]",260.2471,261.8269,1,s,1,0.0593,,0.421283845,0.687562513,0.266278669,261.8287,261.8288,0,153,153,153,1,0.399135096,0.399135096,shape_difference0,1,,TRUE,,intensity,0.1,0.05,0.7,0.3,0.82,20,400,1E-11,3.5,0.01,0.5,0.1,,,,,,,,,,,,,,,,,,,,,,,,,,,,,,,,,,,,,,,,,,,,,,,,,,,,,,,,,,,,,,,,,,,,,,,,,,,,,,,,,
,,,,,225967,001,2025-03-14_09h00.29.757,Utility_discrimination_2024_2cat,2024.2.4,MacIntel,59.88023952,,,,,,,,2,"[0.5,0.5]","[0.707,0.707]",s,"[0.7144842394234929,1.0174502277475392]","[0.285515760576507,-0.017450227747539238]",261.8297,263.5099,1,s,1,0.1503,,0.918836322,1.200953656,0.282117334,263.512,263.5123,0,154,154,154,1,0.560011069,0.560011069,shape_difference3,1,,TRUE,,intensity,0.1,0.05,0.7,0.3,0.82,20,400,1E-11,3.5,0.01,0.5,0.1,,,,,,,,,,,,,,,,,,,,,,,,,,,,,,,,,,,,,,,,,,,,,,,,,,,,,,,,,,,,,,,,,,,,,,,,,,,,,,,,,
,,,,,225967,001,2025-03-14_09h00.29.757,Utility_discrimination_2024_2cat,2024.2.4,MacIntel,59.88023952,,,,,,,,4,"[0.5,0.5]","[0,1]",s,"[1.253306730212314,1.253306730212314]","[-0.253306730212314,-0.253306730212314]",263.5132,265.1103,1,s,1,0.0669,,0.755735937,1.016950111,0.261214175,265.1121,265.1123,0,155,155,155,1,1.065497497,1.065497497,shape_difference2,1,,TRUE,,intensity,0.1,0.05,0.7,0.3,0.82,20,400,1E-11,3.5,0.01,0.5,0.1,,,,,,,,,,,,,,,,,,,,,,,,,,,,,,,,,,,,,,,,,,,,,,,,,,,,,,,,,,,,,,,,,,,,,,,,,,,,,,,,,
,,,,,225967,001,2025-03-14_09h00.29.757,Utility_discrimination_2024_2cat,2024.2.4,MacIntel,59.88023952,,,,,,,,0,"[0.5,0.5]","[1,0]",s,"[0.5,1.3819803266028416]","[0.5,-0.38198032660284154]",265.1132,266.6604,1,s,1,0.0277,,0.298229739,0.559572181,0.261342442,266.6623,266.6625,0,156,156,156,1,0.881980327,0.881980327,shape_difference4,1,,TRUE,,intensity,0.1,0.05,0.7,0.3,0.82,20,400,1E-11,3.5,0.01,0.5,0.1,,,,,,,,,,,,,,,,,,,,,,,,,,,,,,,,,,,,,,,,,,,,,,,,,,,,,,,,,,,,,,,,,,,,,,,,,,,,,,,,,
,,,,,225967,001,2025-03-14_09h00.29.757,Utility_discrimination_2024_2cat,2024.2.4,MacIntel,59.88023952,,,,,,,,1,"[0.5,0.5]","[0.924,0.383]",s,"[0.8898739973955572,0.5]","[0.11012600260444283,0.5]",266.6635,268.427,0,s,0,0.2355,,0.9159164,1.244332986,0.328416586,268.4291,268.4293,0,157,157,157,1,0.389873997,0.389873997,shape_difference0,1,,TRUE,,intensity,0.1,0.05,0.7,0.3,0.82,20,400,1E-11,3.5,0.01,0.5,0.1,,,,,,,,,,,,,,,,,,,,,,,,,,,,,,,,,,,,,,,,,,,,,,,,,,,,,,,,,,,,,,,,,,,,,,,,,,,,,,,,,
,,,,,225967,001,2025-03-14_09h00.29.757,Utility_discrimination_2024_2cat,2024.2.4,MacIntel,59.88023952,,,,,,,,3,"[0.5,0.5]","[0.383,0.924]",d,"[1.4872298867732459,0.9092089249287372]","[-0.48722988677324586,0.09079107507126283]",268.4303,270.1269,1,s,1,0.169,,0.418492368,0.676833972,0.258341604,270.1287,270.1288,0,158,158,158,1,1.068430613,1.068430613,shape_difference1,1,,TRUE,,intensity,0.1,0.05,0.7,0.3,0.82,20,400,1E-11,3.5,0.01,0.5,0.1,,,,,,,,,,,,,,,,,,,,,,,,,,,,,,,,,,,,,,,,,,,,,,,,,,,,,,,,,,,,,,,,,,,,,,,,,,,,,,,,,
,,,,,225967,001,2025-03-14_09h00.29.757,Utility_discrimination_2024_2cat,2024.2.4,MacIntel,59.88023952,,,,,,,,4,"[0.5,0.5]","[0,1]",s,"[0.7122704606259015,1.0121094141470834]","[0.2877295393740985,-0.012109414147083553]",270.1298,271.8602,0,s,0,0.2005,,0.746195493,0.996644758,0.250449265,271.8621,271.8621,0,159,159,159,1,0.554230968,0.554230968,shape_difference3,1,,TRUE,,intensity,0.1,0.05,0.7,0.3,0.82,20,400,1E-11,3.5,0.01,0.5,0.1,,,,,,,,,,,,,,,,,,,,,,,,,,,,,,,,,,,,,,,,,,,,,,,,,,,,,,,,,,,,,,,,,,,,,,,,,,,,,,,,,
,,,,,225967,001,2025-03-14_09h00.29.757,Utility_discrimination_2024_2cat,2024.2.4,MacIntel,59.88023952,,,,,,,,1,"[0.5,0.5]","[0.924,0.383]",d,"[0.5,1.3755355669471951]","[0.5,-0.37553556694719525]",271.8632,273.5436,0,s,0,0.1511,,0.913311797,1.209098557,0.29578676,273.5455,273.5456,0,160,160,160,1,0.875535567,0.875535567,shape_difference4,1,,TRUE,,intensity,0.1,0.05,0.7,0.3,0.82,20,400,1E-11,3.5,0.01,0.5,0.1,,,,,,,,,,,,,,,,,,,,,,,,,,,,,,,,,,,,,,,,,,,,,,,,,,,,,,,,,,,,,,,,,,,,,,,,,,,,,,,,,
,,,,,225967,001,2025-03-14_09h00.29.757,Utility_discrimination_2024_2cat,2024.2.4,MacIntel,59.88023952,,,,,,,,3,"[0.5,0.5]","[0.383,0.924]",d,"[1.4766953665393774,0.9048423434898067]","[-0.4766953665393773,0.0951576565101932]",273.5467,276.2104,1,s,1,1.133,,0.458603348,0.717366151,0.258762803,276.2128,276.213,0,161,161,161,1,1.057029617,1.057029617,shape_difference1,1,,TRUE,,intensity,0.1,0.05,0.7,0.3,0.82,20,400,1E-11,3.5,0.01,0.5,0.1,,,,,,,,,,,,,,,,,,,,,,,,,,,,,,,,,,,,,,,,,,,,,,,,,,,,,,,,,,,,,,,,,,,,,,,,,,,,,,,,,
,,,,,225967,001,2025-03-14_09h00.29.757,Utility_discrimination_2024_2cat,2024.2.4,MacIntel,59.88023952,,,,,,,,0,"[0.5,0.5]","[1,0]",s,"[0.7219219867725819,1.0353940359735399]","[0.2780780132274181,-0.03539403597353974]",276.214,277.7444,0,s,0,0.0114,,0.308197292,0.604290785,0.296093493,277.7463,277.7465,0,162,162,162,1,0.579430775,0.579430775,shape_difference3,1,,TRUE,,intensity,0.1,0.05,0.7,0.3,0.82,20,400,1E-11,3.5,0.01,0.5,0.1,,,,,,,,,,,,,,,,,,,,,,,,,,,,,,,,,,,,,,,,,,,,,,,,,,,,,,,,,,,,,,,,,,,,,,,,,,,,,,,,,
,,,,,225967,001,2025-03-14_09h00.29.757,Utility_discrimination_2024_2cat,2024.2.4,MacIntel,59.88023952,,,,,,,,2,"[0.5,0.5]","[0.707,0.707]",d,"[0.9306051684121542,0.5]","[0.06939483158784576,0.5]",277.7477,279.4103,0,s,0,0.1361,,0.91606866,1.190887813,0.274819153,279.4122,279.4122,0,163,163,163,1,0.430605168,0.430605168,shape_difference0,1,,TRUE,,intensity,0.1,0.05,0.7,0.3,0.82,20,400,1E-11,3.5,0.01,0.5,0.1,,,,,,,,,,,,,,,,,,,,,,,,,,,,,,,,,,,,,,,,,,,,,,,,,,,,,,,,,,,,,,,,,,,,,,,,,,,,,,,,,
,,,,,225967,001,2025-03-14_09h00.29.757,Utility_discrimination_2024_2cat,2024.2.4,MacIntel,59.88023952,,,,,,,,3,"[0.5,0.5]","[0.383,0.924]",d,"[1.2473634827661728,1.2473634827661728]","[-0.2473634827661727,-0.2473634827661727]",279.4132,281.3938,1,s,1,0.4503,,0.505388188,0.776566746,0.271178557,281.396,281.3962,0,164,164,164,1,1.057091206,1.057091206,shape_difference2,1,,TRUE,,intensity,0.1,0.05,0.7,0.3,0.82,20,400,1E-11,3.5,0.01,0.5,0.1,,,,,,,,,,,,,,,,,,,,,,,,,,,,,,,,,,,,,,,,,,,,,,,,,,,,,,,,,,,,,,,,,,,,,,,,,,,,,,,,,
,,,,,225967,001,2025-03-14_09h00.29.757,Utility_discrimination_2024_2cat,2024.2.4,MacIntel,59.88023952,,,,,,,,0,"[0.5,0.5]","[1,0]",s,"[0.7336730921853725,1.0637439613036141]","[0.26632690781462753,-0.06374396130361404]",281.3973,283.0938,1,s,1,0.1664,,0.315165297,0.670559129,0.355393832,283.0962,283.0963,0,165,165,165,1,0.610112512,0.610112512,shape_difference3,1,,TRUE,,intensity,0.1,0.05,0.7,0.3,0.82,20,400,1E-11,3.5,0.01,0.5,0.1,,,,,,,,,,,,,,,,,,,,,,,,,,,,,,,,,,,,,,,,,,,,,,,,,,,,,,,,,,,,,,,,,,,,,,,,,,,,,,,,,
,,,,,225967,001,2025-03-14_09h00.29.757,Utility_discrimination_2024_2cat,2024.2.4,MacIntel,59.88023952,,,,,,,,4,"[0.5,0.5]","[0,1]",s,"[0.9637707703712309,0.5]","[0.036229229628769066,0.5]",283.0973,284.6938,0,s,0,0.0763,,0.803964055,1.053708443,0.249744388,284.696,284.6961,0,166,166,166,1,0.46377077,0.46377077,shape_difference0,1,,TRUE,,intensity,0.1,0.05,0.7,0.3,0.82,20,400,1E-11,3.5,0.01,0.5,0.1,,,,,,,,,,,,,,,,,,,,,,,,,,,,,,,,,,,,,,,,,,,,,,,,,,,,,,,,,,,,,,,,,,,,,,,,,,,,,,,,,
,,,,,225967,001,2025-03-14_09h00.29.757,Utility_discrimination_2024_2cat,2024.2.4,MacIntel,59.88023952,,,,,,,,1,"[0.5,0.5]","[0.924,0.383]",d,"[0.5,1.4010171553423958]","[0.5,-0.4010171553423959]",284.6972,286.6445,0,s,0,0.4277,,0.911310506,1.190983754,0.279673247,286.647,286.6471,0,167,167,167,1,0.901017155,0.901017155,shape_difference4,1,,TRUE,,intensity,0.1,0.05,0.7,0.3,0.82,20,400,1E-11,3.5,0.01,0.5,0.1,,,,,,,,,,,,,,,,,,,,,,,,,,,,,,,,,,,,,,,,,,,,,,,,,,,,,,,,,,,,,,,,,,,,,,,,,,,,,,,,,
,,,,,225967,001,2025-03-14_09h00.29.757,Utility_discrimination_2024_2cat,2024.2.4,MacIntel,59.88023952,,,,,,,,2,"[0.5,0.5]","[0.707,0.707]",d,"[1.4670403036973383,0.9008402990433773]","[-0.4670403036973384,0.09915970095662274]",286.6479,288.1766,0,s,0,0.0002,,0.913904585,1.180599281,0.266694696,288.1777,288.1778,0,168,168,168,1,1.046580415,1.046580415,shape_difference1,1,,TRUE,,intensity,0.1,0.05,0.7,0.3,0.82,20,400,1E-11,3.5,0.01,0.5,0.1,,,,,,,,,,,,,,,,,,,,,,,,,,,,,,,,,,,,,,,,,,,,,,,,,,,,,,,,,,,,,,,,,,,,,,,,,,,,,,,,,
,,,,,225967,001,2025-03-14_09h00.29.757,Utility_discrimination_2024_2cat,2024.2.4,MacIntel,59.88023952,,,,,,,,4,"[0.5,0.5]","[0,1]",d,"[1.24183871449137,1.24183871449137]","[-0.24183871449137018,-0.24183871449137018]",288.1784,289.927,1,s,1,0.2163,,0.81057366,1.086329019,0.275755359,289.9291,289.9292,0,169,169,169,1,1.049276824,1.049276824,shape_difference2,1,,TRUE,,intensity,0.1,0.05,0.7,0.3,0.82,20,400,1E-11,3.5,0.01,0.5,0.1,,,,,,,,,,,,,,,,,,,,,,,,,,,,,,,,,,,,,,,,,,,,,,,,,,,,,,,,,,,,,,,,,,,,,,,,,,,,,,,,,
,,,,,225967,001,2025-03-14_09h00.29.757,Utility_discrimination_2024_2cat,2024.2.4,MacIntel,59.88023952,,,,,,,,1,"[0.5,0.5]","[0.924,0.383]",s,"[0.5,1.4394639990142863]","[0.5,-0.43946399901428634]",289.9302,291.6276,1,s,1,0.1778,,0.92021177,1.224988097,0.304776327,291.6299,291.6301,0,170,170,170,1,0.939463999,0.939463999,shape_difference4,1,,TRUE,,intensity,0.1,0.05,0.7,0.3,0.82,20,400,1E-11,3.5,0.01,0.5,0.1,,,,,,,,,,,,,,,,,,,,,,,,,,,,,,,,,,,,,,,,,,,,,,,,,,,,,,,,,,,,,,,,,,,,,,,,,,,,,,,,,
,,,,,225967,001,2025-03-14_09h00.29.757,Utility_discrimination_2024_2cat,2024.2.4,MacIntel,59.88023952,,,,,,,,3,"[0.5,0.5]","[0.383,0.924]",s,"[1.4884949984566347,0.9097333164598388]","[-0.4884949984566347,0.09026668354016121]",291.6309,293.2612,1,s,1,0.1118,,0.503984061,0.757142419,0.253158359,293.2633,293.2635,0,171,171,171,1,1.069799782,1.069799782,shape_difference1,1,,TRUE,,intensity,0.1,0.05,0.7,0.3,0.82,20,400,1E-11,3.5,0.01,0.5,0.1,,,,,,,,,,,,,,,,,,,,,,,,,,,,,,,,,,,,,,,,,,,,,,,,,,,,,,,,,,,,,,,,,,,,,,,,,,,,,,,,,
,,,,,225967,001,2025-03-14_09h00.29.757,Utility_discrimination_2024_2cat,2024.2.4,MacIntel,59.88023952,,,,,,,,0,"[0.5,0.5]","[1,0]",s,"[0.728355988821308,1.0509162759031034]","[0.27164401117869197,-0.050916275903103436]",293.2645,294.8775,0,s,0,0.0946,,0.35539806,0.766065689,0.410667629,294.8798,294.8799,0,172,172,172,1,0.596229736,0.596229736,shape_difference3,1,,TRUE,,intensity,0.1,0.05,0.7,0.3,0.82,20,400,1E-11,3.5,0.01,0.5,0.1,,,,,,,,,,,,,,,,,,,,,,,,,,,,,,,,,,,,,,,,,,,,,,,,,,,,,,,,,,,,,,,,,,,,,,,,,,,,,,,,,
,,,,,225967,001,2025-03-14_09h00.29.757,Utility_discrimination_2024_2cat,2024.2.4,MacIntel,59.88023952,,,,,,,,2,"[0.5,0.5]","[0.707,0.707]",d,"[1.0292550107151799,0.5]","[-0.029255010715179774,0.5]",294.8809,296.5939,0,s,0,0.1871,,0.911857274,1.170677799,0.258820526,296.5956,296.5958,0,173,173,173,1,0.529255011,0.529255011,shape_difference0,1,,TRUE,,intensity,0.1,0.05,0.7,0.3,0.82,20,400,1E-11,3.5,0.01,0.5,0.1,,,,,,,,,,,,,,,,,,,,,,,,,,,,,,,,,,,,,,,,,,,,,,,,,,,,,,,,,,,,,,,,,,,,,,,,,,,,,,,,,
,,,,,225967,001,2025-03-14_09h00.29.757,Utility_discrimination_2024_2cat,2024.2.4,MacIntel,59.88023952,,,,,,,,3,"[0.5,0.5]","[0.383,0.924]",d,"[1.2361046068647465,1.2361046068647465]","[-0.23610460686474644,-0.23610460686474644]",296.5967,298.1605,1,s,1,0.0337,,0.510008259,0.793197929,0.28318967,298.1627,298.1629,0,174,174,174,1,1.041166346,1.041166346,shape_difference2,1,,TRUE,,intensity,0.1,0.05,0.7,0.3,0.82,20,400,1E-11,3.5,0.01,0.5,0.1,,,,,,,,,,,,,,,,,,,,,,,,,,,,,,,,,,,,,,,,,,,,,,,,,,,,,,,,,,,,,,,,,,,,,,,,,,,,,,,,,
,,,,,225967,001,2025-03-14_09h00.29.757,Utility_discrimination_2024_2cat,2024.2.4,MacIntel,59.88023952,,,,,,,,2,"[0.5,0.5]","[0.707,0.707]",s,"[0.7435843982221967,1.087655310593498]","[0.2564156017778033,-0.08765531059349807]",298.164,299.8431,0,s,0,0.1591,,0.910186344,1.158450061,0.248263717,299.8449,299.8451,0,175,175,175,1,0.635990596,0.635990596,shape_difference3,1,,TRUE,,intensity,0.1,0.05,0.7,0.3,0.82,20,400,1E-11,3.5,0.01,0.5,0.1,,,,,,,,,,,,,,,,,,,,,,,,,,,,,,,,,,,,,,,,,,,,,,,,,,,,,,,,,,,,,,,,,,,,,,,,,,,,,,,,,
,,,,,225967,001,2025-03-14_09h00.29.757,Utility_discrimination_2024_2cat,2024.2.4,MacIntel,59.88023952,,,,,,,,1,"[0.5,0.5]","[0.924,0.383]",d,"[1.2298623995789044,1.2298623995789044]","[-0.2298623995789043,-0.2298623995789043]",299.8461,301.5612,0,s,0,0.1947,,0.917164498,1.196792036,0.279627538,301.5629,301.5631,0,176,176,176,1,1.032337199,1.032337199,shape_difference2,1,,TRUE,,intensity,0.1,0.05,0.7,0.3,0.82,20,400,1E-11,3.5,0.01,0.5,0.1,,,,,,,,,,,,,,,,,,,,,,,,,,,,,,,,,,,,,,,,,,,,,,,,,,,,,,,,,,,,,,,,,,,,,,,,,,,,,,,,,
,,,,,225967,001,2025-03-14_09h00.29.757,Utility_discrimination_2024_2cat,2024.2.4,MacIntel,59.88023952,,,,,,,,0,"[0.5,0.5]","[1,0]",d,"[1.480091189224693,0.9062499193431357]","[-0.48009118922469296,0.0937500806568643]",301.5641,303.2105,1,s,1,0.1173,,0.411000249,0.827045872,0.416045622,303.2124,303.2124,0,177,177,177,1,1.06070475,1.06070475,shape_difference1,1,,TRUE,,intensity,0.1,0.05,0.7,0.3,0.82,20,400,1E-11,3.5,0.01,0.5,0.1,,,,,,,,,,,,,,,,,,,,,,,,,,,,,,,,,,,,,,,,,,,,,,,,,,,,,,,,,,,,,,,,,,,,,,,,,,,,,,,,,
,,,,,225967,001,2025-03-14_09h00.29.757,Utility_discrimination_2024_2cat,2024.2.4,MacIntel,59.88023952,,,,,,,,4,"[0.5,0.5]","[0,1]",s,"[1.082301650444488,0.5]","[-0.082301650444488,0.5]",303.2135,305.1272,0,s,0,0.3837,,0.808971331,1.074090333,0.265119003,305.1297,305.1299,0,178,178,178,1,0.58230165,0.58230165,shape_difference0,1,,TRUE,,intensity,0.1,0.05,0.7,0.3,0.82,20,400,1E-11,3.5,0.01,0.5,0.1,,,,,,,,,,,,,,,,,,,,,,,,,,,,,,,,,,,,,,,,,,,,,,,,,,,,,,,,,,,,,,,,,,,,,,,,,,,,,,,,,
,,,,,225967,001,2025-03-14_09h00.29.757,Utility_discrimination_2024_2cat,2024.2.4,MacIntel,59.88023952,,,,,,,,1,"[0.5,0.5]","[0.924,0.383]",d,"[0.5,1.4281151620965944]","[0.5,-0.4281151620965943]",305.1308,306.7942,0,s,0,0.1334,,0.914809807,1.186727889,0.271918082,306.7964,306.7966,0,179,179,179,1,0.928115162,0.928115162,shape_difference4,1,,TRUE,,intensity,0.1,0.05,0.7,0.3,0.82,20,400,1E-11,3.5,0.01,0.5,0.1,,,,,,,,,,,,,,,,,,,,,,,,,,,,,,,,,,,,,,,,,,,,,,,,,,,,,,,,,,,,,,,,,,,,,,,,,,,,,,,,,
,,,,,225967,001,2025-03-14_09h00.29.757,Utility_discrimination_2024_2cat,2024.2.4,MacIntel,59.88023952,,,,,,,,2,"[0.5,0.5]","[0.707,0.707]",d,"[1.472428698027366,0.9030738001563648]","[-0.47242869802736587,0.09692619984363515]",306.7975,308.4279,1,s,1,0.1113,,0.916550701,1.180900239,0.264349538,308.4299,308.4301,0,180,180,180,1,1.052412011,1.052412011,shape_difference1,1,,TRUE,,intensity,0.1,0.05,0.7,0.3,0.82,20,400,1E-11,3.5,0.01,0.5,0.1,,,,,,,,,,,,,,,,,,,,,,,,,,,,,,,,,,,,,,,,,,,,,,,,,,,,,,,,,,,,,,,,,,,,,,,,,,,,,,,,,
,,,,,225967,001,2025-03-14_09h00.29.757,Utility_discrimination_2024_2cat,2024.2.4,MacIntel,59.88023952,,,,,,,,0,"[0.5,0.5]","[1,0]",s,"[1.2449679957442434,1.2449679957442434]","[-0.24496799574424344,-0.24496799574424344]",308.4313,309.9772,0,s,0,0.0205,,0.466504885,0.905315097,0.438810212,309.9791,309.9792,0,181,181,181,1,1.053702964,1.053702964,shape_difference2,1,,TRUE,,intensity,0.1,0.05,0.7,0.3,0.82,20,400,1E-11,3.5,0.01,0.5,0.1,,,,,,,,,,,,,,,,,,,,,,,,,,,,,,,,,,,,,,,,,,,,,,,,,,,,,,,,,,,,,,,,,,,,,,,,,,,,,,,,,
,,,,,225967,001,2025-03-14_09h00.29.757,Utility_discrimination_2024_2cat,2024.2.4,MacIntel,59.88023952,,,,,,,,4,"[0.5,0.5]","[0,1]",d,"[1.170299720690521,0.5]","[-0.1702997206905209,0.5]",309.9802,311.6273,1,s,1,0.1174,,0.8150965,1.096123967,0.281027467,311.6293,311.6295,0,182,182,182,1,0.670299721,0.670299721,shape_difference0,1,,TRUE,,intensity,0.1,0.05,0.7,0.3,0.82,20,400,1E-11,3.5,0.01,0.5,0.1,,,,,,,,,,,,,,,,,,,,,,,,,,,,,,,,,,,,,,,,,,,,,,,,,,,,,,,,,,,,,,,,,,,,,,,,,,,,,,,,,
,,,,,225967,001,2025-03-14_09h00.29.757,Utility_discrimination_2024_2cat,2024.2.4,MacIntel,59.88023952,,,,,,,,3,"[0.5,0.5]","[0.383,0.924]",s,"[0.5,1.4552759971638083]","[0.5,-0.4552759971638082]",311.6306,313.2109,1,s,1,0.0504,,0.516744527,0.844842066,0.328097539,313.2129,313.213,0,183,183,183,1,0.955275997,0.955275997,shape_difference4,1,,TRUE,,intensity,0.1,0.05,0.7,0.3,0.82,20,400,1E-11,3.5,0.01,0.5,0.1,,,,,,,,,,,,,,,,,,,,,,,,,,,,,,,,,,,,,,,,,,,,,,,,,,,,,,,,,,,,,,,,,,,,,,,,,,,,,,,,,
,,,,,225967,001,2025-03-14_09h00.29.757,Utility_discrimination_2024_2cat,2024.2.4,MacIntel,59.88023952,,,,,,,,0,"[0.5,0.5]","[1,0]",s,"[0.7542782232194396,1.1134545124145228]","[0.2457217767805604,-0.11345451241452276]",313.214,314.8938,1,s,1,0.1504,,0.45429065,0.874626487,0.420335837,314.8957,314.8958,0,184,184,184,1,0.66391181,0.66391181,shape_difference3,1,,TRUE,,intensity,0.1,0.05,0.7,0.3,0.82,20,400,1E-11,3.5,0.01,0.5,0.1,,,,,,,,,,,,,,,,,,,,,,,,,,,,,,,,,,,,,,,,,,,,,,,,,,,,,,,,,,,,,,,,,,,,,,,,,,,,,,,,,
,,,,,225967,001,2025-03-14_09h00.29.757,Utility_discrimination_2024_2cat,2024.2.4,MacIntel,59.88023952,,,,,,,,1,"[0.5,0.5]","[0.924,0.383]",s,"[1.1479192829168854,0.5]","[-0.14791928291688528,0.5]",314.8967,316.4272,0,s,0,0.0004,,0.912960074,1.17540831,0.262448236,316.4293,316.4294,0,185,185,185,1,0.647919283,0.647919283,shape_difference0,1,,TRUE,,intensity,0.1,0.05,0.7,0.3,0.82,20,400,1E-11,3.5,0.01,0.5,0.1,,,,,,,,,,,,,,,,,,,,,,,,,,,,,,,,,,,,,,,,,,,,,,,,,,,,,,,,,,,,,,,,,,,,,,,,,,,,,,,,,
,,,,,225967,001,2025-03-14_09h00.29.757,Utility_discrimination_2024_2cat,2024.2.4,MacIntel,59.88023952,,,,,,,,3,"[0.5,0.5]","[0.383,0.924]",d,"[1.4651673334257442,0.9000639488117532]","[-0.46516733342574423,0.09993605118824672]",316.4303,317.9773,1,s,1,0.0165,,0.514368693,0.803208185,0.288839491,317.9796,317.9798,0,186,186,186,1,1.044553391,1.044553391,shape_difference1,1,,TRUE,,intensity,0.1,0.05,0.7,0.3,0.82,20,400,1E-11,3.5,0.01,0.5,0.1,,,,,,,,,,,,,,,,,,,,,,,,,,,,,,,,,,,,,,,,,,,,,,,,,,,,,,,,,,,,,,,,,,,,,,,,,,,,,,,,,
,,,,,225967,001,2025-03-14_09h00.29.757,Utility_discrimination_2024_2cat,2024.2.4,MacIntel,59.88023952,,,,,,,,2,"[0.5,0.5]","[0.707,0.707]",s,"[0.7503246383123072,1.103916359792616]","[0.24967536168769278,-0.10391635979261593]",317.9807,319.8438,1,s,1,0.3421,,0.953103755,1.223600726,0.270496972,319.8458,319.8459,0,187,187,187,1,0.653589134,0.653589134,shape_difference3,1,,TRUE,,intensity,0.1,0.05,0.7,0.3,0.82,20,400,1E-11,3.5,0.01,0.5,0.1,,,,,,,,,,,,,,,,,,,,,,,,,,,,,,,,,,,,,,,,,,,,,,,,,,,,,,,,,,,,,,,,,,,,,,,,,,,,,,,,,
,,,,,225967,001,2025-03-14_09h00.29.757,Utility_discrimination_2024_2cat,2024.2.4,MacIntel,59.88023952,,,,,,,,4,"[0.5,0.5]","[0,1]",s,"[1.2662968294533767,1.2662968294533767]","[-0.2662968294533766,-0.2662968294533766]",319.8468,321.4103,0,s,0,0.0438,,0.813153883,1.084502998,0.271349116,321.4121,321.4122,0,188,188,188,1,1.083871046,1.083871046,shape_difference2,1,,TRUE,,intensity,0.1,0.05,0.7,0.3,0.82,20,400,1E-11,3.5,0.01,0.5,0.1,,,,,,,,,,,,,,,,,,,,,,,,,,,,,,,,,,,,,,,,,,,,,,,,,,,,,,,,,,,,,,,,,,,,,,,,,,,,,,,,,
,,,,,225967,001,2025-03-14_09h00.29.757,Utility_discrimination_2024_2cat,2024.2.4,MacIntel,59.88023952,,,,,,,,1,"[0.5,0.5]","[0.924,0.383]",d,"[0.5,1.4464657710740183]","[0.5,-0.4464657710740184]",321.4131,323.0274,0,s,0,0.0831,,0.911208765,1.164133049,0.252924284,323.0295,323.0296,0,189,189,189,1,0.946465771,0.946465771,shape_difference4,1,,TRUE,,intensity,0.1,0.05,0.7,0.3,0.82,20,400,1E-11,3.5,0.01,0.5,0.1,,,,,,,,,,,,,,,,,,,,,,,,,,,,,,,,,,,,,,,,,,,,,,,,,,,,,,,,,,,,,,,,,,,,,,,,,,,,,,,,,
,,,,,225967,001,2025-03-14_09h00.29.757,Utility_discrimination_2024_2cat,2024.2.4,MacIntel,59.88023952,,,,,,,,4,"[0.5,0.5]","[0,1]",d,"[1.4573161056377233,0.8968095978996191]","[-0.4573161056377233,0.10319040210038094]",323.0306,324.6772,0,s,0,0.1222,,0.82129394,1.101994741,0.280700801,324.679,324.6791,0,190,190,190,1,1.036056391,1.036056391,shape_difference1,1,,TRUE,,intensity,0.1,0.05,0.7,0.3,0.82,20,400,1E-11,3.5,0.01,0.5,0.1,,,,,,,,,,,,,,,,,,,,,,,,,,,,,,,,,,,,,,,,,,,,,,,,,,,,,,,,,,,,,,,,,,,,,,,,,,,,,,,,,
