Consent.started,Consent.stopped,key_resp.keys,key_resp.rt,key_resp.duration,participant,session,date,expName,psychopyVersion,OS,frameRate,SetupExperiment.started,SetupExperiment.stopped,DiscrimInstructions_Pre.started,DiscrimInstructions_Pre.stopped,KeyboardResponse.keys,KeyboardResponse.rt,KeyboardResponse.duration,feature_index,feature_center,feature_vector,correct_answer,coord1,coord2,DiscriminationTrial.started,DiscriminationTrial.stopped,PreTest.response,Resp_s_or_d.keys,Resp_s_or_d.corr,Resp_s_or_d.rt,Resp_s_or_d.duration,PreTest.CI_lower,PreTest.CI_upper,PreTest.CI_width,CrashPretest_2.started,CrashPretest_2.stopped,PreTest.thisRepN,PreTest.thisTrialN,PreTest.thisN,PreTest.thisIndex,PreTest.ran,PreTest.intensity,intensity,PreTest.label,PreTest.nReps,PreTest.method,PreTest.autoLog,PreTest.seed,PreTest.varName,PreTest.startVal,PreTest.minVal,PreTest.maxVal,PreTest.startValSd,PreTest.pThreshold,PreTest.nTrials,PreTest.maxTrials,PreTest.stopInterval,PreTest.beta,PreTest.delta,PreTest.gamma,PreTest.grain,WelcomeToCategorizationTask.started,WelcomeToCategorizationTask.stopped,PressAnyKey3.keys,PressAnyKey3.rt,PressAnyKey3.duration,shape_coordinates,category_center,category_sigma,subspace_center,subspace_vector1,subspace_vector2,CategorizationTrial.started,CategorizationTrial.stopped,Respond_1or2.keys,Respond_1or2.rt,Respond_1or2.duration,Feedback.started,Feedback.stopped,xcoord,ycoord,shape_coord,numeric_response_minus1,correctness,truecategory,mixture_index,respAifA,respBifA,respAifB,respBifB,trial_number,D,muAx,muAy,muBx,muBy,sigmaA,sigmaB,priorA,priorB,TrialLoop.thisRepN,TrialLoop.thisTrialN,TrialLoop.thisN,TrialLoop.thisIndex,TrialLoop.ran,DiscriminationInstructions_Post.started,DiscriminationInstructions_Post.stopped,key_resp_2.keys,key_resp_2.rt,key_resp_2.duration,PostTest.response,PostTest.CI_lower,PostTest.CI_upper,PostTest.CI_width,CrashPosttest.started,CrashPosttest.stopped,PostTest.thisRepN,PostTest.thisTrialN,PostTest.thisN,PostTest.thisIndex,PostTest.ran,PostTest.intensity,PostTest.label,PostTest.nReps,PostTest.method,PostTest.autoLog,PostTest.seed,PostTest.varName,PostTest.startVal,PostTest.minVal,PostTest.maxVal,PostTest.startValSd,PostTest.pThreshold,PostTest.nTrials,PostTest.maxTrials,PostTest.stopInterval,PostTest.beta,PostTest.delta,PostTest.gamma,PostTest.grain,Thanks.started,Thanks.stopped
0.0003,3.6264,y,3.5943,,227467,001,2025-03-13_18h34.20.777,Utility_discrimination_2024_2cat,2024.2.4,Win32,59.17159763,,,,,,,,,,,,,,,,,,,,,,,,,,,,,,,,,,,,,,,,,,,,,,,,,,,,,,,,,,,,,,,,,,,,,,,,,,,,,,,,,,,,,,,,,,,,,,,,,,,,,,,,,,,,,,,,,,,,,,,,,,,,,,,,,,,
,,,,,227467,001,2025-03-13_18h34.20.777,Utility_discrimination_2024_2cat,2024.2.4,Win32,59.17159763,3.6265,3.6266,,,,,,,,,,,,,,,,,,,,,,,,,,,,,,,,,,,,,,,,,,,,,,,,,,,,,,,,,,,,,,,,,,,,,,,,,,,,,,,,,,,,,,,,,,,,,,,,,,,,,,,,,,,,,,,,,,,,,,,,,,,,,,,,,
,,,,,227467,001,2025-03-13_18h34.20.777,Utility_discrimination_2024_2cat,2024.2.4,Win32,59.17159763,,,3.6266,4.56,space,0.9205,,,,,,,,,,,,,,,,,,,,,,,,,,,,,,,,,,,,,,,,,,,,,,,,,,,,,,,,,,,,,,,,,,,,,,,,,,,,,,,,,,,,,,,,,,,,,,,,,,,,,,,,,,,,,,,,,,,,,,,,,,,,,
,,,,,227467,001,2025-03-13_18h34.20.777,Utility_discrimination_2024_2cat,2024.2.4,Win32,59.17159763,,,,,,,,4,"[0.5,0.5]","[0,1]",,"[0.6185239449756466,0.5]","[0.3814760550243534,0.5]",4.5785,9.3433,1,s,1,3.2183,,-0.447967632,0.547967632,0.995935263,9.3449,9.345,0,0,0,0,1,0.118523945,0.118523945,shape_difference0,1,,TRUE,,intensity,0.1,0.05,0.7,0.3,0.82,20,400,1E-11,3.5,0.01,0.5,0.1,,,,,,,,,,,,,,,,,,,,,,,,,,,,,,,,,,,,,,,,,,,,,,,,,,,,,,,,,,,,,,,,,,,,,,,,,,,,,,,,,
,,,,,227467,001,2025-03-13_18h34.20.777,Utility_discrimination_2024_2cat,2024.2.4,Win32,59.17159763,,,,,,,,2,"[0.5,0.5]","[0.707,0.707]",s,"[0.5,0.6185239449756466]","[0.5,0.3814760550243534]",9.3457,11.927,1,s,1,1.0395,,-0.447967632,0.547967632,0.995935263,11.9282,11.9282,0,1,1,1,1,0.118523945,0.118523945,shape_difference4,1,,TRUE,,intensity,0.1,0.05,0.7,0.3,0.82,20,400,1E-11,3.5,0.01,0.5,0.1,,,,,,,,,,,,,,,,,,,,,,,,,,,,,,,,,,,,,,,,,,,,,,,,,,,,,,,,,,,,,,,,,,,,,,,,,,,,,,,,,
,,,,,227467,001,2025-03-13_18h34.20.777,Utility_discrimination_2024_2cat,2024.2.4,Win32,59.17159763,,,,,,,,1,"[0.5,0.5]","[0.924,0.383]",s,"[0.5837964290977822,0.5837964290977822]","[0.4162035709022178,0.4162035709022178]",11.9289,14.1936,1,s,1,0.717,,-0.447967632,0.547967632,0.995935263,14.1949,14.195,0,2,2,2,1,0.118523945,0.118523945,shape_difference2,1,,TRUE,,intensity,0.1,0.05,0.7,0.3,0.82,20,400,1E-11,3.5,0.01,0.5,0.1,,,,,,,,,,,,,,,,,,,,,,,,,,,,,,,,,,,,,,,,,,,,,,,,,,,,,,,,,,,,,,,,,,,,,,,,,,,,,,,,,
,,,,,227467,001,2025-03-13_18h34.20.777,Utility_discrimination_2024_2cat,2024.2.4,Win32,59.17159763,,,,,,,,3,"[0.5,0.5]","[0.383,0.924]",s,"[0.6095161251574974,0.5453946709256726]","[0.3904838748425025,0.4546053290743273]",14.1956,18.0107,1,d,1,2.2686,,-0.447967632,0.547967632,0.995935263,18.012,18.0121,0,3,3,3,1,0.118523945,0.118523945,shape_difference1,1,,TRUE,,intensity,0.1,0.05,0.7,0.3,0.82,20,400,1E-11,3.5,0.01,0.5,0.1,,,,,,,,,,,,,,,,,,,,,,,,,,,,,,,,,,,,,,,,,,,,,,,,,,,,,,,,,,,,,,,,,,,,,,,,,,,,,,,,,
,,,,,227467,001,2025-03-13_18h34.20.777,Utility_discrimination_2024_2cat,2024.2.4,Win32,59.17159763,,,,,,,,1,"[0.5,0.5]","[0.924,0.383]",d,"[0.5453946709256726,0.6095161251574974]","[0.4546053290743273,0.3904838748425025]",18.0132,21.144,1,s,1,1.5837,,-0.479157219,0.478510979,0.957668197,21.1453,21.1453,0,4,4,4,1,0.118523945,0.118523945,shape_difference3,1,,TRUE,,intensity,0.1,0.05,0.7,0.3,0.82,20,400,1E-11,3.5,0.01,0.5,0.1,,,,,,,,,,,,,,,,,,,,,,,,,,,,,,,,,,,,,,,,,,,,,,,,,,,,,,,,,,,,,,,,,,,,,,,,,,,,,,,,,
,,,,,227467,001,2025-03-13_18h34.20.777,Utility_discrimination_2024_2cat,2024.2.4,Win32,59.17159763,,,,,,,,0,"[0.5,0.5]","[1,0]",s,"[0.5341894661325662,0.5141716077151222]","[0.46581053386743376,0.48582839228487784]",21.1459,23.844,1,s,1,1.1501,,-0.479157219,0.478510979,0.957668197,23.8454,23.8454,0,5,5,5,1,0.037001587,0.037001587,shape_difference1,1,,TRUE,,intensity,0.1,0.05,0.7,0.3,0.82,20,400,1E-11,3.5,0.01,0.5,0.1,,,,,,,,,,,,,,,,,,,,,,,,,,,,,,,,,,,,,,,,,,,,,,,,,,,,,,,,,,,,,,,,,,,,,,,,,,,,,,,,,
,,,,,227467,001,2025-03-13_18h34.20.777,Utility_discrimination_2024_2cat,2024.2.4,Win32,59.17159763,,,,,,,,4,"[0.5,0.5]","[0,1]",s,"[0.5370015867235566,0.5]","[0.4629984132764434,0.5]",23.8459,26.7275,1,s,1,1.3336,,-0.479157219,0.478510979,0.957668197,26.7294,26.7294,0,6,6,6,1,0.037001587,0.037001587,shape_difference0,1,,TRUE,,intensity,0.1,0.05,0.7,0.3,0.82,20,400,1E-11,3.5,0.01,0.5,0.1,,,,,,,,,,,,,,,,,,,,,,,,,,,,,,,,,,,,,,,,,,,,,,,,,,,,,,,,,,,,,,,,,,,,,,,,,,,,,,,,,
,,,,,227467,001,2025-03-13_18h34.20.777,Utility_discrimination_2024_2cat,2024.2.4,Win32,59.17159763,,,,,,,,3,"[0.5,0.5]","[0.383,0.924]",s,"[0.5,0.5370015867235566]","[0.5,0.4629984132764434]",26.73,29.5779,1,s,1,1.3002,,-0.479157219,0.478510979,0.957668197,29.5794,29.5794,0,7,7,7,1,0.037001587,0.037001587,shape_difference4,1,,TRUE,,intensity,0.1,0.05,0.7,0.3,0.82,20,400,1E-11,3.5,0.01,0.5,0.1,,,,,,,,,,,,,,,,,,,,,,,,,,,,,,,,,,,,,,,,,,,,,,,,,,,,,,,,,,,,,,,,,,,,,,,,,,,,,,,,,
,,,,,227467,001,2025-03-13_18h34.20.777,Utility_discrimination_2024_2cat,2024.2.4,Win32,59.17159763,,,,,,,,2,"[0.5,0.5]","[0.707,0.707]",s,"[0.5141716077151222,0.5341894661325662]","[0.48582839228487784,0.46581053386743376]",29.58,32.2277,1,d,1,1.1046,,-0.479157219,0.478510979,0.957668197,32.2286,32.2286,0,8,8,8,1,0.037001587,0.037001587,shape_difference3,1,,TRUE,,intensity,0.1,0.05,0.7,0.3,0.82,20,400,1E-11,3.5,0.01,0.5,0.1,,,,,,,,,,,,,,,,,,,,,,,,,,,,,,,,,,,,,,,,,,,,,,,,,,,,,,,,,,,,,,,,,,,,,,,,,,,,,,,,,
,,,,,227467,001,2025-03-13_18h34.20.777,Utility_discrimination_2024_2cat,2024.2.4,Win32,59.17159763,,,,,,,,0,"[0.5,0.5]","[1,0]",d,"[0.5261601218135545,0.5261601218135545]","[0.4738398781864455,0.4738398781864455]",32.2291,34.9279,1,s,1,1.1583,,-0.510435314,0.404710629,0.915145943,34.9296,34.9296,0,9,9,9,1,0.037001587,0.037001587,shape_difference2,1,,TRUE,,intensity,0.1,0.05,0.7,0.3,0.82,20,400,1E-11,3.5,0.01,0.5,0.1,,,,,,,,,,,,,,,,,,,,,,,,,,,,,,,,,,,,,,,,,,,,,,,,,,,,,,,,,,,,,,,,,,,,,,,,,,,,,,,,,
,,,,,227467,001,2025-03-13_18h34.20.777,Utility_discrimination_2024_2cat,2024.2.4,Win32,59.17159763,,,,,,,,4,"[0.5,0.5]","[0,1]",s,"[0.4627317496680746,0.5]","[0.5372682503319254,0.5]",34.9303,37.4617,1,s,1,0.9832,,-0.510435314,0.404710629,0.915145943,37.4632,37.4632,0,10,10,10,1,-0.03726825,-0.03726825,shape_difference0,1,,TRUE,,intensity,0.1,0.05,0.7,0.3,0.82,20,400,1E-11,3.5,0.01,0.5,0.1,,,,,,,,,,,,,,,,,,,,,,,,,,,,,,,,,,,,,,,,,,,,,,,,,,,,,,,,,,,,,,,,,,,,,,,,,,,,,,,,,
,,,,,227467,001,2025-03-13_18h34.20.777,Utility_discrimination_2024_2cat,2024.2.4,Win32,59.17159763,,,,,,,,3,"[0.5,0.5]","[0.383,0.924]",s,"[0.5,0.4627317496680746]","[0.5,0.5372682503319254]",37.4637,39.8784,1,s,1,0.8682,,-0.510435314,0.404710629,0.915145943,39.8795,39.8795,0,11,11,11,1,-0.03726825,-0.03726825,shape_difference4,1,,TRUE,,intensity,0.1,0.05,0.7,0.3,0.82,20,400,1E-11,3.5,0.01,0.5,0.1,,,,,,,,,,,,,,,,,,,,,,,,,,,,,,,,,,,,,,,,,,,,,,,,,,,,,,,,,,,,,,,,,,,,,,,,,,,,,,,,,
,,,,,227467,001,2025-03-13_18h34.20.777,Utility_discrimination_2024_2cat,2024.2.4,Win32,59.17159763,,,,,,,,1,"[0.5,0.5]","[0.924,0.383]",s,"[0.48572626012287257,0.46556413669330093]","[0.5142737398771274,0.5344358633066991]",39.8801,42.2453,1,s,1,0.8174,,-0.510435314,0.404710629,0.915145943,42.2468,42.2468,0,12,12,12,1,-0.03726825,-0.03726825,shape_difference3,1,,TRUE,,intensity,0.1,0.05,0.7,0.3,0.82,20,400,1E-11,3.5,0.01,0.5,0.1,,,,,,,,,,,,,,,,,,,,,,,,,,,,,,,,,,,,,,,,,,,,,,,,,,,,,,,,,,,,,,,,,,,,,,,,,,,,,,,,,
,,,,,227467,001,2025-03-13_18h34.20.777,Utility_discrimination_2024_2cat,2024.2.4,Win32,59.17159763,,,,,,,,2,"[0.5,0.5]","[0.707,0.707]",s,"[0.46556413669330093,0.48572626012287257]","[0.5344358633066991,0.5142737398771274]",42.2474,44.262,1,d,1,0.4672,,-0.510435314,0.404710629,0.915145943,44.2631,44.2631,0,13,13,13,1,-0.03726825,-0.03726825,shape_difference1,1,,TRUE,,intensity,0.1,0.05,0.7,0.3,0.82,20,400,1E-11,3.5,0.01,0.5,0.1,,,,,,,,,,,,,,,,,,,,,,,,,,,,,,,,,,,,,,,,,,,,,,,,,,,,,,,,,,,,,,,,,,,,,,,,,,,,,,,,,
,,,,,227467,001,2025-03-13_18h34.20.777,Utility_discrimination_2024_2cat,2024.2.4,Win32,59.17159763,,,,,,,,0,"[0.5,0.5]","[1,0]",d,"[0.47365134701532874,0.47365134701532874]","[0.5263486529846713,0.5263486529846713]",44.2639,46.4121,0,s,0,0.6038,,-0.540713527,0.322166073,0.862879599,46.4137,46.4137,0,14,14,14,1,-0.03726825,-0.03726825,shape_difference2,1,,TRUE,,intensity,0.1,0.05,0.7,0.3,0.82,20,400,1E-11,3.5,0.01,0.5,0.1,,,,,,,,,,,,,,,,,,,,,,,,,,,,,,,,,,,,,,,,,,,,,,,,,,,,,,,,,,,,,,,,,,,,,,,,,,,,,,,,,
,,,,,227467,001,2025-03-13_18h34.20.777,Utility_discrimination_2024_2cat,2024.2.4,Win32,59.17159763,,,,,,,,2,"[0.5,0.5]","[0.707,0.707]",d,"[0.40339734014384304,0.5]","[0.5966026598561569,0.5]",46.4141,48.6956,1,s,1,0.7334,,-0.118157943,0.566731222,0.684889165,48.6968,48.6968,0,15,15,15,1,-0.09660266,-0.09660266,shape_difference0,1,,TRUE,,intensity,0.1,0.05,0.7,0.3,0.82,20,400,1E-11,3.5,0.01,0.5,0.1,,,,,,,,,,,,,,,,,,,,,,,,,,,,,,,,,,,,,,,,,,,,,,,,,,,,,,,,,,,,,,,,,,,,,,,,,,,,,,,,,
,,,,,227467,001,2025-03-13_18h34.20.777,Utility_discrimination_2024_2cat,2024.2.4,Win32,59.17159763,,,,,,,,3,"[0.5,0.5]","[0.383,0.924]",s,"[0.630420181502283,0.630420181502283]","[0.369579818497717,0.369579818497717]",48.6975,51.0123,1,d,1,0.7669,,-0.540713527,0.322166073,0.862879599,51.0139,51.0139,0,16,16,16,1,0.184469847,0.184469847,shape_difference2,1,,TRUE,,intensity,0.1,0.05,0.7,0.3,0.82,20,400,1E-11,3.5,0.01,0.5,0.1,,,,,,,,,,,,,,,,,,,,,,,,,,,,,,,,,,,,,,,,,,,,,,,,,,,,,,,,,,,,,,,,,,,,,,,,,,,,,,,,,
,,,,,227467,001,2025-03-13_18h34.20.777,Utility_discrimination_2024_2cat,2024.2.4,Win32,59.17159763,,,,,,,,4,"[0.5,0.5]","[0,1]",d,"[0.4630011812750919,0.410739142292911]","[0.5369988187249081,0.589260857707089]",51.0143,53.2791,1,s,1,0.7169,,-0.540713527,0.322166073,0.862879599,53.2803,53.2803,0,17,17,17,1,-0.09660266,-0.09660266,shape_difference3,1,,TRUE,,intensity,0.1,0.05,0.7,0.3,0.82,20,400,1E-11,3.5,0.01,0.5,0.1,,,,,,,,,,,,,,,,,,,,,,,,,,,,,,,,,,,,,,,,,,,,,,,,,,,,,,,,,,,,,,,,,,,,,,,,,,,,,,,,,
,,,,,227467,001,2025-03-13_18h34.20.777,Utility_discrimination_2024_2cat,2024.2.4,Win32,59.17159763,,,,,,,,1,"[0.5,0.5]","[0.924,0.383]",s,"[0.5,0.40339734014384304]","[0.5,0.5966026598561569]",53.281,55.5126,1,s,1,0.6834,,-0.540713527,0.322166073,0.862879599,55.5141,55.5141,0,18,18,18,1,-0.09660266,-0.09660266,shape_difference4,1,,TRUE,,intensity,0.1,0.05,0.7,0.3,0.82,20,400,1E-11,3.5,0.01,0.5,0.1,,,,,,,,,,,,,,,,,,,,,,,,,,,,,,,,,,,,,,,,,,,,,,,,,,,,,,,,,,,,,,,,,,,,,,,,,,,,,,,,,
,,,,,227467,001,2025-03-13_18h34.20.777,Utility_discrimination_2024_2cat,2024.2.4,Win32,59.17159763,,,,,,,,1,"[0.5,0.5]","[0.924,0.383]",s,"[0.410739142292911,0.4630011812750919]","[0.589260857707089,0.5369988187249081]",55.5147,58.6127,1,s,1,1.5505,,-0.569624043,0.240042019,0.809666061,58.6139,58.6139,0,19,19,19,1,-0.09660266,-0.09660266,shape_difference1,1,,TRUE,,intensity,0.1,0.05,0.7,0.3,0.82,20,400,1E-11,3.5,0.01,0.5,0.1,,,,,,,,,,,,,,,,,,,,,,,,,,,,,,,,,,,,,,,,,,,,,,,,,,,,,,,,,,,,,,,,,,,,,,,,,,,,,,,,,
,,,,,227467,001,2025-03-13_18h34.20.777,Utility_discrimination_2024_2cat,2024.2.4,Win32,59.17159763,,,,,,,,0,"[0.5,0.5]","[1,0]",s,"[0.36365450686467793,0.443484497975294]","[0.6363454931353221,0.556515502024706]",58.6143,61.3625,1,s,1,1.2,,-0.569624043,0.240042019,0.809666061,61.3644,61.3644,0,20,20,20,1,-0.147560058,-0.147560058,shape_difference1,1,,TRUE,,intensity,0.1,0.05,0.7,0.3,0.82,20,400,1E-11,3.5,0.01,0.5,0.1,,,,,,,,,,,,,,,,,,,,,,,,,,,,,,,,,,,,,,,,,,,,,,,,,,,,,,,,,,,,,,,,,,,,,,,,,,,,,,,,,
,,,,,227467,001,2025-03-13_18h34.20.777,Utility_discrimination_2024_2cat,2024.2.4,Win32,59.17159763,,,,,,,,4,"[0.5,0.5]","[0,1]",s,"[0.35243994249424015,0.5]","[0.6475600575057598,0.5]",61.3653,63.5458,1,s,1,0.6601,,-0.569624043,0.240042019,0.809666061,63.5467,63.5467,0,21,21,21,1,-0.147560058,-0.147560058,shape_difference0,1,,TRUE,,intensity,0.1,0.05,0.7,0.3,0.82,20,400,1E-11,3.5,0.01,0.5,0.1,,,,,,,,,,,,,,,,,,,,,,,,,,,,,,,,,,,,,,,,,,,,,,,,,,,,,,,,,,,,,,,,,,,,,,,,,,,,,,,,,
,,,,,227467,001,2025-03-13_18h34.20.777,Utility_discrimination_2024_2cat,2024.2.4,Win32,59.17159763,,,,,,,,3,"[0.5,0.5]","[0.383,0.924]",s,"[0.5,0.35243994249424015]","[0.5,0.6475600575057598]",63.5473,65.6461,1,s,1,0.5562,,-0.569624043,0.240042019,0.809666061,65.6475,65.6475,0,22,22,22,1,-0.147560058,-0.147560058,shape_difference4,1,,TRUE,,intensity,0.1,0.05,0.7,0.3,0.82,20,400,1E-11,3.5,0.01,0.5,0.1,,,,,,,,,,,,,,,,,,,,,,,,,,,,,,,,,,,,,,,,,,,,,,,,,,,,,,,,,,,,,,,,,,,,,,,,,,,,,,,,,
,,,,,227467,001,2025-03-13_18h34.20.777,Utility_discrimination_2024_2cat,2024.2.4,Win32,59.17159763,,,,,,,,2,"[0.5,0.5]","[0.707,0.707]",s,"[0.443484497975294,0.36365450686467793]","[0.556515502024706,0.6363454931353221]",65.6479,68.2462,1,d,1,1.0604,,-0.138426098,0.496127593,0.634553691,68.2474,68.2474,0,23,23,23,1,-0.147560058,-0.147560058,shape_difference3,1,,TRUE,,intensity,0.1,0.05,0.7,0.3,0.82,20,400,1E-11,3.5,0.01,0.5,0.1,,,,,,,,,,,,,,,,,,,,,,,,,,,,,,,,,,,,,,,,,,,,,,,,,,,,,,,,,,,,,,,,,,,,,,,,,,,,,,,,,
,,,,,227467,001,2025-03-13_18h34.20.777,Utility_discrimination_2024_2cat,2024.2.4,Win32,59.17159763,,,,,,,,1,"[0.5,0.5]","[0.924,0.383]",d,"[0.5959456051886609,0.5959456051886609]","[0.4040543948113391,0.4040543948113391]",68.2481,70.2796,1,s,1,0.4875,,-0.588261172,0.151848651,0.740109824,70.2808,70.2808,0,24,24,24,1,0.13570807,0.13570807,shape_difference2,1,,TRUE,,intensity,0.1,0.05,0.7,0.3,0.82,20,400,1E-11,3.5,0.01,0.5,0.1,,,,,,,,,,,,,,,,,,,,,,,,,,,,,,,,,,,,,,,,,,,,,,,,,,,,,,,,,,,,,,,,,,,,,,,,,,,,,,,,,
,,,,,227467,001,2025-03-13_18h34.20.777,Utility_discrimination_2024_2cat,2024.2.4,Win32,59.17159763,,,,,,,,4,"[0.5,0.5]","[0,1]",s,"[0.32350709385070975,0.4268433083818418]","[0.6764929061492903,0.5731566916181582]",70.2813,72.2634,1,d,1,0.4339,,-0.588261172,0.151848651,0.740109824,72.2648,72.2648,0,25,25,25,1,-0.191009639,-0.191009639,shape_difference1,1,,TRUE,,intensity,0.1,0.05,0.7,0.3,0.82,20,400,1E-11,3.5,0.01,0.5,0.1,,,,,,,,,,,,,,,,,,,,,,,,,,,,,,,,,,,,,,,,,,,,,,,,,,,,,,,,,,,,,,,,,,,,,,,,,,,,,,,,,
,,,,,227467,001,2025-03-13_18h34.20.777,Utility_discrimination_2024_2cat,2024.2.4,Win32,59.17159763,,,,,,,,3,"[0.5,0.5]","[0.383,0.924]",d,"[0.5,0.3089903613102919]","[0.5,0.6910096386897081]",72.2654,74.1965,1,s,1,0.3894,,-0.588261172,0.151848651,0.740109824,74.1974,74.1974,0,26,26,26,1,-0.191009639,-0.191009639,shape_difference4,1,,TRUE,,intensity,0.1,0.05,0.7,0.3,0.82,20,400,1E-11,3.5,0.01,0.5,0.1,,,,,,,,,,,,,,,,,,,,,,,,,,,,,,,,,,,,,,,,,,,,,,,,,,,,,,,,,,,,,,,,,,,,,,,,,,,,,,,,,
,,,,,227467,001,2025-03-13_18h34.20.777,Utility_discrimination_2024_2cat,2024.2.4,Win32,59.17159763,,,,,,,,2,"[0.5,0.5]","[0.707,0.707]",s,"[0.4268433083818418,0.32350709385070975]","[0.5731566916181582,0.6764929061492903]",74.1979,76.0636,1,d,1,0.3168,,-0.158612068,0.441238695,0.599850764,76.0652,76.0652,0,27,27,27,1,-0.191009639,-0.191009639,shape_difference3,1,,TRUE,,intensity,0.1,0.05,0.7,0.3,0.82,20,400,1E-11,3.5,0.01,0.5,0.1,,,,,,,,,,,,,,,,,,,,,,,,,,,,,,,,,,,,,,,,,,,,,,,,,,,,,,,,,,,,,,,,,,,,,,,,,,,,,,,,,
,,,,,227467,001,2025-03-13_18h34.20.777,Utility_discrimination_2024_2cat,2024.2.4,Win32,59.17159763,,,,,,,,0,"[0.5,0.5]","[1,0]",d,"[0.5641114274257293,0.5641114274257293]","[0.4358885725742707,0.4358885725742707]",76.0658,78.2471,1,d,1,0.6333,,-0.588261172,0.151848651,0.740109824,78.2486,78.2486,0,28,28,28,1,0.090680944,0.090680944,shape_difference2,1,,TRUE,,intensity,0.1,0.05,0.7,0.3,0.82,20,400,1E-11,3.5,0.01,0.5,0.1,,,,,,,,,,,,,,,,,,,,,,,,,,,,,,,,,,,,,,,,,,,,,,,,,,,,,,,,,,,,,,,,,,,,,,,,,,,,,,,,,
,,,,,227467,001,2025-03-13_18h34.20.777,Utility_discrimination_2024_2cat,2024.2.4,Win32,59.17159763,,,,,,,,1,"[0.5,0.5]","[0.924,0.383]",d,"[0.3089903613102919,0.5]","[0.6910096386897081,0.5]",78.2491,80.28,0,s,0,0.4835,,-0.616056949,0.077962516,0.694019466,80.2814,80.2814,0,29,29,29,1,-0.191009639,-0.191009639,shape_difference0,1,,TRUE,,intensity,0.1,0.05,0.7,0.3,0.82,20,400,1E-11,3.5,0.01,0.5,0.1,,,,,,,,,,,,,,,,,,,,,,,,,,,,,,,,,,,,,,,,,,,,,,,,,,,,,,,,,,,,,,,,,,,,,,,,,,,,,,,,,
,,,,,227467,001,2025-03-13_18h34.20.777,Utility_discrimination_2024_2cat,2024.2.4,Win32,59.17159763,,,,,,,,2,"[0.5,0.5]","[0.707,0.707]",d,"[0.28414228655980445,0.410526510554551]","[0.7158577134401956,0.589473489445449]",80.2819,83.3303,1,s,1,1.5104,,-0.171834932,0.374013296,0.545848228,83.3317,83.3317,0,30,30,30,1,-0.233612244,-0.233612244,shape_difference1,1,,TRUE,,intensity,0.1,0.05,0.7,0.3,0.82,20,400,1E-11,3.5,0.01,0.5,0.1,,,,,,,,,,,,,,,,,,,,,,,,,,,,,,,,,,,,,,,,,,,,,,,,,,,,,,,,,,,,,,,,,,,,,,,,,,,,,,,,,
,,,,,227467,001,2025-03-13_18h34.20.777,Utility_discrimination_2024_2cat,2024.2.4,Win32,59.17159763,,,,,,,,4,"[0.5,0.5]","[0,1]",s,"[0.5432750910224168,0.5432750910224168]","[0.4567249089775832,0.4567249089775832]",83.3325,85.6137,1,s,1,0.7438,,-0.616056949,0.077962516,0.694019466,85.6149,85.6149,0,31,31,31,1,0.061209464,0.061209464,shape_difference2,1,,TRUE,,intensity,0.1,0.05,0.7,0.3,0.82,20,400,1E-11,3.5,0.01,0.5,0.1,,,,,,,,,,,,,,,,,,,,,,,,,,,,,,,,,,,,,,,,,,,,,,,,,,,,,,,,,,,,,,,,,,,,,,,,,,,,,,,,,
,,,,,227467,001,2025-03-13_18h34.20.777,Utility_discrimination_2024_2cat,2024.2.4,Win32,59.17159763,,,,,,,,0,"[0.5,0.5]","[1,0]",s,"[0.5,0.2663877560171044]","[0.5,0.7336122439828956]",85.6154,87.7641,1,s,1,0.6002,,-0.29768699,0.301474633,0.599161623,87.7653,87.7653,0,32,32,32,1,-0.233612244,-0.233612244,shape_difference4,1,,TRUE,,intensity,0.1,0.05,0.7,0.3,0.82,20,400,1E-11,3.5,0.01,0.5,0.1,,,,,,,,,,,,,,,,,,,,,,,,,,,,,,,,,,,,,,,,,,,,,,,,,,,,,,,,,,,,,,,,,,,,,,,,,,,,,,,,,
,,,,,227467,001,2025-03-13_18h34.20.777,Utility_discrimination_2024_2cat,2024.2.4,Win32,59.17159763,,,,,,,,3,"[0.5,0.5]","[0.383,0.924]",s,"[0.4337112249519862,0.5]","[0.5662887750480138,0.5]",87.7658,89.914,1,d,1,0.6001,,-0.616056949,0.077962516,0.694019466,89.9154,89.9154,0,33,33,33,1,-0.066288775,-0.066288775,shape_difference0,1,,TRUE,,intensity,0.1,0.05,0.7,0.3,0.82,20,400,1E-11,3.5,0.01,0.5,0.1,,,,,,,,,,,,,,,,,,,,,,,,,,,,,,,,,,,,,,,,,,,,,,,,,,,,,,,,,,,,,,,,,,,,,,,,,,,,,,,,,
,,,,,227467,001,2025-03-13_18h34.20.777,Utility_discrimination_2024_2cat,2024.2.4,Win32,59.17159763,,,,,,,,2,"[0.5,0.5]","[0.707,0.707]",d,"[0.410526510554551,0.28414228655980445]","[0.589473489445449,0.7158577134401956]",89.916,91.8973,1,d,1,0.4363,,-0.180803695,0.29910644,0.479910135,91.8987,91.8988,0,34,34,34,1,-0.233612244,-0.233612244,shape_difference3,1,,TRUE,,intensity,0.1,0.05,0.7,0.3,0.82,20,400,1E-11,3.5,0.01,0.5,0.1,,,,,,,,,,,,,,,,,,,,,,,,,,,,,,,,,,,,,,,,,,,,,,,,,,,,,,,,,,,,,,,,,,,,,,,,,,,,,,,,,
,,,,,227467,001,2025-03-13_18h34.20.777,Utility_discrimination_2024_2cat,2024.2.4,Win32,59.17159763,,,,,,,,4,"[0.5,0.5]","[0,1]",d,"[0.5254779894661591,0.5254779894661591]","[0.47452201053384097,0.47452201053384097]",91.8993,94.0808,1,s,1,0.6411,,-0.642600146,0.003859163,0.64645931,94.0819,94.0819,0,35,35,35,1,0.03603676,0.03603676,shape_difference2,1,,TRUE,,intensity,0.1,0.05,0.7,0.3,0.82,20,400,1E-11,3.5,0.01,0.5,0.1,,,,,,,,,,,,,,,,,,,,,,,,,,,,,,,,,,,,,,,,,,,,,,,,,,,,,,,,,,,,,,,,,,,,,,,,,,,,,,,,,
,,,,,227467,001,2025-03-13_18h34.20.777,Utility_discrimination_2024_2cat,2024.2.4,Win32,59.17159763,,,,,,,,3,"[0.5,0.5]","[0.383,0.924]",s,"[0.5,0.23037327588610024]","[0.5,0.7696267241138998]",94.0827,96.031,1,d,1,0.4095,,-0.642600146,0.003859163,0.64645931,96.0331,96.0331,0,36,36,36,1,-0.269626724,-0.269626724,shape_difference4,1,,TRUE,,intensity,0.1,0.05,0.7,0.3,0.82,20,400,1E-11,3.5,0.01,0.5,0.1,,,,,,,,,,,,,,,,,,,,,,,,,,,,,,,,,,,,,,,,,,,,,,,,,,,,,,,,,,,,,,,,,,,,,,,,,,,,,,,,,
,,,,,227467,001,2025-03-13_18h34.20.777,Utility_discrimination_2024_2cat,2024.2.4,Win32,59.17159763,,,,,,,,0,"[0.5,0.5]","[1,0]",d,"[0.3967329646643764,0.2508649069187566]","[0.6032670353356236,0.7491350930812434]",96.0342,98.3643,1,s,1,0.7867,,-0.319876556,0.234298583,0.554175139,98.3653,98.3653,0,37,37,37,1,-0.269626724,-0.269626724,shape_difference3,1,,TRUE,,intensity,0.1,0.05,0.7,0.3,0.82,20,400,1E-11,3.5,0.01,0.5,0.1,,,,,,,,,,,,,,,,,,,,,,,,,,,,,,,,,,,,,,,,,,,,,,,,,,,,,,,,,,,,,,,,,,,,,,,,,,,,,,,,,
,,,,,227467,001,2025-03-13_18h34.20.777,Utility_discrimination_2024_2cat,2024.2.4,Win32,59.17159763,,,,,,,,1,"[0.5,0.5]","[0.924,0.383]",s,"[0.39530385161935155,0.5]","[0.6046961483806484,0.5]",98.3661,100.6815,1,s,1,0.7696,,-0.642600146,0.003859163,0.64645931,100.6828,100.6828,0,38,38,38,1,-0.104696148,-0.104696148,shape_difference0,1,,TRUE,,intensity,0.1,0.05,0.7,0.3,0.82,20,400,1E-11,3.5,0.01,0.5,0.1,,,,,,,,,,,,,,,,,,,,,,,,,,,,,,,,,,,,,,,,,,,,,,,,,,,,,,,,,,,,,,,,,,,,,,,,,,,,,,,,,
,,,,,227467,001,2025-03-13_18h34.20.777,Utility_discrimination_2024_2cat,2024.2.4,Win32,59.17159763,,,,,,,,4,"[0.5,0.5]","[0,1]",s,"[0.2508649069187566,0.3967329646643764]","[0.7491350930812434,0.6032670353356236]",100.6833,102.8978,1,d,1,0.6686,,-0.67113939,-0.036541485,0.634597904,102.8989,102.8989,0,39,39,39,1,-0.269626724,-0.269626724,shape_difference1,1,,TRUE,,intensity,0.1,0.05,0.7,0.3,0.82,20,400,1E-11,3.5,0.01,0.5,0.1,,,,,,,,,,,,,,,,,,,,,,,,,,,,,,,,,,,,,,,,,,,,,,,,,,,,,,,,,,,,,,,,,,,,,,,,,,,,,,,,,
,,,,,227467,001,2025-03-13_18h34.20.777,Utility_discrimination_2024_2cat,2024.2.4,Win32,59.17159763,,,,,,,,2,"[0.5,0.5]","[0.707,0.707]",d,"[0.5,0.1898285633172705]","[0.5,0.8101714366827295]",102.8994,104.865,1,d,1,0.4171,,-0.191020122,0.258190175,0.449210298,104.8664,104.8664,0,40,40,40,1,-0.310171437,-0.310171437,shape_difference4,1,,TRUE,,intensity,0.1,0.05,0.7,0.3,0.82,20,400,1E-11,3.5,0.01,0.5,0.1,,,,,,,,,,,,,,,,,,,,,,,,,,,,,,,,,,,,,,,,,,,,,,,,,,,,,,,,,,,,,,,,,,,,,,,,,,,,,,,,,
,,,,,227467,001,2025-03-13_18h34.20.777,Utility_discrimination_2024_2cat,2024.2.4,Win32,59.17159763,,,,,,,,0,"[0.5,0.5]","[1,0]",d,"[0.5068644072196966,0.5068644072196966]","[0.49313559278030344,0.49313559278030344]",104.8669,107.1813,1,s,1,0.7731,,-0.340036688,0.16215254,0.502189228,107.1822,107.1822,0,41,41,41,1,0.009709204,0.009709204,shape_difference2,1,,TRUE,,intensity,0.1,0.05,0.7,0.3,0.82,20,400,1E-11,3.5,0.01,0.5,0.1,,,,,,,,,,,,,,,,,,,,,,,,,,,,,,,,,,,,,,,,,,,,,,,,,,,,,,,,,,,,,,,,,,,,,,,,,,,,,,,,,
,,,,,227467,001,2025-03-13_18h34.20.777,Utility_discrimination_2024_2cat,2024.2.4,Win32,59.17159763,,,,,,,,3,"[0.5,0.5]","[0.383,0.924]",s,"[0.3711052749048065,0.5]","[0.6288947250951935,0.5]",107.183,109.2481,1,d,1,0.5205,,-0.67113939,-0.036541485,0.634597904,109.2493,109.2493,0,42,42,42,1,-0.128894725,-0.128894725,shape_difference0,1,,TRUE,,intensity,0.1,0.05,0.7,0.3,0.82,20,400,1E-11,3.5,0.01,0.5,0.1,,,,,,,,,,,,,,,,,,,,,,,,,,,,,,,,,,,,,,,,,,,,,,,,,,,,,,,,,,,,,,,,,,,,,,,,,,,,,,,,,
,,,,,227467,001,2025-03-13_18h34.20.777,Utility_discrimination_2024_2cat,2024.2.4,Win32,59.17159763,,,,,,,,1,"[0.5,0.5]","[0.924,0.383]",d,"[0.3812043397505146,0.21340159250515794]","[0.6187956602494854,0.786598407494842]",109.2499,111.3316,1,s,1,0.5375,,-0.67113939,-0.036541485,0.634597904,111.3329,111.3329,0,43,43,43,1,-0.310171437,-0.310171437,shape_difference3,1,,TRUE,,intensity,0.1,0.05,0.7,0.3,0.82,20,400,1E-11,3.5,0.01,0.5,0.1,,,,,,,,,,,,,,,,,,,,,,,,,,,,,,,,,,,,,,,,,,,,,,,,,,,,,,,,,,,,,,,,,,,,,,,,,,,,,,,,,
,,,,,227467,001,2025-03-13_18h34.20.777,Utility_discrimination_2024_2cat,2024.2.4,Win32,59.17159763,,,,,,,,2,"[0.5,0.5]","[0.707,0.707]",s,"[0.21340159250515794,0.3812043397505146]","[0.786598407494842,0.6187956602494854]",111.3336,113.5484,1,d,1,0.6744,,-0.198524782,0.199656851,0.398181634,113.5497,113.5497,0,44,44,44,1,-0.310171437,-0.310171437,shape_difference1,1,,TRUE,,intensity,0.1,0.05,0.7,0.3,0.82,20,400,1E-11,3.5,0.01,0.5,0.1,,,,,,,,,,,,,,,,,,,,,,,,,,,,,,,,,,,,,,,,,,,,,,,,,,,,,,,,,,,,,,,,,,,,,,,,,,,,,,,,,
,,,,,227467,001,2025-03-13_18h34.20.777,Utility_discrimination_2024_2cat,2024.2.4,Win32,59.17159763,,,,,,,,3,"[0.5,0.5]","[0.383,0.924]",d,"[0.49165325982702957,0.49165325982702957]","[0.5083467401729704,0.5083467401729704]",113.5501,115.782,0,s,0,0.6841,,-0.689998991,-0.095065821,0.594933171,115.7831,115.7831,0,45,45,45,1,-0.011805856,-0.011805856,shape_difference2,1,,TRUE,,intensity,0.1,0.05,0.7,0.3,0.82,20,400,1E-11,3.5,0.01,0.5,0.1,,,,,,,,,,,,,,,,,,,,,,,,,,,,,,,,,,,,,,,,,,,,,,,,,,,,,,,,,,,,,,,,,,,,,,,,,,,,,,,,,
,,,,,227467,001,2025-03-13_18h34.20.777,Utility_discrimination_2024_2cat,2024.2.4,Win32,59.17159763,,,,,,,,4,"[0.5,0.5]","[0,1]",d,"[0.3680769194965451,0.18173126270184758]","[0.6319230805034549,0.8182687372981524]",115.7835,117.732,1,d,1,0.3997,,-0.689998991,-0.095065821,0.594933171,117.7337,117.7337,0,46,46,46,1,-0.344446685,-0.344446685,shape_difference3,1,,TRUE,,intensity,0.1,0.05,0.7,0.3,0.82,20,400,1E-11,3.5,0.01,0.5,0.1,,,,,,,,,,,,,,,,,,,,,,,,,,,,,,,,,,,,,,,,,,,,,,,,,,,,,,,,,,,,,,,,,,,,,,,,,,,,,,,,,
,,,,,227467,001,2025-03-13_18h34.20.777,Utility_discrimination_2024_2cat,2024.2.4,Win32,59.17159763,,,,,,,,0,"[0.5,0.5]","[1,0]",d,"[0.5,0.1555533146123892]","[0.5,0.8444466853876108]",117.7344,119.9991,1,s,1,0.7177,,-0.353861833,0.090449314,0.444311147,120.0004,120.0004,0,47,47,47,1,-0.344446685,-0.344446685,shape_difference4,1,,TRUE,,intensity,0.1,0.05,0.7,0.3,0.82,20,400,1E-11,3.5,0.01,0.5,0.1,,,,,,,,,,,,,,,,,,,,,,,,,,,,,,,,,,,,,,,,,,,,,,,,,,,,,,,,,,,,,,,,,,,,,,,,,,,,,,,,,
,,,,,227467,001,2025-03-13_18h34.20.777,Utility_discrimination_2024_2cat,2024.2.4,Win32,59.17159763,,,,,,,,1,"[0.5,0.5]","[0.924,0.383]",s,"[0.35072565562817315,0.5]","[0.6492743443718269,0.5]",120.001,122.1988,0,d,0,0.6591,,-0.689998991,-0.095065821,0.594933171,122.1996,122.1996,0,48,48,48,1,-0.149274344,-0.149274344,shape_difference0,1,,TRUE,,intensity,0.1,0.05,0.7,0.3,0.82,20,400,1E-11,3.5,0.01,0.5,0.1,,,,,,,,,,,,,,,,,,,,,,,,,,,,,,,,,,,,,,,,,,,,,,,,,,,,,,,,,,,,,,,,,,,,,,,,,,,,,,,,,
,,,,,227467,001,2025-03-13_18h34.20.777,Utility_discrimination_2024_2cat,2024.2.4,Win32,59.17159763,,,,,,,,1,"[0.5,0.5]","[0.924,0.383]",s,"[0.18173126270184758,0.3680769194965451]","[0.8182687372981524,0.6319230805034549]",122.2001,124.216,1,d,1,0.4667,,-0.706498112,-0.130139369,0.576358744,124.2176,124.2176,0,49,49,49,1,-0.344446685,-0.344446685,shape_difference1,1,,TRUE,,intensity,0.1,0.05,0.7,0.3,0.82,20,400,1E-11,3.5,0.01,0.5,0.1,,,,,,,,,,,,,,,,,,,,,,,,,,,,,,,,,,,,,,,,,,,,,,,,,,,,,,,,,,,,,,,,,,,,,,,,,,,,,,,,,
,,,,,227467,001,2025-03-13_18h34.20.777,Utility_discrimination_2024_2cat,2024.2.4,Win32,59.17159763,,,,,,,,3,"[0.5,0.5]","[0.383,0.924]",d,"[0.15342461478677888,0.3563437526659484]","[0.8465753852132212,0.6436562473340516]",124.2184,126.4827,0,s,0,0.7183,,-0.706498112,-0.130139369,0.576358744,126.484,126.484,0,50,50,50,1,-0.375081586,-0.375081586,shape_difference1,1,,TRUE,,intensity,0.1,0.05,0.7,0.3,0.82,20,400,1E-11,3.5,0.01,0.5,0.1,,,,,,,,,,,,,,,,,,,,,,,,,,,,,,,,,,,,,,,,,,,,,,,,,,,,,,,,,,,,,,,,,,,,,,,,,,,,,,,,,
,,,,,227467,001,2025-03-13_18h34.20.777,Utility_discrimination_2024_2cat,2024.2.4,Win32,59.17159763,,,,,,,,4,"[0.5,0.5]","[0,1]",d,"[0.3563437526659484,0.15342461478677888]","[0.6436562473340516,0.8465753852132212]",126.4845,128.9496,1,d,1,0.9279,,-0.706498112,-0.130139369,0.576358744,128.9506,128.9506,0,51,51,51,1,-0.375081586,-0.375081586,shape_difference3,1,,TRUE,,intensity,0.1,0.05,0.7,0.3,0.82,20,400,1E-11,3.5,0.01,0.5,0.1,,,,,,,,,,,,,,,,,,,,,,,,,,,,,,,,,,,,,,,,,,,,,,,,,,,,,,,,,,,,,,,,,,,,,,,,,,,,,,,,,
,,,,,227467,001,2025-03-13_18h34.20.777,Utility_discrimination_2024_2cat,2024.2.4,Win32,59.17159763,,,,,,,,0,"[0.5,0.5]","[1,0]",d,"[0.5,0.12491841427140571]","[0.5,0.8750815857285943]",128.9512,131.1329,1,d,1,0.6333,,-0.255279458,0.268613346,0.523892804,131.1341,131.1341,0,52,52,52,1,-0.375081586,-0.375081586,shape_difference4,1,,TRUE,,intensity,0.1,0.05,0.7,0.3,0.82,20,400,1E-11,3.5,0.01,0.5,0.1,,,,,,,,,,,,,,,,,,,,,,,,,,,,,,,,,,,,,,,,,,,,,,,,,,,,,,,,,,,,,,,,,,,,,,,,,,,,,,,,,
,,,,,227467,001,2025-03-13_18h34.20.777,Utility_discrimination_2024_2cat,2024.2.4,Win32,59.17159763,,,,,,,,2,"[0.5,0.5]","[0.707,0.707]",d,"[0.4439602246467402,0.5]","[0.5560397753532598,0.5]",131.1348,133.0831,1,s,1,0.4011,,-0.099372913,0.310144602,0.409517515,133.0844,133.0844,0,53,53,53,1,-0.056039775,-0.056039775,shape_difference0,1,,TRUE,,intensity,0.1,0.05,0.7,0.3,0.82,20,400,1E-11,3.5,0.01,0.5,0.1,,,,,,,,,,,,,,,,,,,,,,,,,,,,,,,,,,,,,,,,,,,,,,,,,,,,,,,,,,,,,,,,,,,,,,,,,,,,,,,,,
,,,,,227467,001,2025-03-13_18h34.20.777,Utility_discrimination_2024_2cat,2024.2.4,Win32,59.17159763,,,,,,,,1,"[0.5,0.5]","[0.924,0.383]",s,"[0.5404837507072254,0.5404837507072254]","[0.45951624929277457,0.45951624929277457]",133.085,135.2161,1,d,1,0.5909,,-0.494590919,-0.051395536,0.443195383,135.2171,135.2171,0,54,54,54,1,0.057261316,0.057261316,shape_difference2,1,,TRUE,,intensity,0.1,0.05,0.7,0.3,0.82,20,400,1E-11,3.5,0.01,0.5,0.1,,,,,,,,,,,,,,,,,,,,,,,,,,,,,,,,,,,,,,,,,,,,,,,,,,,,,,,,,,,,,,,,,,,,,,,,,,,,,,,,,
,,,,,227467,001,2025-03-13_18h34.20.777,Utility_discrimination_2024_2cat,2024.2.4,Win32,59.17159763,,,,,,,,4,"[0.5,0.5]","[0,1]",d,"[0.23157916423909164,0.38873898257962347]","[0.7684208357609084,0.6112610174203765]",135.2177,137.3333,1,s,1,0.5666,,-0.740475113,-0.170023005,0.570452108,137.3346,137.3346,0,55,55,55,1,-0.29049874,-0.29049874,shape_difference1,1,,TRUE,,intensity,0.1,0.05,0.7,0.3,0.82,20,400,1E-11,3.5,0.01,0.5,0.1,,,,,,,,,,,,,,,,,,,,,,,,,,,,,,,,,,,,,,,,,,,,,,,,,,,,,,,,,,,,,,,,,,,,,,,,,,,,,,,,,
,,,,,227467,001,2025-03-13_18h34.20.777,Utility_discrimination_2024_2cat,2024.2.4,Win32,59.17159763,,,,,,,,2,"[0.5,0.5]","[0.707,0.707]",s,"[0.5,0.08949394097392083]","[0.5,0.9105060590260792]",137.3354,139.4497,1,s,1,0.5769,,-0.113739153,0.261122811,0.374861964,139.4516,139.4516,0,56,56,56,1,-0.410506059,-0.410506059,shape_difference4,1,,TRUE,,intensity,0.1,0.05,0.7,0.3,0.82,20,400,1E-11,3.5,0.01,0.5,0.1,,,,,,,,,,,,,,,,,,,,,,,,,,,,,,,,,,,,,,,,,,,,,,,,,,,,,,,,,,,,,,,,,,,,,,,,,,,,,,,,,
,,,,,227467,001,2025-03-13_18h34.20.777,Utility_discrimination_2024_2cat,2024.2.4,Win32,59.17159763,,,,,,,,0,"[0.5,0.5]","[1,0]",s,"[0.5281743192784298,0.5281743192784298]","[0.47182568072157016,0.47182568072157016]",139.4525,141.7501,1,d,1,0.7524,,-0.266640458,0.19902822,0.465668678,141.7513,141.7513,0,57,57,57,1,0.039850522,0.039850522,shape_difference2,1,,TRUE,,intensity,0.1,0.05,0.7,0.3,0.82,20,400,1E-11,3.5,0.01,0.5,0.1,,,,,,,,,,,,,,,,,,,,,,,,,,,,,,,,,,,,,,,,,,,,,,,,,,,,,,,,,,,,,,,,,,,,,,,,,,,,,,,,,
,,,,,227467,001,2025-03-13_18h34.20.777,Utility_discrimination_2024_2cat,2024.2.4,Win32,59.17159763,,,,,,,,3,"[0.5,0.5]","[0.383,0.924]",d,"[0.4176133629222633,0.5]","[0.5823866370777366,0.5]",141.7518,143.8332,1,d,1,0.5345,,-0.740475113,-0.170023005,0.570452108,143.834,143.834,0,58,58,58,1,-0.082386637,-0.082386637,shape_difference0,1,,TRUE,,intensity,0.1,0.05,0.7,0.3,0.82,20,400,1E-11,3.5,0.01,0.5,0.1,,,,,,,,,,,,,,,,,,,,,,,,,,,,,,,,,,,,,,,,,,,,,,,,,,,,,,,,,,,,,,,,,,,,,,,,,,,,,,,,,
,,,,,227467,001,2025-03-13_18h34.20.777,Utility_discrimination_2024_2cat,2024.2.4,Win32,59.17159763,,,,,,,,4,"[0.5,0.5]","[0,1]",d,"[0.34277617939301164,0.12069240145990284]","[0.6572238206069884,0.8793075985400971]",143.8347,145.8,1,d,1,0.4243,,-0.763304889,-0.210959736,0.552345154,145.8011,145.8011,0,59,59,59,1,-0.410506059,-0.410506059,shape_difference3,1,,TRUE,,intensity,0.1,0.05,0.7,0.3,0.82,20,400,1E-11,3.5,0.01,0.5,0.1,,,,,,,,,,,,,,,,,,,,,,,,,,,,,,,,,,,,,,,,,,,,,,,,,,,,,,,,,,,,,,,,,,,,,,,,,,,,,,,,,
,,,,,227467,001,2025-03-13_18h34.20.777,Utility_discrimination_2024_2cat,2024.2.4,Win32,59.17159763,,,,,,,,3,"[0.5,0.5]","[0.383,0.924]",d,"[0.5,0.05999979575992709]","[0.5,0.9400002042400729]",145.8017,147.7334,1,d,1,0.39,,-0.763304889,-0.210959736,0.552345154,147.7346,147.7346,0,60,60,60,1,-0.440000204,-0.440000204,shape_difference4,1,,TRUE,,intensity,0.1,0.05,0.7,0.3,0.82,20,400,1E-11,3.5,0.01,0.5,0.1,,,,,,,,,,,,,,,,,,,,,,,,,,,,,,,,,,,,,,,,,,,,,,,,,,,,,,,,,,,,,,,,,,,,,,,,,,,,,,,,,
,,,,,227467,001,2025-03-13_18h34.20.777,Utility_discrimination_2024_2cat,2024.2.4,Win32,59.17159763,,,,,,,,2,"[0.5,0.5]","[0.707,0.707]",d,"[0.33147992177605207,0.0934398112821726]","[0.668520078223948,0.9065601887178274]",147.7351,149.6338,1,d,1,0.3526,,-0.134338938,0.215466481,0.349805419,149.6351,149.6351,0,61,61,61,1,-0.440000204,-0.440000204,shape_difference3,1,,TRUE,,intensity,0.1,0.05,0.7,0.3,0.82,20,400,1E-11,3.5,0.01,0.5,0.1,,,,,,,,,,,,,,,,,,,,,,,,,,,,,,,,,,,,,,,,,,,,,,,,,,,,,,,,,,,,,,,,,,,,,,,,,,,,,,,,,
,,,,,227467,001,2025-03-13_18h34.20.777,Utility_discrimination_2024_2cat,2024.2.4,Win32,59.17159763,,,,,,,,0,"[0.5,0.5]","[1,0]",d,"[0.5157897601578283,0.5157897601578283]","[0.4842102398421717,0.4842102398421717]",149.6356,151.5674,1,s,1,0.3837,,-0.274561145,0.146973213,0.421534357,151.5687,151.5687,0,62,62,62,1,0.022333466,0.022333466,shape_difference2,1,,TRUE,,intensity,0.1,0.05,0.7,0.3,0.82,20,400,1E-11,3.5,0.01,0.5,0.1,,,,,,,,,,,,,,,,,,,,,,,,,,,,,,,,,,,,,,,,,,,,,,,,,,,,,,,,,,,,,,,,,,,,,,,,,,,,,,,,,
,,,,,227467,001,2025-03-13_18h34.20.777,Utility_discrimination_2024_2cat,2024.2.4,Win32,59.17159763,,,,,,,,1,"[0.5,0.5]","[0.924,0.383]",s,"[0.3939359403701289,0.5]","[0.6060640596298711,0.5]",151.5691,153.617,0,s,0,0.5024,,-0.501726043,-0.102157184,0.399568858,153.6182,153.6182,0,63,63,63,1,-0.10606406,-0.10606406,shape_difference0,1,,TRUE,,intensity,0.1,0.05,0.7,0.3,0.82,20,400,1E-11,3.5,0.01,0.5,0.1,,,,,,,,,,,,,,,,,,,,,,,,,,,,,,,,,,,,,,,,,,,,,,,,,,,,,,,,,,,,,,,,,,,,,,,,,,,,,,,,,
,,,,,227467,001,2025-03-13_18h34.20.777,Utility_discrimination_2024_2cat,2024.2.4,Win32,59.17159763,,,,,,,,2,"[0.5,0.5]","[0.707,0.707]",d,"[0.20901393418035136,0.37938564587778634]","[0.7909860658196486,0.6206143541222137]",153.6186,155.5508,1,d,1,0.384,,-0.149058297,0.186267907,0.335326204,155.5526,155.5526,0,64,64,64,1,-0.314919985,-0.314919985,shape_difference1,1,,TRUE,,intensity,0.1,0.05,0.7,0.3,0.82,20,400,1E-11,3.5,0.01,0.5,0.1,,,,,,,,,,,,,,,,,,,,,,,,,,,,,,,,,,,,,,,,,,,,,,,,,,,,,,,,,,,,,,,,,,,,,,,,,,,,,,,,,
,,,,,227467,001,2025-03-13_18h34.20.777,Utility_discrimination_2024_2cat,2024.2.4,Win32,59.17159763,,,,,,,,0,"[0.5,0.5]","[1,0]",d,"[0.5021269491704204,0.5021269491704204]","[0.49787305082957956,0.49787305082957956]",155.5531,158.0009,1,s,1,0.9004,,-0.196916634,0.271914198,0.468830832,158.0029,158.0029,0,65,65,65,1,0.003008415,0.003008415,shape_difference2,1,,TRUE,,intensity,0.1,0.05,0.7,0.3,0.82,20,400,1E-11,3.5,0.01,0.5,0.1,,,,,,,,,,,,,,,,,,,,,,,,,,,,,,,,,,,,,,,,,,,,,,,,,,,,,,,,,,,,,,,,,,,,,,,,,,,,,,,,,
,,,,,227467,001,2025-03-13_18h34.20.777,Utility_discrimination_2024_2cat,2024.2.4,Win32,59.17159763,,,,,,,,3,"[0.5,0.5]","[0.383,0.924]",s,"[0.46057280504956566,0.5]","[0.5394271949504343,0.5]",158.0036,160.1677,1,s,1,0.6338,,-0.779061589,-0.241211791,0.537849798,160.1692,160.1694,0,66,66,66,1,-0.039427195,-0.039427195,shape_difference0,1,,TRUE,,intensity,0.1,0.05,0.7,0.3,0.82,20,400,1E-11,3.5,0.01,0.5,0.1,,,,,,,,,,,,,,,,,,,,,,,,,,,,,,,,,,,,,,,,,,,,,,,,,,,,,,,,,,,,,,,,,,,,,,,,,,,,,,,,,
,,,,,227467,001,2025-03-13_18h34.20.777,Utility_discrimination_2024_2cat,2024.2.4,Win32,59.17159763,,,,,,,,1,"[0.5,0.5]","[0.924,0.383]",s,"[0.3213518813119395,0.06900558311287752]","[0.6786481186880605,0.9309944168871225]",160.1699,162.2845,1,s,1,0.5671,,-0.523276837,-0.127304067,0.39597277,162.2861,162.2861,0,67,67,67,1,-0.466444174,-0.466444174,shape_difference3,1,,TRUE,,intensity,0.1,0.05,0.7,0.3,0.82,20,400,1E-11,3.5,0.01,0.5,0.1,,,,,,,,,,,,,,,,,,,,,,,,,,,,,,,,,,,,,,,,,,,,,,,,,,,,,,,,,,,,,,,,,,,,,,,,,,,,,,,,,
,,,,,227467,001,2025-03-13_18h34.20.777,Utility_discrimination_2024_2cat,2024.2.4,Win32,59.17159763,,,,,,,,4,"[0.5,0.5]","[0,1]",s,"[0.19191025831208847,0.37229613520944793]","[0.8080897416879116,0.6277038647905521]",162.2866,164.2176,1,d,1,0.3898,,-0.779061589,-0.241211791,0.537849798,164.2186,164.2186,0,68,68,68,1,-0.333430456,-0.333430456,shape_difference1,1,,TRUE,,intensity,0.1,0.05,0.7,0.3,0.82,20,400,1E-11,3.5,0.01,0.5,0.1,,,,,,,,,,,,,,,,,,,,,,,,,,,,,,,,,,,,,,,,,,,,,,,,,,,,,,,,,,,,,,,,,,,,,,,,,,,,,,,,,
,,,,,227467,001,2025-03-13_18h34.20.777,Utility_discrimination_2024_2cat,2024.2.4,Win32,59.17159763,,,,,,,,1,"[0.5,0.5]","[0.924,0.383]",d,"[0.5,0.0335558258797376]","[0.5,0.9664441741202624]",164.2191,166.351,1,s,1,0.6049,,-0.538646417,-0.161276433,0.377369984,166.3522,166.3523,0,69,69,69,1,-0.466444174,-0.466444174,shape_difference4,1,,TRUE,,intensity,0.1,0.05,0.7,0.3,0.82,20,400,1E-11,3.5,0.01,0.5,0.1,,,,,,,,,,,,,,,,,,,,,,,,,,,,,,,,,,,,,,,,,,,,,,,,,,,,,,,,,,,,,,,,,,,,,,,,,,,,,,,,,
,,,,,227467,001,2025-03-13_18h34.20.777,Utility_discrimination_2024_2cat,2024.2.4,Win32,59.17159763,,,,,,,,2,"[0.5,0.5]","[0.707,0.707]",s,"[0.1768694888632545,0.3660617037171282]","[0.8231305111367455,0.6339382962828718]",166.353,168.3844,1,s,1,0.4908,,-0.159805652,0.16348185,0.323287503,168.3857,168.3857,0,70,70,70,1,-0.349708345,-0.349708345,shape_difference1,1,,TRUE,,intensity,0.1,0.05,0.7,0.3,0.82,20,400,1E-11,3.5,0.01,0.5,0.1,,,,,,,,,,,,,,,,,,,,,,,,,,,,,,,,,,,,,,,,,,,,,,,,,,,,,,,,,,,,,,,,,,,,,,,,,,,,,,,,,
,,,,,227467,001,2025-03-13_18h34.20.777,Utility_discrimination_2024_2cat,2024.2.4,Win32,59.17159763,,,,,,,,3,"[0.5,0.5]","[0.383,0.924]",s,"[0.4930553489815698,0.4930553489815698]","[0.5069446510184302,0.5069446510184302]",168.3862,170.4345,1,s,1,0.5053,,-0.797573468,-0.278899126,0.518674342,170.4359,170.4359,0,71,71,71,1,-0.009822703,-0.009822703,shape_difference2,1,,TRUE,,intensity,0.1,0.05,0.7,0.3,0.82,20,400,1E-11,3.5,0.01,0.5,0.1,,,,,,,,,,,,,,,,,,,,,,,,,,,,,,,,,,,,,,,,,,,,,,,,,,,,,,,,,,,,,,,,,,,,,,,,,,,,,,,,,
,,,,,227467,001,2025-03-13_18h34.20.777,Utility_discrimination_2024_2cat,2024.2.4,Win32,59.17159763,,,,,,,,0,"[0.5,0.5]","[1,0]",s,"[0.30915531906562,0.039580978633506236]","[0.69084468093438,0.9604190213664938]",170.4364,172.3346,1,d,1,0.3554,,-0.199426364,0.192942641,0.392369005,172.3356,172.3356,0,72,72,72,1,-0.498288984,-0.498288984,shape_difference3,1,,TRUE,,intensity,0.1,0.05,0.7,0.3,0.82,20,400,1E-11,3.5,0.01,0.5,0.1,,,,,,,,,,,,,,,,,,,,,,,,,,,,,,,,,,,,,,,,,,,,,,,,,,,,,,,,,,,,,,,,,,,,,,,,,,,,,,,,,
,,,,,227467,001,2025-03-13_18h34.20.777,Utility_discrimination_2024_2cat,2024.2.4,Win32,59.17159763,,,,,,,,4,"[0.5,0.5]","[0,1]",d,"[0.44097493605946025,0.5]","[0.5590250639405397,0.5]",172.3365,174.4351,1,s,1,0.5528,,-0.797573468,-0.278899126,0.518674342,174.4363,174.4365,0,73,73,73,1,-0.059025064,-0.059025064,shape_difference0,1,,TRUE,,intensity,0.1,0.05,0.7,0.3,0.82,20,400,1E-11,3.5,0.01,0.5,0.1,,,,,,,,,,,,,,,,,,,,,,,,,,,,,,,,,,,,,,,,,,,,,,,,,,,,,,,,,,,,,,,,,,,,,,,,,,,,,,,,,
,,,,,227467,001,2025-03-13_18h34.20.777,Utility_discrimination_2024_2cat,2024.2.4,Win32,59.17159763,,,,,,,,1,"[0.5,0.5]","[0.924,0.383]",s,"[0.5,0.0017110158371279605]","[0.5,0.998288984162872]",174.437,176.5848,1,s,1,0.603,,-0.549897188,-0.202343663,0.347553525,176.5862,176.5862,0,74,74,74,1,-0.498288984,-0.498288984,shape_difference4,1,,TRUE,,intensity,0.1,0.05,0.7,0.3,0.82,20,400,1E-11,3.5,0.01,0.5,0.1,,,,,,,,,,,,,,,,,,,,,,,,,,,,,,,,,,,,,,,,,,,,,,,,,,,,,,,,,,,,,,,,,,,,,,,,,,,,,,,,,
,,,,,227467,001,2025-03-13_18h34.20.777,Utility_discrimination_2024_2cat,2024.2.4,Win32,59.17159763,,,,,,,,0,"[0.5,0.5]","[1,0]",s,"[0.1629761538384894,0.36030288627720936]","[0.8370238461615106,0.6396971137227907]",176.5866,178.5183,1,d,1,0.3892,,-0.21967281,0.149394724,0.369067534,178.5192,178.5192,0,75,75,75,1,-0.364744422,-0.364744422,shape_difference1,1,,TRUE,,intensity,0.1,0.05,0.7,0.3,0.82,20,400,1E-11,3.5,0.01,0.5,0.1,,,,,,,,,,,,,,,,,,,,,,,,,,,,,,,,,,,,,,,,,,,,,,,,,,,,,,,,,,,,,,,,,,,,,,,,,,,,,,,,,
,,,,,227467,001,2025-03-13_18h34.20.777,Utility_discrimination_2024_2cat,2024.2.4,Win32,59.17159763,,,,,,,,2,"[0.5,0.5]","[0.707,0.707]",d,"[0.42224278171235596,0.5]","[0.577757218287644,0.5]",178.5197,180.7018,1,d,1,0.6342,,-0.167820732,0.134217649,0.302038381,180.7031,180.7031,0,76,76,76,1,-0.077757218,-0.077757218,shape_difference0,1,,TRUE,,intensity,0.1,0.05,0.7,0.3,0.82,20,400,1E-11,3.5,0.01,0.5,0.1,,,,,,,,,,,,,,,,,,,,,,,,,,,,,,,,,,,,,,,,,,,,,,,,,,,,,,,,,,,,,,,,,,,,,,,,,,,,,,,,,
,,,,,227467,001,2025-03-13_18h34.20.777,Utility_discrimination_2024_2cat,2024.2.4,Win32,59.17159763,,,,,,,,4,"[0.5,0.5]","[0,1]",d,"[0.48631895991207236,0.48631895991207236]","[0.5136810400879277,0.5136810400879277]",180.7039,182.8518,1,s,1,0.6038,,-0.825856923,-0.311772,0.514084923,182.8532,182.8532,0,77,77,77,1,-0.019350835,-0.019350835,shape_difference2,1,,TRUE,,intensity,0.1,0.05,0.7,0.3,0.82,20,400,1E-11,3.5,0.01,0.5,0.1,,,,,,,,,,,,,,,,,,,,,,,,,,,,,,,,,,,,,,,,,,,,,,,,,,,,,,,,,,,,,,,,,,,,,,,,,,,,,,,,,
,,,,,227467,001,2025-03-13_18h34.20.777,Utility_discrimination_2024_2cat,2024.2.4,Win32,59.17159763,,,,,,,,3,"[0.5,0.5]","[0.383,0.924]",s,"[0.5,-0.026430620101685176]","[0.5,1.026430620101685]",182.8538,185.0352,1,d,1,0.6547,,-0.825856923,-0.311772,0.514084923,185.0365,185.0365,0,78,78,78,1,-0.52643062,-0.52643062,shape_difference4,1,,TRUE,,intensity,0.1,0.05,0.7,0.3,0.82,20,400,1E-11,3.5,0.01,0.5,0.1,,,,,,,,,,,,,,,,,,,,,,,,,,,,,,,,,,,,,,,,,,,,,,,,,,,,,,,,,,,,,,,,,,,,,,,,,,,,,,,,,
,,,,,227467,001,2025-03-13_18h34.20.777,Utility_discrimination_2024_2cat,2024.2.4,Win32,59.17159763,,,,,,,,3,"[0.5,0.5]","[0.383,0.924]",d,"[0.2983770725010546,0.013578107026042896]","[0.7016229274989454,0.9864218929739571]",185.0369,187.1856,1,s,1,0.6111,,-0.848016174,-0.337659314,0.51035686,187.1864,187.1864,0,79,79,79,1,-0.52643062,-0.52643062,shape_difference3,1,,TRUE,,intensity,0.1,0.05,0.7,0.3,0.82,20,400,1E-11,3.5,0.01,0.5,0.1,,,,,,,,,,,,,,,,,,,,,,,,,,,,,,,,,,,,,,,,,,,,,,,,,,,,,,,,,,,,,,,,,,,,,,,,,,,,,,,,,
,,,,,227467,001,2025-03-13_18h34.20.777,Utility_discrimination_2024_2cat,2024.2.4,Win32,59.17159763,,,,,,,,1,"[0.5,0.5]","[0.924,0.383]",s,"[0.2889738429709079,-0.009107491109350274]","[0.7110261570290921,1.0091074911093503]",187.1869,189.1025,1,d,1,0.3685,,-0.563590642,-0.215340348,0.348250294,189.1038,189.1038,0,80,80,80,1,-0.550982133,-0.550982133,shape_difference3,1,,TRUE,,intensity,0.1,0.05,0.7,0.3,0.82,20,400,1E-11,3.5,0.01,0.5,0.1,,,,,,,,,,,,,,,,,,,,,,,,,,,,,,,,,,,,,,,,,,,,,,,,,,,,,,,,,,,,,,,,,,,,,,,,,,,,,,,,,
,,,,,227467,001,2025-03-13_18h34.20.777,Utility_discrimination_2024_2cat,2024.2.4,Win32,59.17159763,,,,,,,,4,"[0.5,0.5]","[0,1]",d,"[0.14721872465607128,0.3537713977741075]","[0.8527812753439288,0.6462286022258925]",189.1045,190.9522,1,d,1,0.3005,,-0.848016174,-0.337659314,0.51035686,190.9536,190.9536,0,81,81,81,1,-0.381797917,-0.381797917,shape_difference1,1,,TRUE,,intensity,0.1,0.05,0.7,0.3,0.82,20,400,1E-11,3.5,0.01,0.5,0.1,,,,,,,,,,,,,,,,,,,,,,,,,,,,,,,,,,,,,,,,,,,,,,,,,,,,,,,,,,,,,,,,,,,,,,,,,,,,,,,,,
,,,,,227467,001,2025-03-13_18h34.20.777,Utility_discrimination_2024_2cat,2024.2.4,Win32,59.17159763,,,,,,,,0,"[0.5,0.5]","[1,0]",d,"[0.5,-0.05098213323522749]","[0.5,1.0509821332352276]",190.9541,192.8858,1,d,1,0.3937,,-0.237091379,0.096575317,0.333666697,192.8869,192.8869,0,82,82,82,1,-0.550982133,-0.550982133,shape_difference4,1,,TRUE,,intensity,0.1,0.05,0.7,0.3,0.82,20,400,1E-11,3.5,0.01,0.5,0.1,,,,,,,,,,,,,,,,,,,,,,,,,,,,,,,,,,,,,,,,,,,,,,,,,,,,,,,,,,,,,,,,,,,,,,,,,,,,,,,,,
,,,,,227467,001,2025-03-13_18h34.20.777,Utility_discrimination_2024_2cat,2024.2.4,Win32,59.17159763,,,,,,,,2,"[0.5,0.5]","[0.707,0.707]",d,"[0.401917917068198,0.5]","[0.598082082931802,0.5]",192.8874,194.7691,1,d,1,0.3399,,-0.173921781,0.099189463,0.273111245,194.77,194.77,0,83,83,83,1,-0.098082083,-0.098082083,shape_difference0,1,,TRUE,,intensity,0.1,0.05,0.7,0.3,0.82,20,400,1E-11,3.5,0.01,0.5,0.1,,,,,,,,,,,,,,,,,,,,,,,,,,,,,,,,,,,,,,,,,,,,,,,,,,,,,,,,,,,,,,,,,,,,,,,,,,,,,,,,,
,,,,,227467,001,2025-03-13_18h34.20.777,Utility_discrimination_2024_2cat,2024.2.4,Win32,59.17159763,,,,,,,,1,"[0.5,0.5]","[0.924,0.383]",d,"[0.48066812170268125,0.48066812170268125]","[0.5193318782973187,0.5193318782973187]",194.7707,196.736,1,d,1,0.4169,,-0.573595182,-0.231702801,0.341892381,196.7375,196.7375,0,84,84,84,1,-0.027343534,-0.027343534,shape_difference2,1,,TRUE,,intensity,0.1,0.05,0.7,0.3,0.82,20,400,1E-11,3.5,0.01,0.5,0.1,,,,,,,,,,,,,,,,,,,,,,,,,,,,,,,,,,,,,,,,,,,,,,,,,,,,,,,,,,,,,,,,,,,,,,,,,,,,,,,,,
,,,,,227467,001,2025-03-13_18h34.20.777,Utility_discrimination_2024_2cat,2024.2.4,Win32,59.17159763,,,,,,,,0,"[0.5,0.5]","[1,0]",d,"[0.1295482233432192,0.3464469367320919]","[0.8704517766567808,0.6535530632679081]",196.7379,198.6697,1,s,1,0.3858,,-0.249716302,0.072289518,0.32200582,198.6708,198.6708,0,85,85,85,1,-0.400921836,-0.400921836,shape_difference1,1,,TRUE,,intensity,0.1,0.05,0.7,0.3,0.82,20,400,1E-11,3.5,0.01,0.5,0.1,,,,,,,,,,,,,,,,,,,,,,,,,,,,,,,,,,,,,,,,,,,,,,,,,,,,,,,,,,,,,,,,,,,,,,,,,,,,,,,,,
,,,,,227467,001,2025-03-13_18h34.20.777,Utility_discrimination_2024_2cat,2024.2.4,Win32,59.17159763,,,,,,,,2,"[0.5,0.5]","[0.707,0.707]",s,"[0.3899715555619139,0.5]","[0.6100284444380861,0.5]",198.6713,200.4359,1,d,1,0.2199,,-0.178657731,0.091275804,0.269933535,200.4368,200.4368,0,86,86,86,1,-0.110028444,-0.110028444,shape_difference0,1,,TRUE,,intensity,0.1,0.05,0.7,0.3,0.82,20,400,1E-11,3.5,0.01,0.5,0.1,,,,,,,,,,,,,,,,,,,,,,,,,,,,,,,,,,,,,,,,,,,,,,,,,,,,,,,,,,,,,,,,,,,,,,,,,,,,,,,,,
,,,,,227467,001,2025-03-13_18h34.20.777,Utility_discrimination_2024_2cat,2024.2.4,Win32,59.17159763,,,,,,,,4,"[0.5,0.5]","[0,1]",d,"[0.47577715929379105,0.47577715929379105]","[0.524222840706209,0.524222840706209]",200.4375,202.2862,1,s,1,0.3105,,-0.873461133,-0.368757096,0.504704037,202.2876,202.2876,0,87,87,87,1,-0.034261444,-0.034261444,shape_difference2,1,,TRUE,,intensity,0.1,0.05,0.7,0.3,0.82,20,400,1E-11,3.5,0.01,0.5,0.1,,,,,,,,,,,,,,,,,,,,,,,,,,,,,,,,,,,,,,,,,,,,,,,,,,,,,,,,,,,,,,,,,,,,,,,,,,,,,,,,,
,,,,,227467,001,2025-03-13_18h34.20.777,Utility_discrimination_2024_2cat,2024.2.4,Win32,59.17159763,,,,,,,,3,"[0.5,0.5]","[0.383,0.924]",s,"[0.5,-0.07834298263666717]","[0.5,1.0783429826366673]",202.2883,204.1862,1,s,1,0.3595,,-0.873461133,-0.368757096,0.504704037,204.1873,204.1873,0,88,88,88,1,-0.578342983,-0.578342983,shape_difference4,1,,TRUE,,intensity,0.1,0.05,0.7,0.3,0.82,20,400,1E-11,3.5,0.01,0.5,0.1,,,,,,,,,,,,,,,,,,,,,,,,,,,,,,,,,,,,,,,,,,,,,,,,,,,,,,,,,,,,,,,,,,,,,,,,,,,,,,,,,
,,,,,227467,001,2025-03-13_18h34.20.777,Utility_discrimination_2024_2cat,2024.2.4,Win32,59.17159763,,,,,,,,1,"[0.5,0.5]","[0.924,0.383]",s,"[0.2784946376501565,-0.034388915956280464]","[0.7215053623498435,1.0343889159562805]",204.1878,206.0863,1,d,1,0.3557,,-0.581075005,-0.253097817,0.327977188,206.0876,206.0876,0,89,89,89,1,-0.578342983,-0.578342983,shape_difference3,1,,TRUE,,intensity,0.1,0.05,0.7,0.3,0.82,20,400,1E-11,3.5,0.01,0.5,0.1,,,,,,,,,,,,,,,,,,,,,,,,,,,,,,,,,,,,,,,,,,,,,,,,,,,,,,,,,,,,,,,,,,,,,,,,,,,,,,,,,
,,,,,227467,001,2025-03-13_18h34.20.777,Utility_discrimination_2024_2cat,2024.2.4,Win32,59.17159763,,,,,,,,3,"[0.5,0.5]","[0.383,0.924]",d,"[0.11768371437683145,0.3415290720847689]","[0.8823162856231686,0.6584709279152311]",206.0883,207.9536,1,d,1,0.3167,,-0.890526426,-0.404878559,0.485647867,207.9546,207.9546,0,90,90,90,1,-0.413762214,-0.413762214,shape_difference1,1,,TRUE,,intensity,0.1,0.05,0.7,0.3,0.82,20,400,1E-11,3.5,0.01,0.5,0.1,,,,,,,,,,,,,,,,,,,,,,,,,,,,,,,,,,,,,,,,,,,,,,,,,,,,,,,,,,,,,,,,,,,,,,,,,,,,,,,,,
,,,,,227467,001,2025-03-13_18h34.20.777,Utility_discrimination_2024_2cat,2024.2.4,Win32,59.17159763,,,,,,,,0,"[0.5,0.5]","[1,0]",d,"[0.26700788781951346,-0.06210107481663085]","[0.7329921121804865,1.0621010748166309]",207.9553,209.8368,1,d,1,0.3333,,-0.259066457,0.041775363,0.30084182,209.8382,209.8382,0,91,91,91,1,-0.608334497,-0.608334497,shape_difference3,1,,TRUE,,intensity,0.1,0.05,0.7,0.3,0.82,20,400,1E-11,3.5,0.01,0.5,0.1,,,,,,,,,,,,,,,,,,,,,,,,,,,,,,,,,,,,,,,,,,,,,,,,,,,,,,,,,,,,,,,,,,,,,,,,,,,,,,,,,
,,,,,227467,001,2025-03-13_18h34.20.777,Utility_discrimination_2024_2cat,2024.2.4,Win32,59.17159763,,,,,,,,4,"[0.5,0.5]","[0,1]",d,"[0.38103362356173986,0.5]","[0.6189663764382601,0.5]",209.8386,211.6202,0,d,0,0.2327,,-0.890526426,-0.404878559,0.485647867,211.6213,211.6213,0,92,92,92,1,-0.118966376,-0.118966376,shape_difference0,1,,TRUE,,intensity,0.1,0.05,0.7,0.3,0.82,20,400,1E-11,3.5,0.01,0.5,0.1,,,,,,,,,,,,,,,,,,,,,,,,,,,,,,,,,,,,,,,,,,,,,,,,,,,,,,,,,,,,,,,,,,,,,,,,,,,,,,,,,
,,,,,227467,001,2025-03-13_18h34.20.777,Utility_discrimination_2024_2cat,2024.2.4,Win32,59.17159763,,,,,,,,2,"[0.5,0.5]","[0.707,0.707]",s,"[0.5,-0.10833449655479521]","[0.5,1.1083344965547952]",211.6217,213.6037,1,s,1,0.4331,,-0.182402995,0.082762284,0.265165279,213.605,213.605,0,93,93,93,1,-0.608334497,-0.608334497,shape_difference4,1,,TRUE,,intensity,0.1,0.05,0.7,0.3,0.82,20,400,1E-11,3.5,0.01,0.5,0.1,,,,,,,,,,,,,,,,,,,,,,,,,,,,,,,,,,,,,,,,,,,,,,,,,,,,,,,,,,,,,,,,,,,,,,,,,,,,,,,,,
,,,,,227467,001,2025-03-13_18h34.20.777,Utility_discrimination_2024_2cat,2024.2.4,Win32,59.17159763,,,,,,,,0,"[0.5,0.5]","[1,0]",s,"[0.47139627919533417,0.47139627919533417]","[0.5286037208046659,0.5286037208046659]",213.6061,215.6535,1,d,1,0.5104,,-0.195851939,0.099776809,0.295628748,215.6545,215.6545,0,94,94,94,1,-0.040457879,-0.040457879,shape_difference2,1,,TRUE,,intensity,0.1,0.05,0.7,0.3,0.82,20,400,1E-11,3.5,0.01,0.5,0.1,,,,,,,,,,,,,,,,,,,,,,,,,,,,,,,,,,,,,,,,,,,,,,,,,,,,,,,,,,,,,,,,,,,,,,,,,,,,,,,,,
,,,,,227467,001,2025-03-13_18h34.20.777,Utility_discrimination_2024_2cat,2024.2.4,Win32,59.17159763,,,,,,,,4,"[0.5,0.5]","[0,1]",d,"[0.42114420920621853,0.5]","[0.5788557907937815,0.5]",215.655,217.8204,1,s,1,0.6239,,-0.906423025,-0.425211867,0.481211158,217.8215,217.8215,0,95,95,95,1,-0.078855791,-0.078855791,shape_difference0,1,,TRUE,,intensity,0.1,0.05,0.7,0.3,0.82,20,400,1E-11,3.5,0.01,0.5,0.1,,,,,,,,,,,,,,,,,,,,,,,,,,,,,,,,,,,,,,,,,,,,,,,,,,,,,,,,,,,,,,,,,,,,,,,,,,,,,,,,,
,,,,,227467,001,2025-03-13_18h34.20.777,Utility_discrimination_2024_2cat,2024.2.4,Win32,59.17159763,,,,,,,,2,"[0.5,0.5]","[0.707,0.707]",s,"[0.5,-0.1332477255727441]","[0.5,1.133247725572744]",217.8221,219.8707,1,d,1,0.5011,,-0.185417255,0.07318966,0.258606915,219.8717,219.8717,0,96,96,96,1,-0.633247726,-0.633247726,shape_difference4,1,,TRUE,,intensity,0.1,0.05,0.7,0.3,0.82,20,400,1E-11,3.5,0.01,0.5,0.1,,,,,,,,,,,,,,,,,,,,,,,,,,,,,,,,,,,,,,,,,,,,,,,,,,,,,,,,,,,,,,,,,,,,,,,,,,,,,,,,,
,,,,,227467,001,2025-03-13_18h34.20.777,Utility_discrimination_2024_2cat,2024.2.4,Win32,59.17159763,,,,,,,,3,"[0.5,0.5]","[0.383,0.924]",d,"[0.4673278938038223,0.4673278938038223]","[0.5326721061961778,0.5326721061961778]",219.8724,221.5375,1,d,1,0.1235,,-0.906423025,-0.425211867,0.481211158,221.5389,221.5389,0,97,97,97,1,-0.046212314,-0.046212314,shape_difference2,1,,TRUE,,intensity,0.1,0.05,0.7,0.3,0.82,20,400,1E-11,3.5,0.01,0.5,0.1,,,,,,,,,,,,,,,,,,,,,,,,,,,,,,,,,,,,,,,,,,,,,,,,,,,,,,,,,,,,,,,,,,,,,,,,,,,,,,,,,
,,,,,227467,001,2025-03-13_18h34.20.777,Utility_discrimination_2024_2cat,2024.2.4,Win32,59.17159763,,,,,,,,1,"[0.5,0.5]","[0.924,0.383]",d,"[0.257466121105639,-0.08512089842921555]","[0.742533878894361,1.0851208984292156]",221.5394,223.7206,1,s,1,0.6338,,-0.586802666,-0.281975065,0.304827601,223.7219,223.7219,0,98,98,98,1,-0.633247726,-0.633247726,shape_difference3,1,,TRUE,,intensity,0.1,0.05,0.7,0.3,0.82,20,400,1E-11,3.5,0.01,0.5,0.1,,,,,,,,,,,,,,,,,,,,,,,,,,,,,,,,,,,,,,,,,,,,,,,,,,,,,,,,,,,,,,,,,,,,,,,,,,,,,,,,,
,,,,,227467,001,2025-03-13_18h34.20.777,Utility_discrimination_2024_2cat,2024.2.4,Win32,59.17159763,,,,,,,,2,"[0.5,0.5]","[0.707,0.707]",s,"[0.10762860828577675,0.33736120884572784]","[0.8923713917142233,0.6626387911542722]",223.7225,225.4207,1,d,1,0.1505,,-0.187883662,0.062002378,0.24988604,225.4221,225.4222,0,99,99,99,1,-0.424644363,-0.424644363,shape_difference1,1,,TRUE,,intensity,0.1,0.05,0.7,0.3,0.82,20,400,1E-11,3.5,0.01,0.5,0.1,,,,,,,,,,,,,,,,,,,,,,,,,,,,,,,,,,,,,,,,,,,,,,,,,,,,,,,,,,,,,,,,,,,,,,,,,,,,,,,,,
,,,,,227467,001,2025-03-13_18h34.20.777,Utility_discrimination_2024_2cat,2024.2.4,Win32,59.17159763,,,,,,,,3,"[0.5,0.5]","[0.383,0.924]",d,"[0.4634099052967714,0.4634099052967714]","[0.5365900947032286,0.5365900947032286]",225.4235,227.8876,1,s,1,0.9171,,-0.929904407,-0.45344894,0.476455467,227.8886,227.8886,0,100,100,100,1,-0.051754024,-0.051754024,shape_difference2,1,,TRUE,,intensity,0.1,0.05,0.7,0.3,0.82,20,400,1E-11,3.5,0.01,0.5,0.1,,,,,,,,,,,,,,,,,,,,,,,,,,,,,,,,,,,,,,,,,,,,,,,,,,,,,,,,,,,,,,,,,,,,,,,,,,,,,,,,,
,,,,,227467,001,2025-03-13_18h34.20.777,Utility_discrimination_2024_2cat,2024.2.4,Win32,59.17159763,,,,,,,,1,"[0.5,0.5]","[0.924,0.383]",s,"[0.2489248899543377,-0.1057268973425377]","[0.7510751100456623,1.1057268973425378]",227.8891,229.8879,1,d,1,0.4504,,-0.591297757,-0.303899926,0.287397831,229.8889,229.8889,0,101,101,101,1,-0.65554859,-0.65554859,shape_difference3,1,,TRUE,,intensity,0.1,0.05,0.7,0.3,0.82,20,400,1E-11,3.5,0.01,0.5,0.1,,,,,,,,,,,,,,,,,,,,,,,,,,,,,,,,,,,,,,,,,,,,,,,,,,,,,,,,,,,,,,,,,,,,,,,,,,,,,,,,,
,,,,,227467,001,2025-03-13_18h34.20.777,Utility_discrimination_2024_2cat,2024.2.4,Win32,59.17159763,,,,,,,,4,"[0.5,0.5]","[0,1]",d,"[0.09882634901798482,0.33371265332671884]","[0.9011736509820152,0.6662873466732812]",229.8898,231.9045,1,s,1,0.4741,,-0.929904407,-0.45344894,0.476455467,231.9062,231.9062,0,102,102,102,1,-0.434170618,-0.434170618,shape_difference1,1,,TRUE,,intensity,0.1,0.05,0.7,0.3,0.82,20,400,1E-11,3.5,0.01,0.5,0.1,,,,,,,,,,,,,,,,,,,,,,,,,,,,,,,,,,,,,,,,,,,,,,,,,,,,,,,,,,,,,,,,,,,,,,,,,,,,,,,,,
,,,,,227467,001,2025-03-13_18h34.20.777,Utility_discrimination_2024_2cat,2024.2.4,Win32,59.17159763,,,,,,,,0,"[0.5,0.5]","[1,0]",s,"[0.5,-0.15554859019755163]","[0.5,1.1555485901975517]",231.9066,233.738,1,d,1,0.2993,,-0.197766609,0.07987998,0.277646589,233.739,233.739,0,103,103,103,1,-0.65554859,-0.65554859,shape_difference4,1,,TRUE,,intensity,0.1,0.05,0.7,0.3,0.82,20,400,1E-11,3.5,0.01,0.5,0.1,,,,,,,,,,,,,,,,,,,,,,,,,,,,,,,,,,,,,,,,,,,,,,,,,,,,,,,,,,,,,,,,,,,,,,,,,,,,,,,,,
,,,,,227467,001,2025-03-13_18h34.20.777,Utility_discrimination_2024_2cat,2024.2.4,Win32,59.17159763,,,,,,,,0,"[0.5,0.5]","[1,0]",d,"[0.404119142447243,0.5]","[0.595880857552757,0.5]",233.7395,235.438,1,s,1,0.1587,,-0.199586038,0.055617417,0.255203454,235.4391,235.4391,0,104,104,104,1,-0.095880858,-0.095880858,shape_difference0,1,,TRUE,,intensity,0.1,0.05,0.7,0.3,0.82,20,400,1E-11,3.5,0.01,0.5,0.1,,,,,,,,,,,,,,,,,,,,,,,,,,,,,,,,,,,,,,,,,,,,,,,,,,,,,,,,,,,,,,,,,,,,,,,,,,,,,,,,,
,,,,,227467,001,2025-03-13_18h34.20.777,Utility_discrimination_2024_2cat,2024.2.4,Win32,59.17159763,,,,,,,,3,"[0.5,0.5]","[0.383,0.924]",s,"[0.39266373279438227,0.5]","[0.6073362672056177,0.5]",235.44,237.5385,1,s,1,0.5503,,-0.957860854,-0.488033908,0.469826946,237.5395,237.5395,0,105,105,105,1,-0.107336267,-0.107336267,shape_difference0,1,,TRUE,,intensity,0.1,0.05,0.7,0.3,0.82,20,400,1E-11,3.5,0.01,0.5,0.1,,,,,,,,,,,,,,,,,,,,,,,,,,,,,,,,,,,,,,,,,,,,,,,,,,,,,,,,,,,,,,,,,,,,,,,,,,,,,,,,,
,,,,,227467,001,2025-03-13_18h34.20.777,Utility_discrimination_2024_2cat,2024.2.4,Win32,59.17159763,,,,,,,,2,"[0.5,0.5]","[0.707,0.707]",s,"[0.2391641761874606,-0.12927493786628308]","[0.7608358238125394,1.129274937866283]",237.54,239.4883,1,d,1,0.4002,,-0.190808903,0.050332908,0.24114181,239.4893,239.4893,0,106,106,106,1,-0.681033483,-0.681033483,shape_difference3,1,,TRUE,,intensity,0.1,0.05,0.7,0.3,0.82,20,400,1E-11,3.5,0.01,0.5,0.1,,,,,,,,,,,,,,,,,,,,,,,,,,,,,,,,,,,,,,,,,,,,,,,,,,,,,,,,,,,,,,,,,,,,,,,,,,,,,,,,,
,,,,,227467,001,2025-03-13_18h34.20.777,Utility_discrimination_2024_2cat,2024.2.4,Win32,59.17159763,,,,,,,,1,"[0.5,0.5]","[0.924,0.383]",d,"[0.45898856321656156,0.45898856321656156]","[0.5410114367834384,0.5410114367834384]",239.4898,247.2553,0,s,0,6.2343,,-0.594914613,-0.312078141,0.282836472,247.2573,247.2574,0,107,107,107,1,-0.05800769,-0.05800769,shape_difference2,1,,TRUE,,intensity,0.1,0.05,0.7,0.3,0.82,20,400,1E-11,3.5,0.01,0.5,0.1,,,,,,,,,,,,,,,,,,,,,,,,,,,,,,,,,,,,,,,,,,,,,,,,,,,,,,,,,,,,,,,,,,,,,,,,,,,,,,,,,
,,,,,227467,001,2025-03-13_18h34.20.777,Utility_discrimination_2024_2cat,2024.2.4,Win32,59.17159763,,,,,,,,4,"[0.5,0.5]","[0,1]",d,"[0.09084147385308616,0.33040290528758876]","[0.9091585261469138,0.6695970947124112]",247.2581,249.3221,1,s,1,0.5226,,-0.957860854,-0.488033908,0.469826946,249.3235,249.3235,0,108,108,108,1,-0.442812258,-0.442812258,shape_difference1,1,,TRUE,,intensity,0.1,0.05,0.7,0.3,0.82,20,400,1E-11,3.5,0.01,0.5,0.1,,,,,,,,,,,,,,,,,,,,,,,,,,,,,,,,,,,,,,,,,,,,,,,,,,,,,,,,,,,,,,,,,,,,,,,,,,,,,,,,,
,,,,,227467,001,2025-03-13_18h34.20.777,Utility_discrimination_2024_2cat,2024.2.4,Win32,59.17159763,,,,,,,,1,"[0.5,0.5]","[0.924,0.383]",s,"[0.5,-0.18103348253926732]","[0.5,1.1810334825392674]",249.3244,251.4388,1,s,1,0.5668,,-0.597898342,-0.321307216,0.276591126,251.4398,251.4398,0,109,109,109,1,-0.681033483,-0.681033483,shape_difference4,1,,TRUE,,intensity,0.1,0.05,0.7,0.3,0.82,20,400,1E-11,3.5,0.01,0.5,0.1,,,,,,,,,,,,,,,,,,,,,,,,,,,,,,,,,,,,,,,,,,,,,,,,,,,,,,,,,,,,,,,,,,,,,,,,,,,,,,,,,
,,,,,227467,001,2025-03-13_18h34.20.777,Utility_discrimination_2024_2cat,2024.2.4,Win32,59.17159763,,,,,,,,2,"[0.5,0.5]","[0.707,0.707]",s,"[0.08332209595981738,0.3272861068751191]","[0.9166779040401827,0.6727138931248808]",251.4403,253.7224,1,d,1,0.7503,,-0.178670859,0.071811188,0.250482047,253.7234,253.7234,0,110,110,110,1,-0.450950113,-0.450950113,shape_difference1,1,,TRUE,,intensity,0.1,0.05,0.7,0.3,0.82,20,400,1E-11,3.5,0.01,0.5,0.1,,,,,,,,,,,,,,,,,,,,,,,,,,,,,,,,,,,,,,,,,,,,,,,,,,,,,,,,,,,,,,,,,,,,,,,,,,,,,,,,,
,,,,,227467,001,2025-03-13_18h34.20.777,Utility_discrimination_2024_2cat,2024.2.4,Win32,59.17159763,,,,,,,,0,"[0.5,0.5]","[1,0]",d,"[0.46976893330179936,0.46976893330179936]","[0.5302310666982006,0.5302310666982006]",253.7239,255.7054,0,s,0,0.4431,,-0.21483629,0.024962985,0.239799275,255.7061,255.7061,0,111,111,111,1,-0.042759642,-0.042759642,shape_difference2,1,,TRUE,,intensity,0.1,0.05,0.7,0.3,0.82,20,400,1E-11,3.5,0.01,0.5,0.1,,,,,,,,,,,,,,,,,,,,,,,,,,,,,,,,,,,,,,,,,,,,,,,,,,,,,,,,,,,,,,,,,,,,,,,,,,,,,,,,,
,,,,,227467,001,2025-03-13_18h34.20.777,Utility_discrimination_2024_2cat,2024.2.4,Win32,59.17159763,,,,,,,,3,"[0.5,0.5]","[0.383,0.924]",d,"[0.38489684944521085,0.5]","[0.6151031505547891,0.5]",255.7068,257.4559,1,d,1,0.2039,,-0.976778747,-0.511527665,0.465251083,257.4573,257.4573,0,112,112,112,1,-0.115103151,-0.115103151,shape_difference0,1,,TRUE,,intensity,0.1,0.05,0.7,0.3,0.82,20,400,1E-11,3.5,0.01,0.5,0.1,,,,,,,,,,,,,,,,,,,,,,,,,,,,,,,,,,,,,,,,,,,,,,,,,,,,,,,,,,,,,,,,,,,,,,,,,,,,,,,,,
,,,,,227467,001,2025-03-13_18h34.20.777,Utility_discrimination_2024_2cat,2024.2.4,Win32,59.17159763,,,,,,,,4,"[0.5,0.5]","[0,1]",d,"[0.22862374579143907,-0.1547040702055099]","[0.7713762542085609,1.15470407020551]",257.4577,259.356,1,s,1,0.3504,,-0.976778747,-0.511527665,0.465251083,259.3573,259.3573,0,113,113,113,1,-0.708554189,-0.708554189,shape_difference3,1,,TRUE,,intensity,0.1,0.05,0.7,0.3,0.82,20,400,1E-11,3.5,0.01,0.5,0.1,,,,,,,,,,,,,,,,,,,,,,,,,,,,,,,,,,,,,,,,,,,,,,,,,,,,,,,,,,,,,,,,,,,,,,,,,,,,,,,,,
,,,,,227467,001,2025-03-13_18h34.20.777,Utility_discrimination_2024_2cat,2024.2.4,Win32,59.17159763,,,,,,,,4,"[0.5,0.5]","[0,1]",s,"[0.5,-0.20855418853410157]","[0.5,1.2085541885341016]",259.3582,261.106,1,d,1,0.2057,,-0.98988212,-0.531869289,0.458012831,261.1072,261.1072,0,114,114,114,1,-0.708554189,-0.708554189,shape_difference4,1,,TRUE,,intensity,0.1,0.05,0.7,0.3,0.82,20,400,1E-11,3.5,0.01,0.5,0.1,,,,,,,,,,,,,,,,,,,,,,,,,,,,,,,,,,,,,,,,,,,,,,,,,,,,,,,,,,,,,,,,,,,,,,,,,,,,,,,,,
,,,,,227467,001,2025-03-13_18h34.20.777,Utility_discrimination_2024_2cat,2024.2.4,Win32,59.17159763,,,,,,,,0,"[0.5,0.5]","[1,0]",d,"[0.5,-0.23097758359781861]","[0.5,1.2309775835978187]",261.1078,262.9561,1,d,1,0.3001,,-0.230022578,-0.002217388,0.22780519,262.9572,262.9572,0,115,115,115,1,-0.730977584,-0.730977584,shape_difference4,1,,TRUE,,intensity,0.1,0.05,0.7,0.3,0.82,20,400,1E-11,3.5,0.01,0.5,0.1,,,,,,,,,,,,,,,,,,,,,,,,,,,,,,,,,,,,,,,,,,,,,,,,,,,,,,,,,,,,,,,,,,,,,,,,,,,,,,,,,
,,,,,227467,001,2025-03-13_18h34.20.777,Utility_discrimination_2024_2cat,2024.2.4,Win32,59.17159763,,,,,,,,2,"[0.5,0.5]","[0.707,0.707]",d,"[0.3785993379199908,0.5]","[0.6214006620800092,0.5]",262.9581,264.7058,1,d,1,0.2097,,-0.127639239,0.094470466,0.222109705,264.7069,264.707,0,116,116,116,1,-0.121400662,-0.121400662,shape_difference0,1,,TRUE,,intensity,0.1,0.05,0.7,0.3,0.82,20,400,1E-11,3.5,0.01,0.5,0.1,,,,,,,,,,,,,,,,,,,,,,,,,,,,,,,,,,,,,,,,,,,,,,,,,,,,,,,,,,,,,,,,,,,,,,,,,,,,,,,,,
,,,,,227467,001,2025-03-13_18h34.20.777,Utility_discrimination_2024_2cat,2024.2.4,Win32,59.17159763,,,,,,,,3,"[0.5,0.5]","[0.383,0.924]",d,"[0.48455317960542355,0.48455317960542355]","[0.5154468203945765,0.5154468203945765]",264.7074,266.7064,1,s,1,0.4511,,-0.98988212,-0.531869289,0.458012831,266.7074,266.7075,0,117,117,117,1,-0.021848402,-0.021848402,shape_difference2,1,,TRUE,,intensity,0.1,0.05,0.7,0.3,0.82,20,400,1E-11,3.5,0.01,0.5,0.1,,,,,,,,,,,,,,,,,,,,,,,,,,,,,,,,,,,,,,,,,,,,,,,,,,,,,,,,,,,,,,,,,,,,,,,,,,,,,,,,,
,,,,,227467,001,2025-03-13_18h34.20.777,Utility_discrimination_2024_2cat,2024.2.4,Win32,59.17159763,,,,,,,,1,"[0.5,0.5]","[0.924,0.383]",s,"[0.22003558548203545,-0.17542328724438438]","[0.7799644145179645,1.1754232872443844]",266.708,268.4231,1,d,1,0.167,,-0.620707366,-0.330780527,0.289926839,268.4245,268.4245,0,118,118,118,1,-0.730977584,-0.730977584,shape_difference3,1,,TRUE,,intensity,0.1,0.05,0.7,0.3,0.82,20,400,1E-11,3.5,0.01,0.5,0.1,,,,,,,,,,,,,,,,,,,,,,,,,,,,,,,,,,,,,,,,,,,,,,,,,,,,,,,,,,,,,,,,,,,,,,,,,,,,,,,,,
,,,,,227467,001,2025-03-13_18h34.20.777,Utility_discrimination_2024_2cat,2024.2.4,Win32,59.17159763,,,,,,,,0,"[0.5,0.5]","[1,0]",d,"[0.07494507393058009,0.3238138131119179]","[0.9250549260694199,0.6761861868880821]",268.4254,270.0564,1,d,1,0.0902,,-0.241784267,-0.008759037,0.23302523,270.0575,270.0575,0,119,119,119,1,-0.460016154,-0.460016154,shape_difference1,1,,TRUE,,intensity,0.1,0.05,0.7,0.3,0.82,20,400,1E-11,3.5,0.01,0.5,0.1,,,,,,,,,,,,,,,,,,,,,,,,,,,,,,,,,,,,,,,,,,,,,,,,,,,,,,,,,,,,,,,,,,,,,,,,,,,,,,,,,
,,,,,227467,001,2025-03-13_18h34.20.777,Utility_discrimination_2024_2cat,2024.2.4,Win32,59.17159763,,,,,,,,3,"[0.5,0.5]","[0.383,0.924]",d,"[0.37339301455763374,0.5]","[0.6266069854423663,0.5]",270.0583,271.8899,1,d,1,0.2853,,-0.999178956,-0.560253648,0.438925308,271.8914,271.8914,0,120,120,120,1,-0.126606985,-0.126606985,shape_difference0,1,,TRUE,,intensity,0.1,0.05,0.7,0.3,0.82,20,400,1E-11,3.5,0.01,0.5,0.1,,,,,,,,,,,,,,,,,,,,,,,,,,,,,,,,,,,,,,,,,,,,,,,,,,,,,,,,,,,,,,,,,,,,,,,,,,,,,,,,,
,,,,,227467,001,2025-03-13_18h34.20.777,Utility_discrimination_2024_2cat,2024.2.4,Win32,59.17159763,,,,,,,,1,"[0.5,0.5]","[0.924,0.383]",d,"[0.21235787056403166,-0.1939460250622317]","[0.7876421294359683,1.1939460250622318]",271.8921,273.7066,1,s,1,0.2761,,-0.651601766,-0.342840955,0.308760812,273.708,273.708,0,121,121,121,1,-0.751023837,-0.751023837,shape_difference3,1,,TRUE,,intensity,0.1,0.05,0.7,0.3,0.82,20,400,1E-11,3.5,0.01,0.5,0.1,,,,,,,,,,,,,,,,,,,,,,,,,,,,,,,,,,,,,,,,,,,,,,,,,,,,,,,,,,,,,,,,,,,,,,,,,,,,,,,,,
,,,,,227467,001,2025-03-13_18h34.20.777,Utility_discrimination_2024_2cat,2024.2.4,Win32,59.17159763,,,,,,,,2,"[0.5,0.5]","[0.707,0.707]",s,"[0.06547909566284438,0.319890144630811]","[0.9345209043371556,0.680109855369189]",273.7084,275.5901,1,s,1,0.3352,,-0.139707573,0.088594767,0.228302339,275.5916,275.5916,0,122,122,122,1,-0.470260719,-0.470260719,shape_difference1,1,,TRUE,,intensity,0.1,0.05,0.7,0.3,0.82,20,400,1E-11,3.5,0.01,0.5,0.1,,,,,,,,,,,,,,,,,,,,,,,,,,,,,,,,,,,,,,,,,,,,,,,,,,,,,,,,,,,,,,,,,,,,,,,,,,,,,,,,,
,,,,,227467,001,2025-03-13_18h34.20.777,Utility_discrimination_2024_2cat,2024.2.4,Win32,59.17159763,,,,,,,,4,"[0.5,0.5]","[0,1]",s,"[0.4810446453645879,0.4810446453645879]","[0.5189553546354121,0.5189553546354121]",275.5922,278.5569,1,s,1,1.4175,,-0.999178956,-0.560253648,0.438925308,278.5579,278.5579,0,123,123,123,1,-0.026810968,-0.026810968,shape_difference2,1,,TRUE,,intensity,0.1,0.05,0.7,0.3,0.82,20,400,1E-11,3.5,0.01,0.5,0.1,,,,,,,,,,,,,,,,,,,,,,,,,,,,,,,,,,,,,,,,,,,,,,,,,,,,,,,,,,,,,,,,,,,,,,,,,,,,,,,,,
,,,,,227467,001,2025-03-13_18h34.20.777,Utility_discrimination_2024_2cat,2024.2.4,Win32,59.17159763,,,,,,,,1,"[0.5,0.5]","[0.924,0.383]",s,"[0.5,-0.2510238366474369]","[0.5,1.2510238366474369]",278.5584,280.357,1,d,1,0.2526,,-0.674850173,-0.358592075,0.316258098,280.3581,280.3581,0,124,124,124,1,-0.751023837,-0.751023837,shape_difference4,1,,TRUE,,intensity,0.1,0.05,0.7,0.3,0.82,20,400,1E-11,3.5,0.01,0.5,0.1,,,,,,,,,,,,,,,,,,,,,,,,,,,,,,,,,,,,,,,,,,,,,,,,,,,,,,,,,,,,,,,,,,,,,,,,,,,,,,,,,
,,,,,227467,001,2025-03-13_18h34.20.777,Utility_discrimination_2024_2cat,2024.2.4,Win32,59.17159763,,,,,,,,3,"[0.5,0.5]","[0.383,0.924]",d,"[0.05446140689766382,0.3153232887898325]","[0.9455385931023361,0.6846767112101675]",280.3585,282.1738,1,d,1,0.2696,,-1.032935643,-0.59453384,0.438401803,282.1751,282.1752,0,125,125,125,1,-0.482184625,-0.482184625,shape_difference1,1,,TRUE,,intensity,0.1,0.05,0.7,0.3,0.82,20,400,1E-11,3.5,0.01,0.5,0.1,,,,,,,,,,,,,,,,,,,,,,,,,,,,,,,,,,,,,,,,,,,,,,,,,,,,,,,,,,,,,,,,,,,,,,,,,,,,,,,,,
,,,,,227467,001,2025-03-13_18h34.20.777,Utility_discrimination_2024_2cat,2024.2.4,Win32,59.17159763,,,,,,,,4,"[0.5,0.5]","[0,1]",d,"[0.20380648528821982,-0.2145765211323366]","[0.7961935147117802,1.2145765211323365]",282.1755,283.9405,1,s,1,0.2248,,-1.032935643,-0.59453384,0.438401803,283.9419,283.9419,0,126,126,126,1,-0.773351213,-0.773351213,shape_difference3,1,,TRUE,,intensity,0.1,0.05,0.7,0.3,0.82,20,400,1E-11,3.5,0.01,0.5,0.1,,,,,,,,,,,,,,,,,,,,,,,,,,,,,,,,,,,,,,,,,,,,,,,,,,,,,,,,,,,,,,,,,,,,,,,,,,,,,,,,,
,,,,,227467,001,2025-03-13_18h34.20.777,Utility_discrimination_2024_2cat,2024.2.4,Win32,59.17159763,,,,,,,,2,"[0.5,0.5]","[0.707,0.707]",s,"[0.5,-0.27335121334668455]","[0.5,1.2733512133466847]",283.9424,285.757,1,s,1,0.2691,,-0.149242153,0.082294854,0.231537007,285.7581,285.7581,0,127,127,127,1,-0.773351213,-0.773351213,shape_difference4,1,,TRUE,,intensity,0.1,0.05,0.7,0.3,0.82,20,400,1E-11,3.5,0.01,0.5,0.1,,,,,,,,,,,,,,,,,,,,,,,,,,,,,,,,,,,,,,,,,,,,,,,,,,,,,,,,,,,,,,,,,,,,,,,,,,,,,,,,,
,,,,,227467,001,2025-03-13_18h34.20.777,Utility_discrimination_2024_2cat,2024.2.4,Win32,59.17159763,,,,,,,,0,"[0.5,0.5]","[1,0]",s,"[0.4780592440632154,0.4780592440632154]","[0.5219407559367846,0.5219407559367846]",285.7586,287.8907,1,d,1,0.5844,,-0.251031158,-0.015614636,0.235416521,287.8918,287.8918,0,128,128,128,1,-0.031033601,-0.031033601,shape_difference2,1,,TRUE,,intensity,0.1,0.05,0.7,0.3,0.82,20,400,1E-11,3.5,0.01,0.5,0.1,,,,,,,,,,,,,,,,,,,,,,,,,,,,,,,,,,,,,,,,,,,,,,,,,,,,,,,,,,,,,,,,,,,,,,,,,,,,,,,,,
,,,,,227467,001,2025-03-13_18h34.20.777,Utility_discrimination_2024_2cat,2024.2.4,Win32,59.17159763,,,,,,,,1,"[0.5,0.5]","[0.924,0.383]",d,"[0.3689936603373851,0.5]","[0.6310063396626149,0.5]",287.8922,289.9408,1,s,1,0.5005,,-0.692743861,-0.379635425,0.313108436,289.9421,289.9421,0,129,129,129,1,-0.13100634,-0.13100634,shape_difference0,1,,TRUE,,intensity,0.1,0.05,0.7,0.3,0.82,20,400,1E-11,3.5,0.01,0.5,0.1,,,,,,,,,,,,,,,,,,,,,,,,,,,,,,,,,,,,,,,,,,,,,,,,,,,,,,,,,,,,,,,,,,,,,,,,,,,,,,,,,
,,,,,227467,001,2025-03-13_18h34.20.777,Utility_discrimination_2024_2cat,2024.2.4,Win32,59.17159763,,,,,,,,2,"[0.5,0.5]","[0.707,0.707]",s,"[0.0413102102567261,0.3098720893163702]","[0.9586897897432739,0.6901279106836298]",289.9425,292.5905,1,d,1,1.1012,,-0.156868191,0.07530379,0.232171981,292.592,292.592,0,130,130,130,1,-0.496417521,-0.496417521,shape_difference1,1,,TRUE,,intensity,0.1,0.05,0.7,0.3,0.82,20,400,1E-11,3.5,0.01,0.5,0.1,,,,,,,,,,,,,,,,,,,,,,,,,,,,,,,,,,,,,,,,,,,,,,,,,,,,,,,,,,,,,,,,,,,,,,,,,,,,,,,,,
,,,,,227467,001,2025-03-13_18h34.20.777,Utility_discrimination_2024_2cat,2024.2.4,Win32,59.17159763,,,,,,,,4,"[0.5,0.5]","[0,1]",d,"[0.47546030476792517,0.47546030476792517]","[0.5245396952320748,0.5245396952320748]",292.5927,295.9578,1,s,1,1.817,,-1.056987742,-0.612175936,0.444811805,295.9589,295.9589,0,131,131,131,1,-0.034709611,-0.034709611,shape_difference2,1,,TRUE,,intensity,0.1,0.05,0.7,0.3,0.82,20,400,1E-11,3.5,0.01,0.5,0.1,,,,,,,,,,,,,,,,,,,,,,,,,,,,,,,,,,,,,,,,,,,,,,,,,,,,,,,,,,,,,,,,,,,,,,,,,,,,,,,,,
,,,,,227467,001,2025-03-13_18h34.20.777,Utility_discrimination_2024_2cat,2024.2.4,Win32,59.17159763,,,,,,,,0,"[0.5,0.5]","[1,0]",s,"[0.5,-0.29926843822315174]","[0.5,1.2992684382231516]",295.9593,298.2078,1,s,1,0.7,,-0.258399636,-0.023081712,0.235317924,298.2089,298.2089,0,132,132,132,1,-0.799268438,-0.799268438,shape_difference4,1,,TRUE,,intensity,0.1,0.05,0.7,0.3,0.82,20,400,1E-11,3.5,0.01,0.5,0.1,,,,,,,,,,,,,,,,,,,,,,,,,,,,,,,,,,,,,,,,,,,,,,,,,,,,,,,,,,,,,,,,,,,,,,,,,,,,,,,,,
,,,,,227467,001,2025-03-13_18h34.20.777,Utility_discrimination_2024_2cat,2024.2.4,Win32,59.17159763,,,,,,,,3,"[0.5,0.5]","[0.383,0.924]",s,"[0.36518331980543195,0.5]","[0.634816680194568,0.5]",298.2097,299.8913,1,d,1,0.1339,,-1.056987742,-0.612175936,0.444811805,299.8931,299.8931,0,133,133,133,1,-0.13481668,-0.13481668,shape_difference0,1,,TRUE,,intensity,0.1,0.05,0.7,0.3,0.82,20,400,1E-11,3.5,0.01,0.5,0.1,,,,,,,,,,,,,,,,,,,,,,,,,,,,,,,,,,,,,,,,,,,,,,,,,,,,,,,,,,,,,,,,,,,,,,,,,,,,,,,,,
,,,,,227467,001,2025-03-13_18h34.20.777,Utility_discrimination_2024_2cat,2024.2.4,Win32,59.17159763,,,,,,,,4,"[0.5,0.5]","[0,1]",d,"[0.19388018816053287,-0.23852403691819224]","[0.8061198118394671,1.2385240369181922]",299.8937,301.8581,1,s,1,0.4168,,-1.073623271,-0.630374855,0.443248415,301.8595,301.8595,0,134,134,134,1,-0.799268438,-0.799268438,shape_difference3,1,,TRUE,,intensity,0.1,0.05,0.7,0.3,0.82,20,400,1E-11,3.5,0.01,0.5,0.1,,,,,,,,,,,,,,,,,,,,,,,,,,,,,,,,,,,,,,,,,,,,,,,,,,,,,,,,,,,,,,,,,,,,,,,,,,,,,,,,,
,,,,,227467,001,2025-03-13_18h34.20.777,Utility_discrimination_2024_2cat,2024.2.4,Win32,59.17159763,,,,,,,,0,"[0.5,0.5]","[1,0]",s,"[0.5,-0.3212408168352412]","[0.5,1.3212408168352412]",301.8603,303.9415,1,s,1,0.5356,,-0.264342206,-0.031497607,0.232844599,303.9427,303.9427,0,135,135,135,1,-0.821240817,-0.821240817,shape_difference4,1,,TRUE,,intensity,0.1,0.05,0.7,0.3,0.82,20,400,1E-11,3.5,0.01,0.5,0.1,,,,,,,,,,,,,,,,,,,,,,,,,,,,,,,,,,,,,,,,,,,,,,,,,,,,,,,,,,,,,,,,,,,,,,,,,,,,,,,,,
,,,,,227467,001,2025-03-13_18h34.20.777,Utility_discrimination_2024_2cat,2024.2.4,Win32,59.17159763,,,,,,,,3,"[0.5,0.5]","[0.383,0.924]",s,"[0.3617909418203098,0.5]","[0.6382090581796902,0.5]",303.9434,305.825,1,d,1,0.3359,,-1.073623271,-0.630374855,0.443248415,305.8267,305.8267,0,136,136,136,1,-0.138209058,-0.138209058,shape_difference0,1,,TRUE,,intensity,0.1,0.05,0.7,0.3,0.82,20,400,1E-11,3.5,0.01,0.5,0.1,,,,,,,,,,,,,,,,,,,,,,,,,,,,,,,,,,,,,,,,,,,,,,,,,,,,,,,,,,,,,,,,,,,,,,,,,,,,,,,,,
,,,,,227467,001,2025-03-13_18h34.20.777,Utility_discrimination_2024_2cat,2024.2.4,Win32,59.17159763,,,,,,,,1,"[0.5,0.5]","[0.924,0.383]",d,"[0.18546476715210264,-0.2588265147557629]","[0.8145352328478974,1.258826514755763]",305.8276,307.8416,1,s,1,0.4732,,-0.718720839,-0.4011012,0.317619639,307.8429,307.8429,0,137,137,137,1,-0.821240817,-0.821240817,shape_difference3,1,,TRUE,,intensity,0.1,0.05,0.7,0.3,0.82,20,400,1E-11,3.5,0.01,0.5,0.1,,,,,,,,,,,,,,,,,,,,,,,,,,,,,,,,,,,,,,,,,,,,,,,,,,,,,,,,,,,,,,,,,,,,,,,,,,,,,,,,,
,,,,,227467,001,2025-03-13_18h34.20.777,Utility_discrimination_2024_2cat,2024.2.4,Win32,59.17159763,,,,,,,,2,"[0.5,0.5]","[0.707,0.707]",s,"[0.029522507394805997,0.304986060965596]","[0.970477492605194,0.695013939034404]",307.8438,309.5917,1,d,1,0.2004,,-0.163035627,0.067310725,0.230346353,309.593,309.593,0,138,138,138,1,-0.509174776,-0.509174776,shape_difference1,1,,TRUE,,intensity,0.1,0.05,0.7,0.3,0.82,20,400,1E-11,3.5,0.01,0.5,0.1,,,,,,,,,,,,,,,,,,,,,,,,,,,,,,,,,,,,,,,,,,,,,,,,,,,,,,,,,,,,,,,,,,,,,,,,,,,,,,,,,
,,,,,227467,001,2025-03-13_18h34.20.777,Utility_discrimination_2024_2cat,2024.2.4,Win32,59.17159763,,,,,,,,4,"[0.5,0.5]","[0,1]",d,"[0.4731386626954193,0.4731386626954193]","[0.5268613373045807,0.5268613373045807]",309.5935,311.5085,1,s,1,0.367,,-1.08539188,-0.655527157,0.429864723,311.5096,311.5096,0,139,139,139,1,-0.037993405,-0.037993405,shape_difference2,1,,TRUE,,intensity,0.1,0.05,0.7,0.3,0.82,20,400,1E-11,3.5,0.01,0.5,0.1,,,,,,,,,,,,,,,,,,,,,,,,,,,,,,,,,,,,,,,,,,,,,,,,,,,,,,,,,,,,,,,,,,,,,,,,,,,,,,,,,
,,,,,227467,001,2025-03-13_18h34.20.777,Utility_discrimination_2024_2cat,2024.2.4,Win32,59.17159763,,,,,,,,1,"[0.5,0.5]","[0.924,0.383]",s,"[0.5,-0.3404308917975456]","[0.5,1.3404308917975456]",311.51,313.3754,1,d,1,0.3173,,-0.747657388,-0.405518655,0.342138732,313.3774,313.3774,0,140,140,140,1,-0.840430892,-0.840430892,shape_difference4,1,,TRUE,,intensity,0.1,0.05,0.7,0.3,0.82,20,400,1E-11,3.5,0.01,0.5,0.1,,,,,,,,,,,,,,,,,,,,,,,,,,,,,,,,,,,,,,,,,,,,,,,,,,,,,,,,,,,,,,,,,,,,,,,,,,,,,,,,,
,,,,,227467,001,2025-03-13_18h34.20.777,Utility_discrimination_2024_2cat,2024.2.4,Win32,59.17159763,,,,,,,,2,"[0.5,0.5]","[0.707,0.707]",d,"[0.019875148720096047,0.3009872099132]","[0.9801248512799039,0.6990127900868]",313.3784,315.1921,1,s,1,0.2667,,-0.168072917,0.057941273,0.22601419,315.193,315.193,0,141,141,141,1,-0.51961564,-0.51961564,shape_difference1,1,,TRUE,,intensity,0.1,0.05,0.7,0.3,0.82,20,400,1E-11,3.5,0.01,0.5,0.1,,,,,,,,,,,,,,,,,,,,,,,,,,,,,,,,,,,,,,,,,,,,,,,,,,,,,,,,,,,,,,,,,,,,,,,,,,,,,,,,,
,,,,,227467,001,2025-03-13_18h34.20.777,Utility_discrimination_2024_2cat,2024.2.4,Win32,59.17159763,,,,,,,,0,"[0.5,0.5]","[1,0]",s,"[0.47100493630289814,0.47100493630289814]","[0.5289950636971019,0.5289950636971019]",315.1934,317.0923,1,s,1,0.35,,-0.269185843,-0.041261079,0.227924764,317.0933,317.0933,0,142,142,142,1,-0.041011406,-0.041011406,shape_difference2,1,,TRUE,,intensity,0.1,0.05,0.7,0.3,0.82,20,400,1E-11,3.5,0.01,0.5,0.1,,,,,,,,,,,,,,,,,,,,,,,,,,,,,,,,,,,,,,,,,,,,,,,,,,,,,,,,,,,,,,,,,,,,,,,,,,,,,,,,,
,,,,,227467,001,2025-03-13_18h34.20.777,Utility_discrimination_2024_2cat,2024.2.4,Win32,59.17159763,,,,,,,,3,"[0.5,0.5]","[0.383,0.924]",s,"[0.35867866269486937,0.5]","[0.6413213373051306,0.5]",317.0942,318.8256,1,d,1,0.2066,,-1.08539188,-0.655527157,0.429864723,318.8275,318.8275,0,143,143,143,1,-0.141321337,-0.141321337,shape_difference0,1,,TRUE,,intensity,0.1,0.05,0.7,0.3,0.82,20,400,1E-11,3.5,0.01,0.5,0.1,,,,,,,,,,,,,,,,,,,,,,,,,,,,,,,,,,,,,,,,,,,,,,,,,,,,,,,,,,,,,,,,,,,,,,,,,,,,,,,,,
,,,,,227467,001,2025-03-13_18h34.20.777,Utility_discrimination_2024_2cat,2024.2.4,Win32,59.17159763,,,,,,,,3,"[0.5,0.5]","[0.383,0.924]",d,"[0.17811496844154,-0.27655814402093215]","[0.82188503155846,1.2765581440209322]",318.8284,320.5089,1,d,1,0.1337,,-1.093910339,-0.691529007,0.402381332,320.5099,320.5099,0,144,144,144,1,-0.840430892,-0.840430892,shape_difference3,1,,TRUE,,intensity,0.1,0.05,0.7,0.3,0.82,20,400,1E-11,3.5,0.01,0.5,0.1,,,,,,,,,,,,,,,,,,,,,,,,,,,,,,,,,,,,,,,,,,,,,,,,,,,,,,,,,,,,,,,,,,,,,,,,,,,,,,,,,
,,,,,227467,001,2025-03-13_18h34.20.777,Utility_discrimination_2024_2cat,2024.2.4,Win32,59.17159763,,,,,,,,0,"[0.5,0.5]","[1,0]",d,"[0.17135739174651954,-0.2928610183452114]","[0.8286426082534805,1.2928610183452114]",320.5104,322.2591,1,d,1,0.2003,,-0.273170552,-0.05285908,0.220311473,322.2604,322.2604,0,145,145,145,1,-0.858074695,-0.858074695,shape_difference3,1,,TRUE,,intensity,0.1,0.05,0.7,0.3,0.82,20,400,1E-11,3.5,0.01,0.5,0.1,,,,,,,,,,,,,,,,,,,,,,,,,,,,,,,,,,,,,,,,,,,,,,,,,,,,,,,,,,,,,,,,,,,,,,,,,,,,,,,,,
,,,,,227467,001,2025-03-13_18h34.20.777,Utility_discrimination_2024_2cat,2024.2.4,Win32,59.17159763,,,,,,,,2,"[0.5,0.5]","[0.707,0.707]",d,"[0.3557319256613709,0.5]","[0.6442680743386291,0.5]",322.261,324.1924,1,d,1,0.3833,,-0.172223208,0.04673261,0.218955817,324.1935,324.1935,0,146,146,146,1,-0.144268074,-0.144268074,shape_difference0,1,,TRUE,,intensity,0.1,0.05,0.7,0.3,0.82,20,400,1E-11,3.5,0.01,0.5,0.1,,,,,,,,,,,,,,,,,,,,,,,,,,,,,,,,,,,,,,,,,,,,,,,,,,,,,,,,,,,,,,,,,,,,,,,,,,,,,,,,,
,,,,,227467,001,2025-03-13_18h34.20.777,Utility_discrimination_2024_2cat,2024.2.4,Win32,59.17159763,,,,,,,,4,"[0.5,0.5]","[0,1]",d,"[0.4689838368822011,0.4689838368822011]","[0.5310161631177989,0.5310161631177989]",324.1939,325.9759,1,d,1,0.2334,,-1.093910339,-0.691529007,0.402381332,325.9769,325.9769,0,147,147,147,1,-0.043870103,-0.043870103,shape_difference2,1,,TRUE,,intensity,0.1,0.05,0.7,0.3,0.82,20,400,1E-11,3.5,0.01,0.5,0.1,,,,,,,,,,,,,,,,,,,,,,,,,,,,,,,,,,,,,,,,,,,,,,,,,,,,,,,,,,,,,,,,,,,,,,,,,,,,,,,,,
,,,,,227467,001,2025-03-13_18h34.20.777,Utility_discrimination_2024_2cat,2024.2.4,Win32,59.17159763,,,,,,,,1,"[0.5,0.5]","[0.924,0.383]",d,"[0.5,-0.3580746951788002]","[0.5,1.3580746951788]",325.9778,327.8593,1,d,1,0.3335,,-0.76916886,-0.410358362,0.358810499,327.8605,327.8605,0,148,148,148,1,-0.858074695,-0.858074695,shape_difference4,1,,TRUE,,intensity,0.1,0.05,0.7,0.3,0.82,20,400,1E-11,3.5,0.01,0.5,0.1,,,,,,,,,,,,,,,,,,,,,,,,,,,,,,,,,,,,,,,,,,,,,,,,,,,,,,,,,,,,,,,,,,,,,,,,,,,,,,,,,
,,,,,227467,001,2025-03-13_18h34.20.777,Utility_discrimination_2024_2cat,2024.2.4,Win32,59.17159763,,,,,,,,0,"[0.5,0.5]","[1,0]",d,"[0.011274159467488554,0.29742208125113434]","[0.9887258405325114,0.7025779187488657]",327.8609,329.7594,1,s,1,0.3587,,-0.276475197,-0.066901049,0.209574149,329.7605,329.7605,0,149,149,149,1,-0.52892407,-0.52892407,shape_difference1,1,,TRUE,,intensity,0.1,0.05,0.7,0.3,0.82,20,400,1E-11,3.5,0.01,0.5,0.1,,,,,,,,,,,,,,,,,,,,,,,,,,,,,,,,,,,,,,,,,,,,,,,,,,,,,,,,,,,,,,,,,,,,,,,,,,,,,,,,,
,,,,,227467,001,2025-03-13_18h34.20.777,Utility_discrimination_2024_2cat,2024.2.4,Win32,59.17159763,,,,,,,,2,"[0.5,0.5]","[0.707,0.707]",s,"[0.35285221924704185,0.5]","[0.6471477807529582,0.5]",329.7614,331.6092,1,s,1,0.3105,,-0.175668977,0.033101161,0.208770138,331.6105,331.6105,0,150,150,150,1,-0.147147781,-0.147147781,shape_difference0,1,,TRUE,,intensity,0.1,0.05,0.7,0.3,0.82,20,400,1E-11,3.5,0.01,0.5,0.1,,,,,,,,,,,,,,,,,,,,,,,,,,,,,,,,,,,,,,,,,,,,,,,,,,,,,,,,,,,,,,,,,,,,,,,,,,,,,,,,,
,,,,,227467,001,2025-03-13_18h34.20.777,Utility_discrimination_2024_2cat,2024.2.4,Win32,59.17159763,,,,,,,,3,"[0.5,0.5]","[0.383,0.924]",s,"[0.46700988972038615,0.46700988972038615]","[0.5329901102796138,0.5329901102796138]",331.6109,333.4763,1,d,1,0.3204,,-1.116723522,-0.708727726,0.407995796,333.4773,333.4773,0,151,151,151,1,-0.046662108,-0.046662108,shape_difference2,1,,TRUE,,intensity,0.1,0.05,0.7,0.3,0.82,20,400,1E-11,3.5,0.01,0.5,0.1,,,,,,,,,,,,,,,,,,,,,,,,,,,,,,,,,,,,,,,,,,,,,,,,,,,,,,,,,,,,,,,,,,,,,,,,,,,,,,,,,
,,,,,227467,001,2025-03-13_18h34.20.777,Utility_discrimination_2024_2cat,2024.2.4,Win32,59.17159763,,,,,,,,4,"[0.5,0.5]","[0,1]",d,"[0.16344327822379734,-0.3119540755123009]","[0.8365567217762027,1.311954075512301]",333.4777,335.4096,1,d,1,0.4005,,-1.116723522,-0.708727726,0.407995796,335.411,335.411,0,152,152,152,1,-0.878738177,-0.878738177,shape_difference3,1,,TRUE,,intensity,0.1,0.05,0.7,0.3,0.82,20,400,1E-11,3.5,0.01,0.5,0.1,,,,,,,,,,,,,,,,,,,,,,,,,,,,,,,,,,,,,,,,,,,,,,,,,,,,,,,,,,,,,,,,,,,,,,,,,,,,,,,,,
,,,,,227467,001,2025-03-13_18h34.20.777,Utility_discrimination_2024_2cat,2024.2.4,Win32,59.17159763,,,,,,,,1,"[0.5,0.5]","[0.924,0.383]",d,"[0.5,-0.3787381769613646]","[0.5,1.3787381769613645]",335.4115,337.1766,1,d,1,0.2169,,-0.785380702,-0.415888312,0.369492391,337.1775,337.1775,0,153,153,153,1,-0.878738177,-0.878738177,shape_difference4,1,,TRUE,,intensity,0.1,0.05,0.7,0.3,0.82,20,400,1E-11,3.5,0.01,0.5,0.1,,,,,,,,,,,,,,,,,,,,,,,,,,,,,,,,,,,,,,,,,,,,,,,,,,,,,,,,,,,,,,,,,,,,,,,,,,,,,,,,,
,,,,,227467,001,2025-03-13_18h34.20.777,Utility_discrimination_2024_2cat,2024.2.4,Win32,59.17159763,,,,,,,,1,"[0.5,0.5]","[0.924,0.383]",d,"[0.00336236105921206,0.2941426236857989]","[0.9966376389407879,0.7058573763142011]",337.178,338.9432,1,d,1,0.2169,,-0.797763648,-0.422451404,0.375312244,338.9444,338.9444,0,154,154,154,1,-0.537486622,-0.537486622,shape_difference1,1,,TRUE,,intensity,0.1,0.05,0.7,0.3,0.82,20,400,1E-11,3.5,0.01,0.5,0.1,,,,,,,,,,,,,,,,,,,,,,,,,,,,,,,,,,,,,,,,,,,,,,,,,,,,,,,,,,,,,,,,,,,,,,,,,,,,,,,,,
,,,,,227467,001,2025-03-13_18h34.20.777,Utility_discrimination_2024_2cat,2024.2.4,Win32,59.17159763,,,,,,,,4,"[0.5,0.5]","[0,1]",d,"[-0.004167927466588339,0.29102130279252886]","[1.0041679274665882,0.7089786972074712]",338.9451,340.7599,1,d,1,0.2671,,-1.142962733,-0.722867536,0.420095197,340.7613,340.7613,0,155,155,155,1,-0.545636285,-0.545636285,shape_difference1,1,,TRUE,,intensity,0.1,0.05,0.7,0.3,0.82,20,400,1E-11,3.5,0.01,0.5,0.1,,,,,,,,,,,,,,,,,,,,,,,,,,,,,,,,,,,,,,,,,,,,,,,,,,,,,,,,,,,,,,,,,,,,,,,,,,,,,,,,,
,,,,,227467,001,2025-03-13_18h34.20.777,Utility_discrimination_2024_2cat,2024.2.4,Win32,59.17159763,,,,,,,,0,"[0.5,0.5]","[1,0]",d,"[0.5,-0.40241974678102255]","[0.5,1.4024197467810224]",340.7617,342.4767,1,d,1,0.1738,,-0.27923504,-0.084163779,0.195071262,342.4776,342.4776,0,156,156,156,1,-0.902419747,-0.902419747,shape_difference4,1,,TRUE,,intensity,0.1,0.05,0.7,0.3,0.82,20,400,1E-11,3.5,0.01,0.5,0.1,,,,,,,,,,,,,,,,,,,,,,,,,,,,,,,,,,,,,,,,,,,,,,,,,,,,,,,,,,,,,,,,,,,,,,,,,,,,,,,,,
,,,,,227467,001,2025-03-13_18h34.20.777,Utility_discrimination_2024_2cat,2024.2.4,Win32,59.17159763,,,,,,,,2,"[0.5,0.5]","[0.707,0.707]",d,"[0.3499516067210521,0.5]","[0.6500483932789479,0.5]",342.4781,344.5267,1,s,1,0.5116,,-0.178548999,0.016299981,0.19484898,344.5278,344.5278,0,157,157,157,1,-0.150048393,-0.150048393,shape_difference0,1,,TRUE,,intensity,0.1,0.05,0.7,0.3,0.82,20,400,1E-11,3.5,0.01,0.5,0.1,,,,,,,,,,,,,,,,,,,,,,,,,,,,,,,,,,,,,,,,,,,,,,,,,,,,,,,,,,,,,,,,,,,,,,,,,,,,,,,,,
,,,,,227467,001,2025-03-13_18h34.20.777,Utility_discrimination_2024_2cat,2024.2.4,Win32,59.17159763,,,,,,,,3,"[0.5,0.5]","[0.383,0.924]",s,"[0.46502413624948563,0.46502413624948563]","[0.5349758637505144,0.5349758637505144]",344.5285,346.2937,1,d,1,0.2192,,-1.142962733,-0.722867536,0.420095197,346.2949,346.2949,0,158,158,158,1,-0.049470812,-0.049470812,shape_difference2,1,,TRUE,,intensity,0.1,0.05,0.7,0.3,0.82,20,400,1E-11,3.5,0.01,0.5,0.1,,,,,,,,,,,,,,,,,,,,,,,,,,,,,,,,,,,,,,,,,,,,,,,,,,,,,,,,,,,,,,,,,,,,,,,,,,,,,,,,,
,,,,,227467,001,2025-03-13_18h34.20.777,Utility_discrimination_2024_2cat,2024.2.4,Win32,59.17159763,,,,,,,,0,"[0.5,0.5]","[1,0]",d,"[0.15437323698286837,-0.33383584602566485]","[0.8456267630171317,1.3338358460256647]",346.2954,348.2938,1,d,1,0.4563,,-0.282050494,-0.100176099,0.181874395,348.2947,348.2948,0,159,159,159,1,-0.902419747,-0.902419747,shape_difference3,1,,TRUE,,intensity,0.1,0.05,0.7,0.3,0.82,20,400,1E-11,3.5,0.01,0.5,0.1,,,,,,,,,,,,,,,,,,,,,,,,,,,,,,,,,,,,,,,,,,,,,,,,,,,,,,,,,,,,,,,,,,,,,,,,,,,,,,,,,
,,,,,227467,001,2025-03-13_18h34.20.777,Utility_discrimination_2024_2cat,2024.2.4,Win32,59.17159763,,,,,,,,3,"[0.5,0.5]","[0.383,0.924]",d,"[0.34648561415383194,0.5]","[0.653514385846168,0.5]",348.2953,350.4938,1,s,1,0.6521,,-1.161319209,-0.741919602,0.419399608,350.4951,350.4951,0,160,160,160,1,-0.153514386,-0.153514386,shape_difference0,1,,TRUE,,intensity,0.1,0.05,0.7,0.3,0.82,20,400,1E-11,3.5,0.01,0.5,0.1,,,,,,,,,,,,,,,,,,,,,,,,,,,,,,,,,,,,,,,,,,,,,,,,,,,,,,,,,,,,,,,,,,,,,,,,,,,,,,,,,
,,,,,227467,001,2025-03-13_18h34.20.777,Utility_discrimination_2024_2cat,2024.2.4,Win32,59.17159763,,,,,,,,2,"[0.5,0.5]","[0.707,0.707]",s,"[0.14693620992528733,-0.3517779165248943]","[0.8530637900747127,1.3517779165248944]",350.4956,352.8935,1,s,1,0.8562,,-0.180970177,-0.000308647,0.180661531,352.8945,352.8945,0,161,161,161,1,-0.921837572,-0.921837572,shape_difference3,1,,TRUE,,intensity,0.1,0.05,0.7,0.3,0.82,20,400,1E-11,3.5,0.01,0.5,0.1,,,,,,,,,,,,,,,,,,,,,,,,,,,,,,,,,,,,,,,,,,,,,,,,,,,,,,,,,,,,,,,,,,,,,,,,,,,,,,,,,
,,,,,227467,001,2025-03-13_18h34.20.777,Utility_discrimination_2024_2cat,2024.2.4,Win32,59.17159763,,,,,,,,1,"[0.5,0.5]","[0.924,0.383]",s,"[0.462971515137493,0.462971515137493]","[0.537028484862507,0.537028484862507]",352.895,354.6773,1,s,1,0.2439,,-0.818412581,-0.430498018,0.387914564,354.678,354.678,0,162,162,162,1,-0.052374095,-0.052374095,shape_difference2,1,,TRUE,,intensity,0.1,0.05,0.7,0.3,0.82,20,400,1E-11,3.5,0.01,0.5,0.1,,,,,,,,,,,,,,,,,,,,,,,,,,,,,,,,,,,,,,,,,,,,,,,,,,,,,,,,,,,,,,,,,,,,,,,,,,,,,,,,,
,,,,,227467,001,2025-03-13_18h34.20.777,Utility_discrimination_2024_2cat,2024.2.4,Win32,59.17159763,,,,,,,,4,"[0.5,0.5]","[0,1]",s,"[-0.011592077690933622,0.2879439764549485]","[1.0115920776909335,0.7120560235450515]",354.6788,356.5939,1,s,1,0.3838,,-1.161319209,-0.741919602,0.419399608,356.595,356.595,0,163,163,163,1,-0.55367108,-0.55367108,shape_difference1,1,,TRUE,,intensity,0.1,0.05,0.7,0.3,0.82,20,400,1E-11,3.5,0.01,0.5,0.1,,,,,,,,,,,,,,,,,,,,,,,,,,,,,,,,,,,,,,,,,,,,,,,,,,,,,,,,,,,,,,,,,,,,,,,,,,,,,,,,,
,,,,,227467,001,2025-03-13_18h34.20.777,Utility_discrimination_2024_2cat,2024.2.4,Win32,59.17159763,,,,,,,,3,"[0.5,0.5]","[0.383,0.924]",s,"[0.5,-0.42183757199663885]","[0.5,1.421837571996639]",356.5955,358.4609,1,d,1,0.3241,,-1.174435531,-0.768550501,0.40588503,358.4621,358.4622,0,164,164,164,1,-0.921837572,-0.921837572,shape_difference4,1,,TRUE,,intensity,0.1,0.05,0.7,0.3,0.82,20,400,1E-11,3.5,0.01,0.5,0.1,,,,,,,,,,,,,,,,,,,,,,,,,,,,,,,,,,,,,,,,,,,,,,,,,,,,,,,,,,,,,,,,,,,,,,,,,,,,,,,,,
,,,,,227467,001,2025-03-13_18h34.20.777,Utility_discrimination_2024_2cat,2024.2.4,Win32,59.17159763,,,,,,,,2,"[0.5,0.5]","[0.707,0.707]",d,"[0.14036972427811745,-0.36761977745958097]","[0.8596302757218826,1.367619777459581]",358.4629,360.5442,1,s,1,0.5577,,-0.183472176,-0.001581041,0.181891136,360.5455,360.5456,0,165,165,165,1,-0.938982443,-0.938982443,shape_difference3,1,,TRUE,,intensity,0.1,0.05,0.7,0.3,0.82,20,400,1E-11,3.5,0.01,0.5,0.1,,,,,,,,,,,,,,,,,,,,,,,,,,,,,,,,,,,,,,,,,,,,,,,,,,,,,,,,,,,,,,,,,,,,,,,,,,,,,,,,,
,,,,,227467,001,2025-03-13_18h34.20.777,Utility_discrimination_2024_2cat,2024.2.4,Win32,59.17159763,,,,,,,,4,"[0.5,0.5]","[0,1]",s,"[0.4604010431833347,0.4604010431833347]","[0.5395989568166654,0.5395989568166654]",360.5461,362.3774,1,s,1,0.2836,,-1.174435531,-0.768550501,0.40588503,362.3785,362.3785,0,166,166,166,1,-0.05600984,-0.05600984,shape_difference2,1,,TRUE,,intensity,0.1,0.05,0.7,0.3,0.82,20,400,1E-11,3.5,0.01,0.5,0.1,,,,,,,,,,,,,,,,,,,,,,,,,,,,,,,,,,,,,,,,,,,,,,,,,,,,,,,,,,,,,,,,,,,,,,,,,,,,,,,,,
,,,,,227467,001,2025-03-13_18h34.20.777,Utility_discrimination_2024_2cat,2024.2.4,Win32,59.17159763,,,,,,,,0,"[0.5,0.5]","[1,0]",s,"[0.5,-0.43898244313807455]","[0.5,1.4389824431380744]",362.3789,363.9777,1,d,1,0.056,,-0.28436745,-0.101525805,0.182841645,363.979,363.979,0,167,167,167,1,-0.938982443,-0.938982443,shape_difference4,1,,TRUE,,intensity,0.1,0.05,0.7,0.3,0.82,20,400,1E-11,3.5,0.01,0.5,0.1,,,,,,,,,,,,,,,,,,,,,,,,,,,,,,,,,,,,,,,,,,,,,,,,,,,,,,,,,,,,,,,,,,,,,,,,,,,,,,,,,
,,,,,227467,001,2025-03-13_18h34.20.777,Utility_discrimination_2024_2cat,2024.2.4,Win32,59.17159763,,,,,,,,1,"[0.5,0.5]","[0.924,0.383]",d,"[0.3425582115093547,0.5]","[0.6574417884906453,0.5]",363.9796,365.7111,1,d,1,0.2046,,-0.851653082,-0.440453931,0.411199151,365.7124,365.7124,0,168,168,168,1,-0.157441788,-0.157441788,shape_difference0,1,,TRUE,,intensity,0.1,0.05,0.7,0.3,0.82,20,400,1E-11,3.5,0.01,0.5,0.1,,,,,,,,,,,,,,,,,,,,,,,,,,,,,,,,,,,,,,,,,,,,,,,,,,,,,,,,,,,,,,,,,,,,,,,,,,,,,,,,,
,,,,,227467,001,2025-03-13_18h34.20.777,Utility_discrimination_2024_2cat,2024.2.4,Win32,59.17159763,,,,,,,,1,"[0.5,0.5]","[0.924,0.383]",d,"[-0.02163613823183541,0.2837806916203539]","[1.0216361382318353,0.7162193083796461]",365.7129,367.4448,1,d,1,0.1836,,-0.874689796,-0.454183121,0.420506675,367.4466,367.4466,0,169,169,169,1,-0.564541275,-0.564541275,shape_difference1,1,,TRUE,,intensity,0.1,0.05,0.7,0.3,0.82,20,400,1E-11,3.5,0.01,0.5,0.1,,,,,,,,,,,,,,,,,,,,,,,,,,,,,,,,,,,,,,,,,,,,,,,,,,,,,,,,,,,,,,,,,,,,,,,,,,,,,,,,,
,,,,,227467,001,2025-03-13_18h34.20.777,Utility_discrimination_2024_2cat,2024.2.4,Win32,59.17159763,,,,,,,,4,"[0.5,0.5]","[0,1]",d,"[-0.03395074093666661,0.27867626214421726]","[1.0339507409366666,0.7213237378557827]",367.4484,369.3614,1,s,1,0.3667,,-1.18400943,-0.801619973,0.382389457,369.3628,369.3628,0,170,170,170,1,-0.577868767,-0.577868767,shape_difference1,1,,TRUE,,intensity,0.1,0.05,0.7,0.3,0.82,20,400,1E-11,3.5,0.01,0.5,0.1,,,,,,,,,,,,,,,,,,,,,,,,,,,,,,,,,,,,,,,,,,,,,,,,,,,,,,,,,,,,,,,,,,,,,,,,,,,,,,,,,
,,,,,227467,001,2025-03-13_18h34.20.777,Utility_discrimination_2024_2cat,2024.2.4,Win32,59.17159763,,,,,,,,3,"[0.5,0.5]","[0.383,0.924]",s,"[0.5,-0.45478792774407284]","[0.5,1.4547879277440727]",369.3632,372.4116,1,d,1,1.5216,,-1.18400943,-0.801619973,0.382389457,372.4128,372.4129,0,171,171,171,1,-0.954787928,-0.954787928,shape_difference4,1,,TRUE,,intensity,0.1,0.05,0.7,0.3,0.82,20,400,1E-11,3.5,0.01,0.5,0.1,,,,,,,,,,,,,,,,,,,,,,,,,,,,,,,,,,,,,,,,,,,,,,,,,,,,,,,,,,,,,,,,,,,,,,,,,,,,,,,,,
,,,,,227467,001,2025-03-13_18h34.20.777,Utility_discrimination_2024_2cat,2024.2.4,Win32,59.17159763,,,,,,,,2,"[0.5,0.5]","[0.707,0.707]",d,"[0.13431622367402007,-0.38222404523552334]","[0.8656837763259799,1.3822240452355232]",372.4139,374.5117,1,s,1,0.5503,,-0.185539988,-0.002804579,0.182735408,374.5129,374.5129,0,172,172,172,1,-0.954787928,-0.954787928,shape_difference3,1,,TRUE,,intensity,0.1,0.05,0.7,0.3,0.82,20,400,1E-11,3.5,0.01,0.5,0.1,,,,,,,,,,,,,,,,,,,,,,,,,,,,,,,,,,,,,,,,,,,,,,,,,,,,,,,,,,,,,,,,,,,,,,,,,,,,,,,,,
,,,,,227467,001,2025-03-13_18h34.20.777,Utility_discrimination_2024_2cat,2024.2.4,Win32,59.17159763,,,,,,,,0,"[0.5,0.5]","[1,0]",s,"[0.4574498684361876,0.4574498684361876]","[0.5425501315638124,0.5425501315638124]",374.5135,376.2616,1,d,1,0.2022,,-0.286281408,-0.102825728,0.18345568,376.2627,376.2627,0,173,173,173,1,-0.060184062,-0.060184062,shape_difference2,1,,TRUE,,intensity,0.1,0.05,0.7,0.3,0.82,20,400,1E-11,3.5,0.01,0.5,0.1,,,,,,,,,,,,,,,,,,,,,,,,,,,,,,,,,,,,,,,,,,,,,,,,,,,,,,,,,,,,,,,,,,,,,,,,,,,,,,,,,
,,,,,227467,001,2025-03-13_18h34.20.777,Utility_discrimination_2024_2cat,2024.2.4,Win32,59.17159763,,,,,,,,3,"[0.5,0.5]","[0.383,0.924]",d,"[0.3380442983891242,0.5]","[0.6619557016108758,0.5]",376.2633,378.0452,1,s,1,0.2334,,-1.19613989,-0.811589765,0.384550124,378.0467,378.0467,0,174,174,174,1,-0.161955702,-0.161955702,shape_difference0,1,,TRUE,,intensity,0.1,0.05,0.7,0.3,0.82,20,400,1E-11,3.5,0.01,0.5,0.1,,,,,,,,,,,,,,,,,,,,,,,,,,,,,,,,,,,,,,,,,,,,,,,,,,,,,,,,,,,,,,,,,,,,,,,,,,,,,,,,,
,,,,,227467,001,2025-03-13_18h34.20.777,Utility_discrimination_2024_2cat,2024.2.4,Win32,59.17159763,,,,,,,,1,"[0.5,0.5]","[0.924,0.383]",s,"[0.12733409323037181,-0.3990686628071448]","[0.8726659067696282,1.399068662807145]",378.0472,379.6952,1,d,1,0.1044,,-0.890866284,-0.473607946,0.417258337,379.6962,379.6962,0,175,175,175,1,-0.973018033,-0.973018033,shape_difference3,1,,TRUE,,intensity,0.1,0.05,0.7,0.3,0.82,20,400,1E-11,3.5,0.01,0.5,0.1,,,,,,,,,,,,,,,,,,,,,,,,,,,,,,,,,,,,,,,,,,,,,,,,,,,,,,,,,,,,,,,,,,,,,,,,,,,,,,,,,
,,,,,227467,001,2025-03-13_18h34.20.777,Utility_discrimination_2024_2cat,2024.2.4,Win32,59.17159763,,,,,,,,2,"[0.5,0.5]","[0.707,0.707]",d,"[-0.04951200868068428,0.2722260829819242]","[1.0495120086806842,0.7277739170180758]",379.6967,381.4453,1,d,1,0.2069,,-0.187255704,-0.004011709,0.183243995,381.4474,381.4474,0,176,176,176,1,-0.594709966,-0.594709966,shape_difference1,1,,TRUE,,intensity,0.1,0.05,0.7,0.3,0.82,20,400,1E-11,3.5,0.01,0.5,0.1,,,,,,,,,,,,,,,,,,,,,,,,,,,,,,,,,,,,,,,,,,,,,,,,,,,,,,,,,,,,,,,,,,,,,,,,,,,,,,,,,
,,,,,227467,001,2025-03-13_18h34.20.777,Utility_discrimination_2024_2cat,2024.2.4,Win32,59.17159763,,,,,,,,0,"[0.5,0.5]","[1,0]",d,"[0.4540230619730044,0.4540230619730044]","[0.5459769380269957,0.5459769380269957]",381.4487,383.8622,1,d,1,0.8726,,-0.287869003,-0.104110865,0.183758138,383.8641,383.8641,0,177,177,177,1,-0.06503103,-0.06503103,shape_difference2,1,,TRUE,,intensity,0.1,0.05,0.7,0.3,0.82,20,400,1E-11,3.5,0.01,0.5,0.1,,,,,,,,,,,,,,,,,,,,,,,,,,,,,,,,,,,,,,,,,,,,,,,,,,,,,,,,,,,,,,,,,,,,,,,,,,,,,,,,,
,,,,,227467,001,2025-03-13_18h34.20.777,Utility_discrimination_2024_2cat,2024.2.4,Win32,59.17159763,,,,,,,,4,"[0.5,0.5]","[0,1]",d,"[0.3327983065448521,0.5]","[0.6672016934551479,0.5]",383.8646,385.8293,1,d,1,0.4371,,-1.19613989,-0.811589765,0.384550124,385.8323,385.8323,0,178,178,178,1,-0.167201693,-0.167201693,shape_difference0,1,,TRUE,,intensity,0.1,0.05,0.7,0.3,0.82,20,400,1E-11,3.5,0.01,0.5,0.1,,,,,,,,,,,,,,,,,,,,,,,,,,,,,,,,,,,,,,,,,,,,,,,,,,,,,,,,,,,,,,,,,,,,,,,,,,,,,,,,,
,,,,,227467,001,2025-03-13_18h34.20.777,Utility_discrimination_2024_2cat,2024.2.4,Win32,59.17159763,,,,,,,,1,"[0.5,0.5]","[0.924,0.383]",d,"[0.5,-0.47301803334106574]","[0.5,1.4730180333410656]",385.8343,387.7289,1,d,1,0.3526,,-0.90678795,-0.500260951,0.406526999,387.7299,387.7299,0,179,179,179,1,-0.973018033,-0.973018033,shape_difference4,1,,TRUE,,intensity,0.1,0.05,0.7,0.3,0.82,20,400,1E-11,3.5,0.01,0.5,0.1,,,,,,,,,,,,,,,,,,,,,,,,,,,,,,,,,,,,,,,,,,,,,,,,,,,,,,,,,,,,,,,,,,,,,,,,,,,,,,,,,
,,,,,227467,001,2025-03-13_18h34.20.777,Utility_discrimination_2024_2cat,2024.2.4,Win32,59.17159763,,,,,,,,3,"[0.5,0.5]","[0.383,0.924]",d,"[-0.07217537251193251,0.2628320696189717]","[1.0721753725119325,0.7371679303810283]",387.7306,389.4623,1,s,1,0.193,,-1.218810761,-0.824436766,0.394373995,389.4635,389.4636,0,180,180,180,1,-0.619237416,-0.619237416,shape_difference1,1,,TRUE,,intensity,0.1,0.05,0.7,0.3,0.82,20,400,1E-11,3.5,0.01,0.5,0.1,,,,,,,,,,,,,,,,,,,,,,,,,,,,,,,,,,,,,,,,,,,,,,,,,,,,,,,,,,,,,,,,,,,,,,,,,,,,,,,,,
,,,,,227467,001,2025-03-13_18h34.20.777,Utility_discrimination_2024_2cat,2024.2.4,Win32,59.17159763,,,,,,,,0,"[0.5,0.5]","[1,0]",s,"[0.11920213609249591,-0.4186872748055712]","[0.880797863907504,1.4186872748055712]",389.4641,391.3125,1,s,1,0.3005,,-0.2891921,-0.105416771,0.183775329,391.3136,391.3136,0,181,181,181,1,-0.994250297,-0.994250297,shape_difference3,1,,TRUE,,intensity,0.1,0.05,0.7,0.3,0.82,20,400,1E-11,3.5,0.01,0.5,0.1,,,,,,,,,,,,,,,,,,,,,,,,,,,,,,,,,,,,,,,,,,,,,,,,,,,,,,,,,,,,,,,,,,,,,,,,,,,,,,,,,
,,,,,227467,001,2025-03-13_18h34.20.777,Utility_discrimination_2024_2cat,2024.2.4,Win32,59.17159763,,,,,,,,4,"[0.5,0.5]","[0,1]",s,"[0.3266493036966551,0.5]","[0.6733506963033449,0.5]",391.3141,392.9958,1,d,1,0.1414,,-1.218810761,-0.824436766,0.394373995,392.9968,392.9969,0,182,182,182,1,-0.173350696,-0.173350696,shape_difference0,1,,TRUE,,intensity,0.1,0.05,0.7,0.3,0.82,20,400,1E-11,3.5,0.01,0.5,0.1,,,,,,,,,,,,,,,,,,,,,,,,,,,,,,,,,,,,,,,,,,,,,,,,,,,,,,,,,,,,,,,,,,,,,,,,,,,,,,,,,
,,,,,227467,001,2025-03-13_18h34.20.777,Utility_discrimination_2024_2cat,2024.2.4,Win32,59.17159763,,,,,,,,2,"[0.5,0.5]","[0.707,0.707]",d,"[0.5,-0.4942502974086268]","[0.5,1.4942502974086267]",392.9974,395.3293,1,s,1,0.7835,,-0.188685707,-0.005235414,0.183450294,395.3306,395.3306,0,183,183,183,1,-0.994250297,-0.994250297,shape_difference4,1,,TRUE,,intensity,0.1,0.05,0.7,0.3,0.82,20,400,1E-11,3.5,0.01,0.5,0.1,,,,,,,,,,,,,,,,,,,,,,,,,,,,,,,,,,,,,,,,,,,,,,,,,,,,,,,,,,,,,,,,,,,,,,,,,,,,,,,,,
,,,,,227467,001,2025-03-13_18h34.20.777,Utility_discrimination_2024_2cat,2024.2.4,Win32,59.17159763,,,,,,,,0,"[0.5,0.5]","[1,0]",s,"[0.4500091499674577,0.4500091499674577]","[0.5499908500325422,0.5499908500325422]",395.3311,397.0793,1,d,1,0.1998,,-0.290300945,-0.106780657,0.183520289,397.0803,397.0804,0,184,184,184,1,-0.070708416,-0.070708416,shape_difference2,1,,TRUE,,intensity,0.1,0.05,0.7,0.3,0.82,20,400,1E-11,3.5,0.01,0.5,0.1,,,,,,,,,,,,,,,,,,,,,,,,,,,,,,,,,,,,,,,,,,,,,,,,,,,,,,,,,,,,,,,,,,,,,,,,,,,,,,,,,
,,,,,227467,001,2025-03-13_18h34.20.777,Utility_discrimination_2024_2cat,2024.2.4,Win32,59.17159763,,,,,,,,3,"[0.5,0.5]","[0.383,0.924]",d,"[0.3193951924577476,0.5]","[0.6806048075422524,0.5]",397.0808,399.5962,1,d,1,0.9674,,-1.242156093,-0.841684436,0.400471657,399.5975,399.5975,0,185,185,185,1,-0.180604808,-0.180604808,shape_difference0,1,,TRUE,,intensity,0.1,0.05,0.7,0.3,0.82,20,400,1E-11,3.5,0.01,0.5,0.1,,,,,,,,,,,,,,,,,,,,,,,,,,,,,,,,,,,,,,,,,,,,,,,,,,,,,,,,,,,,,,,,,,,,,,,,,,,,,,,,,
,,,,,227467,001,2025-03-13_18h34.20.777,Utility_discrimination_2024_2cat,2024.2.4,Win32,59.17159763,,,,,,,,4,"[0.5,0.5]","[0,1]",d,"[0.11155499794003043,-0.43713624517862115]","[0.8884450020599696,1.4371362451786212]",399.5979,401.3963,1,d,1,0.2744,,-1.242156093,-0.841684436,0.400471657,401.3977,401.3977,0,186,186,186,1,-1.014216716,-1.014216716,shape_difference3,1,,TRUE,,intensity,0.1,0.05,0.7,0.3,0.82,20,400,1E-11,3.5,0.01,0.5,0.1,,,,,,,,,,,,,,,,,,,,,,,,,,,,,,,,,,,,,,,,,,,,,,,,,,,,,,,,,,,,,,,,,,,,,,,,,,,,,,,,,
,,,,,227467,001,2025-03-13_18h34.20.777,Utility_discrimination_2024_2cat,2024.2.4,Win32,59.17159763,,,,,,,,1,"[0.5,0.5]","[0.924,0.383]",d,"[0.5,-0.5142167155612782]","[0.5,1.5142167155612782]",401.3982,403.563,1,d,1,0.6254,,-0.930395601,-0.505672806,0.424722795,403.5641,403.5641,0,187,187,187,1,-1.014216716,-1.014216716,shape_difference4,1,,TRUE,,intensity,0.1,0.05,0.7,0.3,0.82,20,400,1E-11,3.5,0.01,0.5,0.1,,,,,,,,,,,,,,,,,,,,,,,,,,,,,,,,,,,,,,,,,,,,,,,,,,,,,,,,,,,,,,,,,,,,,,,,,,,,,,,,,
,,,,,227467,001,2025-03-13_18h34.20.777,Utility_discrimination_2024_2cat,2024.2.4,Win32,59.17159763,,,,,,,,2,"[0.5,0.5]","[0.707,0.707]",d,"[-0.0950311016718357,0.2533583204109166]","[1.0950311016718357,0.7466416795890833]",403.5645,405.3631,1,d,1,0.2543,,-0.189883987,-0.00651021,0.183373778,405.3645,405.3645,0,188,188,188,1,-0.643973054,-0.643973054,shape_difference1,1,,TRUE,,intensity,0.1,0.05,0.7,0.3,0.82,20,400,1E-11,3.5,0.01,0.5,0.1,,,,,,,,,,,,,,,,,,,,,,,,,,,,,,,,,,,,,,,,,,,,,,,,,,,,,,,,,,,,,,,,,,,,,,,,,,,,,,,,,
,,,,,227467,001,2025-03-13_18h34.20.777,Utility_discrimination_2024_2cat,2024.2.4,Win32,59.17159763,,,,,,,,0,"[0.5,0.5]","[1,0]",d,"[0.44527633297722513,0.44527633297722513]","[0.5547236670227749,0.5547236670227749]",405.365,407.1799,1,s,1,0.2706,,-0.291236614,-0.108242555,0.182994059,407.1812,407.1812,0,189,189,189,1,-0.077402641,-0.077402641,shape_difference2,1,,TRUE,,intensity,0.1,0.05,0.7,0.3,0.82,20,400,1E-11,3.5,0.01,0.5,0.1,,,,,,,,,,,,,,,,,,,,,,,,,,,,,,,,,,,,,,,,,,,,,,,,,,,,,,,,,,,,,,,,,,,,,,,,,,,,,,,,,
,,,,,227467,001,2025-03-13_18h34.20.777,Utility_discrimination_2024_2cat,2024.2.4,Win32,59.17159763,,,,,,,,2,"[0.5,0.5]","[0.707,0.707]",s,"[0.31079578838794075,0.5]","[0.6892042116120592,0.5]",407.1816,408.8634,1,d,1,0.1334,,-0.190894731,-0.007873218,0.183021513,408.8644,408.8644,0,190,190,190,1,-0.189204212,-0.189204212,shape_difference0,1,,TRUE,,intensity,0.1,0.05,0.7,0.3,0.82,20,400,1E-11,3.5,0.01,0.5,0.1,,,,,,,,,,,,,,,,,,,,,,,,,,,,,,,,,,,,,,,,,,,,,,,,,,,,,,,,,,,,,,,,,,,,,,,,,,,,,,,,,
