Consent.started,Consent.stopped,key_resp.keys,key_resp.rt,key_resp.duration,participant,session,date,expName,psychopyVersion,OS,frameRate,SetupExperiment.started,SetupExperiment.stopped,DiscrimInstructions_Pre.started,DiscrimInstructions_Pre.stopped,KeyboardResponse.keys,KeyboardResponse.rt,KeyboardResponse.duration,feature_index,feature_center,feature_vector,correct_answer,coord1,coord2,DiscriminationTrial.started,DiscriminationTrial.stopped,PreTest.response,Resp_s_or_d.keys,Resp_s_or_d.corr,Resp_s_or_d.rt,Resp_s_or_d.duration,PreTest.CI_lower,PreTest.CI_upper,PreTest.CI_width,CrashPretest_2.started,CrashPretest_2.stopped,PreTest.thisRepN,PreTest.thisTrialN,PreTest.thisN,PreTest.thisIndex,PreTest.ran,PreTest.intensity,intensity,PreTest.label,PreTest.nReps,PreTest.method,PreTest.autoLog,PreTest.seed,PreTest.varName,PreTest.startVal,PreTest.minVal,PreTest.maxVal,PreTest.startValSd,PreTest.pThreshold,PreTest.nTrials,PreTest.maxTrials,PreTest.stopInterval,PreTest.beta,PreTest.delta,PreTest.gamma,PreTest.grain,WelcomeToCategorizationTask.started,WelcomeToCategorizationTask.stopped,PressAnyKey3.keys,PressAnyKey3.rt,PressAnyKey3.duration,shape_coordinates,category_center,category_sigma,subspace_center,subspace_vector1,subspace_vector2,CategorizationTrial.started,CategorizationTrial.stopped,Respond_1or2.keys,Respond_1or2.rt,Respond_1or2.duration,Feedback.started,Feedback.stopped,xcoord,ycoord,shape_coord,numeric_response_minus1,correctness,truecategory,mixture_index,respAifA,respBifA,respAifB,respBifB,trial_number,D,muAx,muAy,muBx,muBy,sigmaA,sigmaB,priorA,priorB,TrialLoop.thisRepN,TrialLoop.thisTrialN,TrialLoop.thisN,TrialLoop.thisIndex,TrialLoop.ran,DiscriminationInstructions_Post.started,DiscriminationInstructions_Post.stopped,key_resp_2.keys,key_resp_2.rt,key_resp_2.duration,PostTest.response,PostTest.CI_lower,PostTest.CI_upper,PostTest.CI_width,CrashPosttest.started,CrashPosttest.stopped,PostTest.thisRepN,PostTest.thisTrialN,PostTest.thisN,PostTest.thisIndex,PostTest.ran,PostTest.intensity,PostTest.label,PostTest.nReps,PostTest.method,PostTest.autoLog,PostTest.seed,PostTest.varName,PostTest.startVal,PostTest.minVal,PostTest.maxVal,PostTest.startValSd,PostTest.pThreshold,PostTest.nTrials,PostTest.maxTrials,PostTest.stopInterval,PostTest.beta,PostTest.delta,PostTest.gamma,PostTest.grain,Thanks.started,Thanks.stopped
0.0004,2.5795,y,2.5626,,229150,001,2025-03-14_20h34.33.419,Utility_discrimination_2024_2cat,2024.2.4,Win32,59.88023952,,,,,,,,,,,,,,,,,,,,,,,,,,,,,,,,,,,,,,,,,,,,,,,,,,,,,,,,,,,,,,,,,,,,,,,,,,,,,,,,,,,,,,,,,,,,,,,,,,,,,,,,,,,,,,,,,,,,,,,,,,,,,,,,,,,
,,,,,229150,001,2025-03-14_20h34.33.419,Utility_discrimination_2024_2cat,2024.2.4,Win32,59.88023952,2.5798,2.5798,,,,,,,,,,,,,,,,,,,,,,,,,,,,,,,,,,,,,,,,,,,,,,,,,,,,,,,,,,,,,,,,,,,,,,,,,,,,,,,,,,,,,,,,,,,,,,,,,,,,,,,,,,,,,,,,,,,,,,,,,,,,,,,,,
,,,,,229150,001,2025-03-14_20h34.33.419,Utility_discrimination_2024_2cat,2024.2.4,Win32,59.88023952,,,2.58,7.8929,space,5.27,,,,,,,,,,,,,,,,,,,,,,,,,,,,,,,,,,,,,,,,,,,,,,,,,,,,,,,,,,,,,,,,,,,,,,,,,,,,,,,,,,,,,,,,,,,,,,,,,,,,,,,,,,,,,,,,,,,,,,,,,,,,,
,,,,,229150,001,2025-03-14_20h34.33.419,Utility_discrimination_2024_2cat,2024.2.4,Win32,59.88023952,,,,,,,,0,"[0.5,0.5]","[1,0]",,"[0.6185239449756466,0.5]","[0.3814760550243534,0.5]",7.917,10.1941,1,s,1,0.7343,,-0.447967632,0.547967632,0.995935263,10.1966,10.1968,0,0,0,0,1,0.118523945,0.118523945,shape_difference2,1,,TRUE,,intensity,0.1,0.05,0.7,0.3,0.82,20,400,1E-11,3.5,0.01,0.5,0.1,,,,,,,,,,,,,,,,,,,,,,,,,,,,,,,,,,,,,,,,,,,,,,,,,,,,,,,,,,,,,,,,,,,,,,,,,,,,,,,,,
,,,,,229150,001,2025-03-14_20h34.33.419,Utility_discrimination_2024_2cat,2024.2.4,Win32,59.88023952,,,,,,,,1,"[0.5,0.5]","[0.924,0.383]",s,"[0.6185239449756466,0.5]","[0.3814760550243534,0.5]",10.1977,12.3926,1,s,1,0.6588,,-0.447967632,0.547967632,0.995935263,12.3955,12.3955,0,1,1,1,1,0.118523945,0.118523945,shape_difference0,1,,TRUE,,intensity,0.1,0.05,0.7,0.3,0.82,20,400,1E-11,3.5,0.01,0.5,0.1,,,,,,,,,,,,,,,,,,,,,,,,,,,,,,,,,,,,,,,,,,,,,,,,,,,,,,,,,,,,,,,,,,,,,,,,,,,,,,,,,
,,,,,229150,001,2025-03-14_20h34.33.419,Utility_discrimination_2024_2cat,2024.2.4,Win32,59.88023952,,,,,,,,3,"[0.5,0.5]","[0.383,0.924]",s,"[0.6095161251574974,0.5453946709256726]","[0.3904838748425025,0.4546053290743273]",12.3965,14.5767,1,s,1,0.6383,,-0.447967632,0.547967632,0.995935263,14.58,14.58,0,2,2,2,1,0.118523945,0.118523945,shape_difference1,1,,TRUE,,intensity,0.1,0.05,0.7,0.3,0.82,20,400,1E-11,3.5,0.01,0.5,0.1,,,,,,,,,,,,,,,,,,,,,,,,,,,,,,,,,,,,,,,,,,,,,,,,,,,,,,,,,,,,,,,,,,,,,,,,,,,,,,,,,
,,,,,229150,001,2025-03-14_20h34.33.419,Utility_discrimination_2024_2cat,2024.2.4,Win32,59.88023952,,,,,,,,4,"[0.5,0.5]","[0,1]",s,"[0.5453946709256726,0.6095161251574974]","[0.4546053290743273,0.3904838748425025]",14.5816,16.8436,0,s,0,0.7216,,-0.447967632,0.547967632,0.995935263,16.848,16.8481,0,3,3,3,1,0.118523945,0.118523945,shape_difference3,1,,TRUE,,intensity,0.1,0.05,0.7,0.3,0.82,20,400,1E-11,3.5,0.01,0.5,0.1,,,,,,,,,,,,,,,,,,,,,,,,,,,,,,,,,,,,,,,,,,,,,,,,,,,,,,,,,,,,,,,,,,,,,,,,,,,,,,,,,
,,,,,229150,001,2025-03-14_20h34.33.419,Utility_discrimination_2024_2cat,2024.2.4,Win32,59.88023952,,,,,,,,4,"[0.5,0.5]","[0,1]",d,"[0.5,0.6185239449756466]","[0.5,0.3814760550243534]",16.8499,18.8937,1,s,1,0.5026,,-0.479157219,0.478510979,0.957668197,18.8972,18.8972,0,4,4,4,1,0.118523945,0.118523945,shape_difference4,1,,TRUE,,intensity,0.1,0.05,0.7,0.3,0.82,20,400,1E-11,3.5,0.01,0.5,0.1,,,,,,,,,,,,,,,,,,,,,,,,,,,,,,,,,,,,,,,,,,,,,,,,,,,,,,,,,,,,,,,,,,,,,,,,,,,,,,,,,
,,,,,229150,001,2025-03-14_20h34.33.419,Utility_discrimination_2024_2cat,2024.2.4,Win32,59.88023952,,,,,,,,2,"[0.5,0.5]","[0.707,0.707]",s,"[0.5,0.5370015867235566]","[0.5,0.4629984132764434]",18.8988,20.8431,0,s,0,0.408,,-0.479157219,0.478510979,0.957668197,20.8464,20.8465,0,5,5,5,1,0.037001587,0.037001587,shape_difference4,1,,TRUE,,intensity,0.1,0.05,0.7,0.3,0.82,20,400,1E-11,3.5,0.01,0.5,0.1,,,,,,,,,,,,,,,,,,,,,,,,,,,,,,,,,,,,,,,,,,,,,,,,,,,,,,,,,,,,,,,,,,,,,,,,,,,,,,,,,
,,,,,229150,001,2025-03-14_20h34.33.419,Utility_discrimination_2024_2cat,2024.2.4,Win32,59.88023952,,,,,,,,1,"[0.5,0.5]","[0.924,0.383]",d,"[0.5261601218135545,0.5261601218135545]","[0.4738398781864455,0.4738398781864455]",20.8474,23.1762,0,s,0,0.7933,,-0.479157219,0.478510979,0.957668197,23.1799,23.1799,0,6,6,6,1,0.037001587,0.037001587,shape_difference2,1,,TRUE,,intensity,0.1,0.05,0.7,0.3,0.82,20,400,1E-11,3.5,0.01,0.5,0.1,,,,,,,,,,,,,,,,,,,,,,,,,,,,,,,,,,,,,,,,,,,,,,,,,,,,,,,,,,,,,,,,,,,,,,,,,,,,,,,,,
,,,,,229150,001,2025-03-14_20h34.33.419,Utility_discrimination_2024_2cat,2024.2.4,Win32,59.88023952,,,,,,,,3,"[0.5,0.5]","[0.383,0.924]",d,"[0.5341894661325662,0.5141716077151222]","[0.46581053386743376,0.48582839228487784]",23.1814,25.1767,1,s,1,0.4524,,0.008797352,0.664308158,0.655510806,25.1802,25.1802,0,7,7,7,1,0.037001587,0.037001587,shape_difference1,1,,TRUE,,intensity,0.1,0.05,0.7,0.3,0.82,20,400,1E-11,3.5,0.01,0.5,0.1,,,,,,,,,,,,,,,,,,,,,,,,,,,,,,,,,,,,,,,,,,,,,,,,,,,,,,,,,,,,,,,,,,,,,,,,,,,,,,,,,
,,,,,229150,001,2025-03-14_20h34.33.419,Utility_discrimination_2024_2cat,2024.2.4,Win32,59.88023952,,,,,,,,0,"[0.5,0.5]","[1,0]",s,"[0.6243672079123823,0.8000399480706037]","[0.37563279208761774,0.19996005192939625]",25.1816,27.009,1,s,1,0.2849,,-0.479157219,0.478510979,0.957668197,27.0121,27.0121,0,8,8,8,1,0.324718559,0.324718559,shape_difference3,1,,TRUE,,intensity,0.1,0.05,0.7,0.3,0.82,20,400,1E-11,3.5,0.01,0.5,0.1,,,,,,,,,,,,,,,,,,,,,,,,,,,,,,,,,,,,,,,,,,,,,,,,,,,,,,,,,,,,,,,,,,,,,,,,,,,,,,,,,
,,,,,229150,001,2025-03-14_20h34.33.419,Utility_discrimination_2024_2cat,2024.2.4,Win32,59.88023952,,,,,,,,4,"[0.5,0.5]","[0,1]",s,"[0.5370015867235566,0.5]","[0.4629984132764434,0.5]",27.0134,28.7924,1,s,1,0.2378,,-0.090065158,0.591798206,0.681863364,28.7954,28.7955,0,9,9,9,1,0.037001587,0.037001587,shape_difference0,1,,TRUE,,intensity,0.1,0.05,0.7,0.3,0.82,20,400,1E-11,3.5,0.01,0.5,0.1,,,,,,,,,,,,,,,,,,,,,,,,,,,,,,,,,,,,,,,,,,,,,,,,,,,,,,,,,,,,,,,,,,,,,,,,,,,,,,,,,
,,,,,229150,001,2025-03-14_20h34.33.419,Utility_discrimination_2024_2cat,2024.2.4,Win32,59.88023952,,,,,,,,3,"[0.5,0.5]","[0.383,0.924]",s,"[0.5,0.7256621725789216]","[0.5,0.2743378274210784]",28.7963,30.9928,1,s,1,0.66,,-0.003741292,0.604569979,0.608311271,30.9951,30.9952,0,10,10,10,1,0.225662173,0.225662173,shape_difference4,1,,TRUE,,intensity,0.1,0.05,0.7,0.3,0.82,20,400,1E-11,3.5,0.01,0.5,0.1,,,,,,,,,,,,,,,,,,,,,,,,,,,,,,,,,,,,,,,,,,,,,,,,,,,,,,,,,,,,,,,,,,,,,,,,,,,,,,,,,
,,,,,229150,001,2025-03-14_20h34.33.419,Utility_discrimination_2024_2cat,2024.2.4,Win32,59.88023952,,,,,,,,1,"[0.5,0.5]","[0.924,0.383]",s,"[0.6052550436813765,0.7539312280981512]","[0.3947449563186235,0.2460687719018489]",30.9956,33.0261,1,s,1,0.4872,,-0.510435314,0.404710629,0.915145943,33.029,33.029,0,11,11,11,1,0.274817346,0.274817346,shape_difference3,1,,TRUE,,intensity,0.1,0.05,0.7,0.3,0.82,20,400,1E-11,3.5,0.01,0.5,0.1,,,,,,,,,,,,,,,,,,,,,,,,,,,,,,,,,,,,,,,,,,,,,,,,,,,,,,,,,,,,,,,,,,,,,,,,,,,,,,,,,
,,,,,229150,001,2025-03-14_20h34.33.419,Utility_discrimination_2024_2cat,2024.2.4,Win32,59.88023952,,,,,,,,2,"[0.5,0.5]","[0.707,0.707]",s,"[0.46556413669330093,0.48572626012287257]","[0.5344358633066991,0.5142737398771274]",33.0299,35.1426,0,s,0,0.568,,-0.090065158,0.591798206,0.681863364,35.145,35.1451,0,12,12,12,1,-0.03726825,-0.03726825,shape_difference1,1,,TRUE,,intensity,0.1,0.05,0.7,0.3,0.82,20,400,1E-11,3.5,0.01,0.5,0.1,,,,,,,,,,,,,,,,,,,,,,,,,,,,,,,,,,,,,,,,,,,,,,,,,,,,,,,,,,,,,,,,,,,,,,,,,,,,,,,,,
,,,,,229150,001,2025-03-14_20h34.33.419,Utility_discrimination_2024_2cat,2024.2.4,Win32,59.88023952,,,,,,,,0,"[0.5,0.5]","[1,0]",d,"[0.6595431560132976,0.6595431560132976]","[0.3404568439867024,0.3404568439867024]",35.1457,37.3978,0,s,0,0.7175,,-0.510435314,0.404710629,0.915145943,37.4,37.4,0,13,13,13,1,0.225662173,0.225662173,shape_difference2,1,,TRUE,,intensity,0.1,0.05,0.7,0.3,0.82,20,400,1E-11,3.5,0.01,0.5,0.1,,,,,,,,,,,,,,,,,,,,,,,,,,,,,,,,,,,,,,,,,,,,,,,,,,,,,,,,,,,,,,,,,,,,,,,,,,,,,,,,,
,,,,,229150,001,2025-03-14_20h34.33.419,Utility_discrimination_2024_2cat,2024.2.4,Win32,59.88023952,,,,,,,,3,"[0.5,0.5]","[0.383,0.924]",d,"[0.4627317496680746,0.5]","[0.5372682503319254,0.5]",37.4018,39.4093,0,s,0,0.4689,,-0.026700702,0.552121039,0.578821741,39.412,39.412,0,14,14,14,1,-0.03726825,-0.03726825,shape_difference0,1,,TRUE,,intensity,0.1,0.05,0.7,0.3,0.82,20,400,1E-11,3.5,0.01,0.5,0.1,,,,,,,,,,,,,,,,,,,,,,,,,,,,,,,,,,,,,,,,,,,,,,,,,,,,,,,,,,,,,,,,,,,,,,,,,,,,,,,,,
,,,,,229150,001,2025-03-14_20h34.33.419,Utility_discrimination_2024_2cat,2024.2.4,Win32,59.88023952,,,,,,,,1,"[0.5,0.5]","[0.924,0.383]",d,"[0.5904518175805076,0.7182179619957938]","[0.4095481824194924,0.2817820380042062]",39.4127,41.8758,1,d,1,0.9208,,-0.118157943,0.566731222,0.684889165,41.88,41.88,0,15,15,15,1,0.236166626,0.236166626,shape_difference3,1,,TRUE,,intensity,0.1,0.05,0.7,0.3,0.82,20,400,1E-11,3.5,0.01,0.5,0.1,,,,,,,,,,,,,,,,,,,,,,,,,,,,,,,,,,,,,,,,,,,,,,,,,,,,,,,,,,,,,,,,,,,,,,,,,,,,,,,,,
,,,,,229150,001,2025-03-14_20h34.33.419,Utility_discrimination_2024_2cat,2024.2.4,Win32,59.88023952,,,,,,,,2,"[0.5,0.5]","[0.707,0.707]",d,"[0.6704501382010035,0.570651951224009]","[0.3295498617989964,0.429348048775991]",41.881,44.426,0,d,0,1.0007,,0.100128431,0.691751185,0.591622754,44.4294,44.4295,0,16,16,16,1,0.184469847,0.184469847,shape_difference1,1,,TRUE,,intensity,0.1,0.05,0.7,0.3,0.82,20,400,1E-11,3.5,0.01,0.5,0.1,,,,,,,,,,,,,,,,,,,,,,,,,,,,,,,,,,,,,,,,,,,,,,,,,,,,,,,,,,,,,,,,,,,,,,,,,,,,,,,,,
,,,,,229150,001,2025-03-14_20h34.33.419,Utility_discrimination_2024_2cat,2024.2.4,Win32,59.88023952,,,,,,,,4,"[0.5,0.5]","[0,1]",s,"[0.7652778944192422,0.7652778944192422]","[0.23472210558075773,0.23472210558075773]",44.4314,46.7094,0,s,0,0.7559,,-0.09936101,0.537490534,0.636851544,46.7124,46.7124,0,17,17,17,1,0.375216258,0.375216258,shape_difference2,1,,TRUE,,intensity,0.1,0.05,0.7,0.3,0.82,20,400,1E-11,3.5,0.01,0.5,0.1,,,,,,,,,,,,,,,,,,,,,,,,,,,,,,,,,,,,,,,,,,,,,,,,,,,,,,,,,,,,,,,,,,,,,,,,,,,,,,,,,
,,,,,229150,001,2025-03-14_20h34.33.419,Utility_discrimination_2024_2cat,2024.2.4,Win32,59.88023952,,,,,,,,0,"[0.5,0.5]","[1,0]",d,"[0.5,0.6717231163357056]","[0.5,0.3282768836642944]",46.7132,48.8929,0,s,0,0.6366,,-0.118157943,0.566731222,0.684889165,48.897,48.8972,0,18,18,18,1,0.171723116,0.171723116,shape_difference4,1,,TRUE,,intensity,0.1,0.05,0.7,0.3,0.82,20,400,1E-11,3.5,0.01,0.5,0.1,,,,,,,,,,,,,,,,,,,,,,,,,,,,,,,,,,,,,,,,,,,,,,,,,,,,,,,,,,,,,,,,,,,,,,,,,,,,,,,,,
,,,,,229150,001,2025-03-14_20h34.33.419,Utility_discrimination_2024_2cat,2024.2.4,Win32,59.88023952,,,,,,,,0,"[0.5,0.5]","[1,0]",d,"[0.6844698465378827,0.5]","[0.3155301534621173,0.5]",48.899,51.0426,1,s,1,0.605,,-0.138426098,0.496127593,0.634553691,51.0449,51.045,0,19,19,19,1,0.184469847,0.184469847,shape_difference0,1,,TRUE,,intensity,0.1,0.05,0.7,0.3,0.82,20,400,1E-11,3.5,0.01,0.5,0.1,,,,,,,,,,,,,,,,,,,,,,,,,,,,,,,,,,,,,,,,,,,,,,,,,,,,,,,,,,,,,,,,,,,,,,,,,,,,,,,,,
,,,,,229150,001,2025-03-14_20h34.33.419,Utility_discrimination_2024_2cat,2024.2.4,Win32,59.88023952,,,,,,,,2,"[0.5,0.5]","[0.707,0.707]",s,"[0.6357080695737778,0.5]","[0.36429193042622215,0.5]",51.046,52.9926,0,s,0,0.404,,0.267459718,0.797866403,0.530406685,52.9958,52.9958,0,20,20,20,1,0.13570807,0.13570807,shape_difference0,1,,TRUE,,intensity,0.1,0.05,0.7,0.3,0.82,20,400,1E-11,3.5,0.01,0.5,0.1,,,,,,,,,,,,,,,,,,,,,,,,,,,,,,,,,,,,,,,,,,,,,,,,,,,,,,,,,,,,,,,,,,,,,,,,,,,,,,,,,
,,,,,229150,001,2025-03-14_20h34.33.419,Utility_discrimination_2024_2cat,2024.2.4,Win32,59.88023952,,,,,,,,4,"[0.5,0.5]","[0,1]",d,"[0.8713768577339964,0.8713768577339964]","[0.12862314226600352,0.12862314226600352]",52.9968,55.2595,1,s,1,0.7184,,0.064206312,0.666780888,0.602574576,55.2614,55.2614,0,21,21,21,1,0.525285513,0.525285513,shape_difference2,1,,TRUE,,intensity,0.1,0.05,0.7,0.3,0.82,20,400,1E-11,3.5,0.01,0.5,0.1,,,,,,,,,,,,,,,,,,,,,,,,,,,,,,,,,,,,,,,,,,,,,,,,,,,,,,,,,,,,,,,,,,,,,,,,,,,,,,,,,
,,,,,229150,001,2025-03-14_20h34.33.419,Utility_discrimination_2024_2cat,2024.2.4,Win32,59.88023952,,,,,,,,1,"[0.5,0.5]","[0.924,0.383]",s,"[0.5,0.8400297212439484]","[0.5,0.15997027875605163]",55.2619,57.4429,1,s,1,0.6348,,0.074504002,0.684517101,0.610013099,57.4449,57.4449,0,22,22,22,1,0.340029721,0.340029721,shape_difference4,1,,TRUE,,intensity,0.1,0.05,0.7,0.3,0.82,20,400,1E-11,3.5,0.01,0.5,0.1,,,,,,,,,,,,,,,,,,,,,,,,,,,,,,,,,,,,,,,,,,,,,,,,,,,,,,,,,,,,,,,,,,,,,,,,,,,,,,,,,
,,,,,229150,001,2025-03-14_20h34.33.419,Utility_discrimination_2024_2cat,2024.2.4,Win32,59.88023952,,,,,,,,3,"[0.5,0.5]","[0.383,0.924]",s,"[0.8352924595570358,0.6389794502276458]","[0.1647075404429642,0.3610205497723542]",57.4456,59.7758,1,d,1,0.7845,,-0.050981617,0.494068035,0.545049652,59.7786,59.7787,0,23,23,23,1,0.362870627,0.362870627,shape_difference1,1,,TRUE,,intensity,0.1,0.05,0.7,0.3,0.82,20,400,1E-11,3.5,0.01,0.5,0.1,,,,,,,,,,,,,,,,,,,,,,,,,,,,,,,,,,,,,,,,,,,,,,,,,,,,,,,,,,,,,,,,,,,,,,,,,,,,,,,,,
,,,,,229150,001,2025-03-14_20h34.33.419,Utility_discrimination_2024_2cat,2024.2.4,Win32,59.88023952,,,,,,,,0,"[0.5,0.5]","[1,0]",d,"[0.5753418592221956,0.6817646943115111]","[0.4246581407778044,0.3182353056884889]",59.7794,62.3917,1,s,1,1.0746,,0.003001688,0.59577868,0.592776992,62.3946,62.3946,0,24,24,24,1,0.196715037,0.196715037,shape_difference3,1,,TRUE,,intensity,0.1,0.05,0.7,0.3,0.82,20,400,1E-11,3.5,0.01,0.5,0.1,,,,,,,,,,,,,,,,,,,,,,,,,,,,,,,,,,,,,,,,,,,,,,,,,,,,,,,,,,,,,,,,,,,,,,,,,,,,,,,,,
,,,,,229150,001,2025-03-14_20h34.33.419,Utility_discrimination_2024_2cat,2024.2.4,Win32,59.88023952,,,,,,,,3,"[0.5,0.5]","[0.383,0.924]",s,"[0.7554615754976168,0.5]","[0.2445384245023831,0.5]",62.3953,64.7259,1,d,1,0.7879,,-0.067097964,0.445046575,0.512144539,64.7279,64.728,0,25,25,25,1,0.255461575,0.255461575,shape_difference0,1,,TRUE,,intensity,0.1,0.05,0.7,0.3,0.82,20,400,1E-11,3.5,0.01,0.5,0.1,,,,,,,,,,,,,,,,,,,,,,,,,,,,,,,,,,,,,,,,,,,,,,,,,,,,,,,,,,,,,,,,,,,,,,,,,,,,,,,,,
,,,,,229150,001,2025-03-14_20h34.33.419,Utility_discrimination_2024_2cat,2024.2.4,Win32,59.88023952,,,,,,,,4,"[0.5,0.5]","[0,1]",d,"[0.5651464676424028,0.657167979377494]","[0.43485353235759716,0.34283202062250595]",64.7285,67.0926,1,d,1,0.8191,,0.046106493,0.612747238,0.566640745,67.0954,67.0954,0,26,26,26,1,0.170095216,0.170095216,shape_difference3,1,,TRUE,,intensity,0.1,0.05,0.7,0.3,0.82,20,400,1E-11,3.5,0.01,0.5,0.1,,,,,,,,,,,,,,,,,,,,,,,,,,,,,,,,,,,,,,,,,,,,,,,,,,,,,,,,,,,,,,,,,,,,,,,,,,,,,,,,,
,,,,,229150,001,2025-03-14_20h34.33.419,Utility_discrimination_2024_2cat,2024.2.4,Win32,59.88023952,,,,,,,,2,"[0.5,0.5]","[0.707,0.707]",d,"[0.5,0.7937624942698775]","[0.5,0.20623750573012245]",67.0964,69.3585,1,d,1,0.7237,,0.249214455,0.764423433,0.515208978,69.3611,69.3612,0,27,27,27,1,0.293762494,0.293762494,shape_difference4,1,,TRUE,,intensity,0.1,0.05,0.7,0.3,0.82,20,400,1E-11,3.5,0.01,0.5,0.1,,,,,,,,,,,,,,,,,,,,,,,,,,,,,,,,,,,,,,,,,,,,,,,,,,,,,,,,,,,,,,,,,,,,,,,,,,,,,,,,,
,,,,,229150,001,2025-03-14_20h34.33.419,Utility_discrimination_2024_2cat,2024.2.4,Win32,59.88023952,,,,,,,,1,"[0.5,0.5]","[0.924,0.383]",d,"[0.845047406434666,0.845047406434666]","[0.15495259356533397,0.15495259356533397]",69.3617,71.5425,1,d,1,0.6351,,0.059192908,0.630069596,0.570876688,71.5458,71.5459,0,28,28,28,1,0.488044422,0.488044422,shape_difference2,1,,TRUE,,intensity,0.1,0.05,0.7,0.3,0.82,20,400,1E-11,3.5,0.01,0.5,0.1,,,,,,,,,,,,,,,,,,,,,,,,,,,,,,,,,,,,,,,,,,,,,,,,,,,,,,,,,,,,,,,,,,,,,,,,,,,,,,,,,
,,,,,229150,001,2025-03-14_20h34.33.419,Utility_discrimination_2024_2cat,2024.2.4,Win32,59.88023952,,,,,,,,4,"[0.5,0.5]","[0,1]",d,"[0.7974369413967155,0.623288256011842]","[0.2025630586032845,0.376711743988158]",71.547,73.7589,0,d,0,0.6706,,0.034258812,0.562756016,0.528497204,73.7617,73.7617,0,29,29,29,1,0.321901452,0.321901452,shape_difference1,1,,TRUE,,intensity,0.1,0.05,0.7,0.3,0.82,20,400,1E-11,3.5,0.01,0.5,0.1,,,,,,,,,,,,,,,,,,,,,,,,,,,,,,,,,,,,,,,,,,,,,,,,,,,,,,,,,,,,,,,,,,,,,,,,,,,,,,,,,
,,,,,229150,001,2025-03-14_20h34.33.419,Utility_discrimination_2024_2cat,2024.2.4,Win32,59.88023952,,,,,,,,2,"[0.5,0.5]","[0.707,0.707]",s,"[0.5,0.7622926100884712]","[0.5,0.23770738991152884]",73.7625,75.9584,0,d,0,0.6592,,0.236984379,0.713470867,0.476486488,75.9606,75.9606,0,30,30,30,1,0.26229261,0.26229261,shape_difference4,1,,TRUE,,intensity,0.1,0.05,0.7,0.3,0.82,20,400,1E-11,3.5,0.01,0.5,0.1,,,,,,,,,,,,,,,,,,,,,,,,,,,,,,,,,,,,,,,,,,,,,,,,,,,,,,,,,,,,,,,,,,,,,,,,,,,,,,,,,
,,,,,229150,001,2025-03-14_20h34.33.419,Utility_discrimination_2024_2cat,2024.2.4,Win32,59.88023952,,,,,,,,3,"[0.5,0.5]","[0.383,0.924]",s,"[0.8260253999630693,0.8260253999630693]","[0.17397460003693072,0.17397460003693072]",75.9613,78.0247,1,d,1,0.5209,,-0.078138993,0.387434732,0.465573725,78.0277,78.0278,0,31,31,31,1,0.46113918,0.46113918,shape_difference2,1,,TRUE,,intensity,0.1,0.05,0.7,0.3,0.82,20,400,1E-11,3.5,0.01,0.5,0.1,,,,,,,,,,,,,,,,,,,,,,,,,,,,,,,,,,,,,,,,,,,,,,,,,,,,,,,,,,,,,,,,,,,,,,,,,,,,,,,,,
,,,,,229150,001,2025-03-14_20h34.33.419,Utility_discrimination_2024_2cat,2024.2.4,Win32,59.88023952,,,,,,,,0,"[0.5,0.5]","[1,0]",d,"[0.5564554358066998,0.6362005814239964]","[0.44354456419330024,0.3637994185760036]",78.0284,80.1249,0,d,0,0.561,,-0.00706543,0.538627976,0.545693406,80.1272,80.1273,0,32,32,32,1,0.147403227,0.147403227,shape_difference3,1,,TRUE,,intensity,0.1,0.05,0.7,0.3,0.82,20,400,1E-11,3.5,0.01,0.5,0.1,,,,,,,,,,,,,,,,,,,,,,,,,,,,,,,,,,,,,,,,,,,,,,,,,,,,,,,,,,,,,,,,,,,,,,,,,,,,,,,,,
,,,,,229150,001,2025-03-14_20h34.33.419,Utility_discrimination_2024_2cat,2024.2.4,Win32,59.88023952,,,,,,,,1,"[0.5,0.5]","[0.924,0.383]",s,"[0.7141652366530821,0.5]","[0.28583476334691793,0.5]",80.1282,82.3428,1,d,1,0.6791,,0.200444616,0.717848291,0.517403675,82.3446,82.3446,0,33,33,33,1,0.214165237,0.214165237,shape_difference0,1,,TRUE,,intensity,0.1,0.05,0.7,0.3,0.82,20,400,1E-11,3.5,0.01,0.5,0.1,,,,,,,,,,,,,,,,,,,,,,,,,,,,,,,,,,,,,,,,,,,,,,,,,,,,,,,,,,,,,,,,,,,,,,,,,,,,,,,,,
,,,,,229150,001,2025-03-14_20h34.33.419,Utility_discrimination_2024_2cat,2024.2.4,Win32,59.88023952,,,,,,,,2,"[0.5,0.5]","[0.707,0.707]",d,"[0.8965703855284569,0.6643792831790032]","[0.10342961447154309,0.33562071682099676]",82.3451,84.4084,0,d,0,0.519,,0.228531396,0.67349675,0.444965353,84.4113,84.4114,0,34,34,34,1,0.429188729,0.429188729,shape_difference1,1,,TRUE,,intensity,0.1,0.05,0.7,0.3,0.82,20,400,1E-11,3.5,0.01,0.5,0.1,,,,,,,,,,,,,,,,,,,,,,,,,,,,,,,,,,,,,,,,,,,,,,,,,,,,,,,,,,,,,,,,,,,,,,,,,,,,,,,,,
,,,,,229150,001,2025-03-14_20h34.33.419,Utility_discrimination_2024_2cat,2024.2.4,Win32,59.88023952,,,,,,,,4,"[0.5,0.5]","[0,1]",s,"[0.809420793855721,0.809420793855721]","[0.19057920614427898,0.19057920614427898]",84.4126,86.2598,0,d,0,0.3126,,0.151799491,0.684255939,0.532456448,86.2614,86.2614,0,35,35,35,1,0.437653174,0.437653174,shape_difference2,1,,TRUE,,intensity,0.1,0.05,0.7,0.3,0.82,20,400,1E-11,3.5,0.01,0.5,0.1,,,,,,,,,,,,,,,,,,,,,,,,,,,,,,,,,,,,,,,,,,,,,,,,,,,,,,,,,,,,,,,,,,,,,,,,,,,,,,,,,
,,,,,229150,001,2025-03-14_20h34.33.419,Utility_discrimination_2024_2cat,2024.2.4,Win32,59.88023952,,,,,,,,1,"[0.5,0.5]","[0.924,0.383]",s,"[0.5,0.885708279665569]","[0.5,0.11429172033443102]",86.2621,88.2426,1,s,1,0.4365,,0.302219136,0.79444842,0.492229284,88.2455,88.2455,0,36,36,36,1,0.38570828,0.38570828,shape_difference4,1,,TRUE,,intensity,0.1,0.05,0.7,0.3,0.82,20,400,1E-11,3.5,0.01,0.5,0.1,,,,,,,,,,,,,,,,,,,,,,,,,,,,,,,,,,,,,,,,,,,,,,,,,,,,,,,,,,,,,,,,,,,,,,,,,,,,,,,,,
,,,,,229150,001,2025-03-14_20h34.33.419,Utility_discrimination_2024_2cat,2024.2.4,Win32,59.88023952,,,,,,,,0,"[0.5,0.5]","[1,0]",s,"[0.9852711887264363,0.7011459580976462]","[0.014728811273563791,0.2988540419023538]",88.2468,90.5922,0,d,0,0.8028,,-0.029161457,0.481404566,0.510566023,90.5957,90.5958,0,37,37,37,1,0.525185269,0.525185269,shape_difference1,1,,TRUE,,intensity,0.1,0.05,0.7,0.3,0.82,20,400,1E-11,3.5,0.01,0.5,0.1,,,,,,,,,,,,,,,,,,,,,,,,,,,,,,,,,,,,,,,,,,,,,,,,,,,,,,,,,,,,,,,,,,,,,,,,,,,,,,,,,
,,,,,229150,001,2025-03-14_20h34.33.419,Utility_discrimination_2024_2cat,2024.2.4,Win32,59.88023952,,,,,,,,3,"[0.5,0.5]","[0.383,0.924]",s,"[0.6808963087651876,0.5]","[0.3191036912348124,0.5]",90.5967,92.825,1,d,1,0.6908,,0.013911574,0.467109402,0.453197828,92.8271,92.8271,0,38,38,38,1,0.180896309,0.180896309,shape_difference0,1,,TRUE,,intensity,0.1,0.05,0.7,0.3,0.82,20,400,1E-11,3.5,0.01,0.5,0.1,,,,,,,,,,,,,,,,,,,,,,,,,,,,,,,,,,,,,,,,,,,,,,,,,,,,,,,,,,,,,,,,,,,,,,,,,,,,,,,,,
,,,,,229150,001,2025-03-14_20h34.33.419,Utility_discrimination_2024_2cat,2024.2.4,Win32,59.88023952,,,,,,,,3,"[0.5,0.5]","[0.383,0.924]",d,"[0.5756241889813781,0.6824458240699567]","[0.4243758110186218,0.31755417593004326]",92.8277,95.0421,1,s,1,0.6698,,0.009152004,0.411928194,0.402776189,95.0451,95.0451,0,39,39,39,1,0.197452191,0.197452191,shape_difference3,1,,TRUE,,intensity,0.1,0.05,0.7,0.3,0.82,20,400,1E-11,3.5,0.01,0.5,0.1,,,,,,,,,,,,,,,,,,,,,,,,,,,,,,,,,,,,,,,,,,,,,,,,,,,,,,,,,,,,,,,,,,,,,,,,,,,,,,,,,
,,,,,229150,001,2025-03-14_20h34.33.419,Utility_discrimination_2024_2cat,2024.2.4,Win32,59.88023952,,,,,,,,2,"[0.5,0.5]","[0.707,0.707]",s,"[0.5683876377436089,0.6649874080289677]","[0.43161236225639105,0.3350125919710322]",95.0459,97.4588,1,d,1,0.8673,,0.310338255,0.739807583,0.429469328,97.4622,97.4622,0,40,40,40,1,0.178557801,0.178557801,shape_difference3,1,,TRUE,,intensity,0.1,0.05,0.7,0.3,0.82,20,400,1E-11,3.5,0.01,0.5,0.1,,,,,,,,,,,,,,,,,,,,,,,,,,,,,,,,,,,,,,,,,,,,,,,,,,,,,,,,,,,,,,,,,,,,,,,,,,,,,,,,,
,,,,,229150,001,2025-03-14_20h34.33.419,Utility_discrimination_2024_2cat,2024.2.4,Win32,59.88023952,,,,,,,,4,"[0.5,0.5]","[0,1]",d,"[0.8477241653701164,0.8477241653701164]","[0.1522758346298836,0.1522758346298836]",97.4633,99.6588,1,d,1,0.6557,,0.140420307,0.635719401,0.495299094,99.6626,99.6626,0,41,41,41,1,0.491830503,0.491830503,shape_difference2,1,,TRUE,,intensity,0.1,0.05,0.7,0.3,0.82,20,400,1E-11,3.5,0.01,0.5,0.1,,,,,,,,,,,,,,,,,,,,,,,,,,,,,,,,,,,,,,,,,,,,,,,,,,,,,,,,,,,,,,,,,,,,,,,,,,,,,,,,,
,,,,,229150,001,2025-03-14_20h34.33.419,Utility_discrimination_2024_2cat,2024.2.4,Win32,59.88023952,,,,,,,,1,"[0.5,0.5]","[0.924,0.383]",d,"[0.5,0.8565480500109687]","[0.5,0.14345194998903132]",99.6637,102.0248,0,d,0,0.8254,,0.401453822,0.875253773,0.47379995,102.0272,102.0272,0,42,42,42,1,0.35654805,0.35654805,shape_difference4,1,,TRUE,,intensity,0.1,0.05,0.7,0.3,0.82,20,400,1E-11,3.5,0.01,0.5,0.1,,,,,,,,,,,,,,,,,,,,,,,,,,,,,,,,,,,,,,,,,,,,,,,,,,,,,,,,,,,,,,,,,,,,,,,,,,,,,,,,,
,,,,,229150,001,2025-03-14_20h34.33.419,Utility_discrimination_2024_2cat,2024.2.4,Win32,59.88023952,,,,,,,,0,"[0.5,0.5]","[1,0]",s,"[1.0692993831005895,0.7359758265449413]","[-0.06929938310058958,0.2640241734550587]",102.0278,104.5252,1,s,1,0.9575,,-0.044024895,0.42252696,0.466551855,104.5294,104.5294,0,43,43,43,1,0.616124873,0.616124873,shape_difference1,1,,TRUE,,intensity,0.1,0.05,0.7,0.3,0.82,20,400,1E-11,3.5,0.01,0.5,0.1,,,,,,,,,,,,,,,,,,,,,,,,,,,,,,,,,,,,,,,,,,,,,,,,,,,,,,,,,,,,,,,,,,,,,,,,,,,,,,,,,
,,,,,229150,001,2025-03-14_20h34.33.419,Utility_discrimination_2024_2cat,2024.2.4,Win32,59.88023952,,,,,,,,4,"[0.5,0.5]","[0,1]",s,"[0.6569566933223129,0.5]","[0.3430433066776871,0.5]",104.5306,106.7749,1,s,1,0.7098,,0.247020166,0.755670473,0.508650307,106.7776,106.7777,0,44,44,44,1,0.156956693,0.156956693,shape_difference0,1,,TRUE,,intensity,0.1,0.05,0.7,0.3,0.82,20,400,1E-11,3.5,0.01,0.5,0.1,,,,,,,,,,,,,,,,,,,,,,,,,,,,,,,,,,,,,,,,,,,,,,,,,,,,,,,,,,,,,,,,,,,,,,,,,,,,,,,,,
,,,,,229150,001,2025-03-14_20h34.33.419,Utility_discrimination_2024_2cat,2024.2.4,Win32,59.88023952,,,,,,,,2,"[0.5,0.5]","[0.707,0.707]",s,"[0.5,0.9752184235200816]","[0.5,0.02478157647991841]",106.7792,108.8916,1,s,1,0.5726,,0.306203881,0.693324904,0.387121023,108.8941,108.8941,0,45,45,45,1,0.475218424,0.475218424,shape_difference4,1,,TRUE,,intensity,0.1,0.05,0.7,0.3,0.82,20,400,1E-11,3.5,0.01,0.5,0.1,,,,,,,,,,,,,,,,,,,,,,,,,,,,,,,,,,,,,,,,,,,,,,,,,,,,,,,,,,,,,,,,,,,,,,,,,,,,,,,,,
,,,,,229150,001,2025-03-14_20h34.33.419,Utility_discrimination_2024_2cat,2024.2.4,Win32,59.88023952,,,,,,,,0,"[0.5,0.5]","[1,0]",s,"[0.8341957271164073,0.8341957271164073]","[0.16580427288359267,0.16580427288359267]",108.8951,110.7244,1,d,1,0.2935,,-0.054359283,0.371034553,0.425393837,110.7267,110.7267,0,46,46,46,1,0.472695512,0.472695512,shape_difference2,1,,TRUE,,intensity,0.1,0.05,0.7,0.3,0.82,20,400,1E-11,3.5,0.01,0.5,0.1,,,,,,,,,,,,,,,,,,,,,,,,,,,,,,,,,,,,,,,,,,,,,,,,,,,,,,,,,,,,,,,,,,,,,,,,,,,,,,,,,
,,,,,229150,001,2025-03-14_20h34.33.419,Utility_discrimination_2024_2cat,2024.2.4,Win32,59.88023952,,,,,,,,1,"[0.5,0.5]","[0.924,0.383]",d,"[0.636091267165709,0.5]","[0.36390873283429104,0.5]",110.7281,112.8418,1,s,1,0.5729,,0.382066595,0.83699732,0.454930725,112.8455,112.8455,0,47,47,47,1,0.136091267,0.136091267,shape_difference0,1,,TRUE,,intensity,0.1,0.05,0.7,0.3,0.82,20,400,1E-11,3.5,0.01,0.5,0.1,,,,,,,,,,,,,,,,,,,,,,,,,,,,,,,,,,,,,,,,,,,,,,,,,,,,,,,,,,,,,,,,,,,,,,,,,,,,,,,,,
,,,,,229150,001,2025-03-14_20h34.33.419,Utility_discrimination_2024_2cat,2024.2.4,Win32,59.88023952,,,,,,,,3,"[0.5,0.5]","[0.383,0.924]",s,"[1.040725553821163,0.7241319124605037]","[-0.04072555382116305,0.2758680875394963]",112.8468,115.1744,1,d,1,0.7859,,0.005618082,0.373835136,0.368217054,115.1768,115.1768,0,48,48,48,1,0.585200816,0.585200816,shape_difference1,1,,TRUE,,intensity,0.1,0.05,0.7,0.3,0.82,20,400,1E-11,3.5,0.01,0.5,0.1,,,,,,,,,,,,,,,,,,,,,,,,,,,,,,,,,,,,,,,,,,,,,,,,,,,,,,,,,,,,,,,,,,,,,,,,,,,,,,,,,
,,,,,229150,001,2025-03-14_20h34.33.419,Utility_discrimination_2024_2cat,2024.2.4,Win32,59.88023952,,,,,,,,4,"[0.5,0.5]","[0,1]",d,"[0.5623460294226462,0.650411830774217]","[0.4376539705773538,0.34958816922578295]",115.1777,117.7576,1,d,1,1.0421,,0.237291921,0.699004155,0.461712234,117.7598,117.7598,0,49,49,49,1,0.162783367,0.162783367,shape_difference3,1,,TRUE,,intensity,0.1,0.05,0.7,0.3,0.82,20,400,1E-11,3.5,0.01,0.5,0.1,,,,,,,,,,,,,,,,,,,,,,,,,,,,,,,,,,,,,,,,,,,,,,,,,,,,,,,,,,,,,,,,,,,,,,,,,,,,,,,,,
,,,,,229150,001,2025-03-14_20h34.33.419,Utility_discrimination_2024_2cat,2024.2.4,Win32,59.88023952,,,,,,,,2,"[0.5,0.5]","[0.707,0.707]",d,"[0.5,0.9481101038727843]","[0.5,0.05188989612721573]",117.7603,119.9915,1,d,1,0.6912,,0.303086663,0.662846727,0.359760064,119.9936,119.9936,0,50,50,50,1,0.448110104,0.448110104,shape_difference4,1,,TRUE,,intensity,0.1,0.05,0.7,0.3,0.82,20,400,1E-11,3.5,0.01,0.5,0.1,,,,,,,,,,,,,,,,,,,,,,,,,,,,,,,,,,,,,,,,,,,,,,,,,,,,,,,,,,,,,,,,,,,,,,,,,,,,,,,,,
,,,,,229150,001,2025-03-14_20h34.33.419,Utility_discrimination_2024_2cat,2024.2.4,Win32,59.88023952,,,,,,,,1,"[0.5,0.5]","[0.924,0.383]",d,"[0.8226579966439473,0.8226579966439473]","[0.17734200335605266,0.17734200335605266]",119.9944,122.1078,1,d,1,0.5685,,0.365196331,0.791585369,0.426389038,122.1104,122.1104,0,51,51,51,1,0.456376233,0.456376233,shape_difference2,1,,TRUE,,intensity,0.1,0.05,0.7,0.3,0.82,20,400,1E-11,3.5,0.01,0.5,0.1,,,,,,,,,,,,,,,,,,,,,,,,,,,,,,,,,,,,,,,,,,,,,,,,,,,,,,,,,,,,,,,,,,,,,,,,,,,,,,,,,
,,,,,229150,001,2025-03-14_20h34.33.419,Utility_discrimination_2024_2cat,2024.2.4,Win32,59.88023952,,,,,,,,3,"[0.5,0.5]","[0.383,0.924]",d,"[1.0198218471167029,0.7154672807853866]","[-0.019821847116702762,0.2845327192146135]",122.111,124.4411,0,d,0,0.7843,,0.002895189,0.332546442,0.329651253,124.4431,124.4431,0,52,52,52,1,0.562577757,0.562577757,shape_difference1,1,,TRUE,,intensity,0.1,0.05,0.7,0.3,0.82,20,400,1E-11,3.5,0.01,0.5,0.1,,,,,,,,,,,,,,,,,,,,,,,,,,,,,,,,,,,,,,,,,,,,,,,,,,,,,,,,,,,,,,,,,,,,,,,,,,,,,,,,,
,,,,,229150,001,2025-03-14_20h34.33.419,Utility_discrimination_2024_2cat,2024.2.4,Win32,59.88023952,,,,,,,,0,"[0.5,0.5]","[1,0]",s,"[0.5570516236515711,0.6376389040575762]","[0.44294837634842893,0.3623610959424238]",124.4437,126.858,1,s,1,0.8687,,-0.065777111,0.328575215,0.394352326,126.8619,126.8619,0,53,53,53,1,0.148959853,0.148959853,shape_difference3,1,,TRUE,,intensity,0.1,0.05,0.7,0.3,0.82,20,400,1E-11,3.5,0.01,0.5,0.1,,,,,,,,,,,,,,,,,,,,,,,,,,,,,,,,,,,,,,,,,,,,,,,,,,,,,,,,,,,,,,,,,,,,,,,,,,,,,,,,,
,,,,,229150,001,2025-03-14_20h34.33.419,Utility_discrimination_2024_2cat,2024.2.4,Win32,59.88023952,,,,,,,,3,"[0.5,0.5]","[0.383,0.924]",s,"[0.6143126927823375,0.5]","[0.3856873072176626,0.5]",126.8631,129.5743,1,d,1,1.1711,,-0.004606817,0.297104218,0.301711036,129.5768,129.5769,0,54,54,54,1,0.114312693,0.114312693,shape_difference0,1,,TRUE,,intensity,0.1,0.05,0.7,0.3,0.82,20,400,1E-11,3.5,0.01,0.5,0.1,,,,,,,,,,,,,,,,,,,,,,,,,,,,,,,,,,,,,,,,,,,,,,,,,,,,,,,,,,,,,,,,,,,,,,,,,,,,,,,,,
,,,,,229150,001,2025-03-14_20h34.33.419,Utility_discrimination_2024_2cat,2024.2.4,Win32,59.88023952,,,,,,,,2,"[0.5,0.5]","[0.707,0.707]",d,"[0.5518289048804628,0.6250389245680094]","[0.44817109511953723,0.37496107543199064]",129.5784,131.8742,0,d,0,0.7517,,0.300645414,0.621083887,0.320438472,131.8768,131.8768,0,55,55,55,1,0.135323511,0.135323511,shape_difference3,1,,TRUE,,intensity,0.1,0.05,0.7,0.3,0.82,20,400,1E-11,3.5,0.01,0.5,0.1,,,,,,,,,,,,,,,,,,,,,,,,,,,,,,,,,,,,,,,,,,,,,,,,,,,,,,,,,,,,,,,,,,,,,,,,,,,,,,,,,
,,,,,229150,001,2025-03-14_20h34.33.419,Utility_discrimination_2024_2cat,2024.2.4,Win32,59.88023952,,,,,,,,4,"[0.5,0.5]","[0,1]",s,"[0.8123234467607917,0.8123234467607917]","[0.1876765532392083,0.1876765532392083]",131.8774,134.0248,1,d,1,0.6096,,0.227371721,0.670033728,0.442662008,134.0268,134.0268,0,56,56,56,1,0.441758765,0.441758765,shape_difference2,1,,TRUE,,intensity,0.1,0.05,0.7,0.3,0.82,20,400,1E-11,3.5,0.01,0.5,0.1,,,,,,,,,,,,,,,,,,,,,,,,,,,,,,,,,,,,,,,,,,,,,,,,,,,,,,,,,,,,,,,,,,,,,,,,,,,,,,,,,
,,,,,229150,001,2025-03-14_20h34.33.419,Utility_discrimination_2024_2cat,2024.2.4,Win32,59.88023952,,,,,,,,1,"[0.5,0.5]","[0.924,0.383]",d,"[0.5,0.9215945129247771]","[0.5,0.07840548707522288]",134.0274,136.1245,0,d,0,0.5521,,0.451078998,0.888330674,0.437251676,136.1269,136.1269,0,57,57,57,1,0.421594513,0.421594513,shape_difference4,1,,TRUE,,intensity,0.1,0.05,0.7,0.3,0.82,20,400,1E-11,3.5,0.01,0.5,0.1,,,,,,,,,,,,,,,,,,,,,,,,,,,,,,,,,,,,,,,,,,,,,,,,,,,,,,,,,,,,,,,,,,,,,,,,,,,,,,,,,
,,,,,229150,001,2025-03-14_20h34.33.419,Utility_discrimination_2024_2cat,2024.2.4,Win32,59.88023952,,,,,,,,0,"[0.5,0.5]","[1,0]",s,"[1.106925580106698,0.7515719666459582]","[-0.10692558010669795,0.24842803335404184]",136.1276,138.2911,1,d,1,0.6231,,-0.073931741,0.289953512,0.363885254,138.2931,138.2931,0,58,58,58,1,0.656845866,0.656845866,shape_difference1,1,,TRUE,,intensity,0.1,0.05,0.7,0.3,0.82,20,400,1E-11,3.5,0.01,0.5,0.1,,,,,,,,,,,,,,,,,,,,,,,,,,,,,,,,,,,,,,,,,,,,,,,,,,,,,,,,,,,,,,,,,,,,,,,,,,,,,,,,,
,,,,,229150,001,2025-03-14_20h34.33.419,Utility_discrimination_2024_2cat,2024.2.4,Win32,59.88023952,,,,,,,,4,"[0.5,0.5]","[0,1]",d,"[0.5940581339185883,0.5]","[0.4059418660814117,0.5]",138.2939,140.5078,1,d,1,0.6674,,0.306281086,0.744396841,0.438115756,140.5099,140.5099,0,59,59,59,1,0.094058134,0.094058134,shape_difference0,1,,TRUE,,intensity,0.1,0.05,0.7,0.3,0.82,20,400,1E-11,3.5,0.01,0.5,0.1,,,,,,,,,,,,,,,,,,,,,,,,,,,,,,,,,,,,,,,,,,,,,,,,,,,,,,,,,,,,,,,,,,,,,,,,,,,,,,,,,
,,,,,229150,001,2025-03-14_20h34.33.419,Utility_discrimination_2024_2cat,2024.2.4,Win32,59.88023952,,,,,,,,2,"[0.5,0.5]","[0.707,0.707]",d,"[0.5,0.9853672760818327]","[0.5,0.014632723918167279]",140.5107,142.7245,0,d,0,0.6718,,0.280558008,0.593266758,0.31270875,142.7263,142.7263,0,60,60,60,1,0.485367276,0.485367276,shape_difference4,1,,TRUE,,intensity,0.1,0.05,0.7,0.3,0.82,20,400,1E-11,3.5,0.01,0.5,0.1,,,,,,,,,,,,,,,,,,,,,,,,,,,,,,,,,,,,,,,,,,,,,,,,,,,,,,,,,,,,,,,,,,,,,,,,,,,,,,,,,
,,,,,229150,001,2025-03-14_20h34.33.419,Utility_discrimination_2024_2cat,2024.2.4,Win32,59.88023952,,,,,,,,1,"[0.5,0.5]","[0.924,0.383]",s,"[0.8016180571454905,0.8016180571454905]","[0.19838194285450944,0.19838194285450944]",142.7273,145.9912,1,d,1,1.7259,,0.441984546,0.855439555,0.413455008,145.994,145.994,0,61,61,61,1,0.426616771,0.426616771,shape_difference2,1,,TRUE,,intensity,0.1,0.05,0.7,0.3,0.82,20,400,1E-11,3.5,0.01,0.5,0.1,,,,,,,,,,,,,,,,,,,,,,,,,,,,,,,,,,,,,,,,,,,,,,,,,,,,,,,,,,,,,,,,,,,,,,,,,,,,,,,,,
,,,,,229150,001,2025-03-14_20h34.33.419,Utility_discrimination_2024_2cat,2024.2.4,Win32,59.88023952,,,,,,,,0,"[0.5,0.5]","[1,0]",d,"[1.0870936497764134,0.7433515885977992]","[-0.08709364977641354,0.25664841140220085]",145.9946,148.1746,0,d,0,0.634,,-0.079904038,0.265221116,0.345125154,148.1768,148.1768,0,62,62,62,1,0.635382738,0.635382738,shape_difference1,1,,TRUE,,intensity,0.1,0.05,0.7,0.3,0.82,20,400,1E-11,3.5,0.01,0.5,0.1,,,,,,,,,,,,,,,,,,,,,,,,,,,,,,,,,,,,,,,,,,,,,,,,,,,,,,,,,,,,,,,,,,,,,,,,,,,,,,,,,
,,,,,229150,001,2025-03-14_20h34.33.419,Utility_discrimination_2024_2cat,2024.2.4,Win32,59.88023952,,,,,,,,3,"[0.5,0.5]","[0.383,0.924]",s,"[0.5811243541412694,0.5]","[0.41887564585873066,0.5]",148.1775,150.1572,1,d,1,0.4355,,0.014609671,0.361964455,0.347354784,150.16,150.16,0,63,63,63,1,0.081124354,0.081124354,shape_difference0,1,,TRUE,,intensity,0.1,0.05,0.7,0.3,0.82,20,400,1E-11,3.5,0.01,0.5,0.1,,,,,,,,,,,,,,,,,,,,,,,,,,,,,,,,,,,,,,,,,,,,,,,,,,,,,,,,,,,,,,,,,,,,,,,,,,,,,,,,,
,,,,,229150,001,2025-03-14_20h34.33.419,Utility_discrimination_2024_2cat,2024.2.4,Win32,59.88023952,,,,,,,,3,"[0.5,0.5]","[0.383,0.924]",d,"[0.5641731982020882,0.6548199350880666]","[0.4358268017979118,0.3451800649119334]",150.1605,152.1076,1,d,1,0.4013,,0.011815714,0.320445128,0.308629414,152.1115,152.1116,0,64,64,64,1,0.167554042,0.167554042,shape_difference3,1,,TRUE,,intensity,0.1,0.05,0.7,0.3,0.82,20,400,1E-11,3.5,0.01,0.5,0.1,,,,,,,,,,,,,,,,,,,,,,,,,,,,,,,,,,,,,,,,,,,,,,,,,,,,,,,,,,,,,,,,,,,,,,,,,,,,,,,,,
,,,,,229150,001,2025-03-14_20h34.33.419,Utility_discrimination_2024_2cat,2024.2.4,Win32,59.88023952,,,,,,,,4,"[0.5,0.5]","[0,1]",d,"[0.5599064416563714,0.6445262456670682]","[0.4400935583436286,0.35547375433293177]",152.1128,154.241,0,d,0,0.5879,,0.370832978,0.832036203,0.461203225,154.2436,154.2437,0,65,65,65,1,0.156413686,0.156413686,shape_difference3,1,,TRUE,,intensity,0.1,0.05,0.7,0.3,0.82,20,400,1E-11,3.5,0.01,0.5,0.1,,,,,,,,,,,,,,,,,,,,,,,,,,,,,,,,,,,,,,,,,,,,,,,,,,,,,,,,,,,,,,,,,,,,,,,,,,,,,,,,,
,,,,,229150,001,2025-03-14_20h34.33.419,Utility_discrimination_2024_2cat,2024.2.4,Win32,59.88023952,,,,,,,,0,"[0.5,0.5]","[1,0]",s,"[0.5,1.0765445639468836]","[0.5,-0.07654456394688369]",154.2443,156.2745,1,s,1,0.4861,,-0.084389991,0.232757467,0.317147458,156.2769,156.277,0,66,66,66,1,0.576544564,0.576544564,shape_difference4,1,,TRUE,,intensity,0.1,0.05,0.7,0.3,0.82,20,400,1E-11,3.5,0.01,0.5,0.1,,,,,,,,,,,,,,,,,,,,,,,,,,,,,,,,,,,,,,,,,,,,,,,,,,,,,,,,,,,,,,,,,,,,,,,,,,,,,,,,,
,,,,,229150,001,2025-03-14_20h34.33.419,Utility_discrimination_2024_2cat,2024.2.4,Win32,59.88023952,,,,,,,,2,"[0.5,0.5]","[0.707,0.707]",s,"[0.5702523909146023,0.5]","[0.42974760908539766,0.5]",156.2776,158.3405,0,s,0,0.5189,,0.26279012,0.577661634,0.314871514,158.3424,158.3425,0,67,67,67,1,0.070252391,0.070252391,shape_difference0,1,,TRUE,,intensity,0.1,0.05,0.7,0.3,0.82,20,400,1E-11,3.5,0.01,0.5,0.1,,,,,,,,,,,,,,,,,,,,,,,,,,,,,,,,,,,,,,,,,,,,,,,,,,,,,,,,,,,,,,,,,,,,,,,,,,,,,,,,,
,,,,,229150,001,2025-03-14_20h34.33.419,Utility_discrimination_2024_2cat,2024.2.4,Win32,59.88023952,,,,,,,,1,"[0.5,0.5]","[0.924,0.383]",d,"[0.7897686213740749,0.7897686213740749]","[0.2102313786259251,0.2102313786259251]",158.3431,161.0903,1,s,1,1.2035,,0.510792365,0.9004819,0.389689535,161.0932,161.0932,0,68,68,68,1,0.409856607,0.409856607,shape_difference2,1,,TRUE,,intensity,0.1,0.05,0.7,0.3,0.82,20,400,1E-11,3.5,0.01,0.5,0.1,,,,,,,,,,,,,,,,,,,,,,,,,,,,,,,,,,,,,,,,,,,,,,,,,,,,,,,,,,,,,,,,,,,,,,,,,,,,,,,,,
,,,,,229150,001,2025-03-14_20h34.33.419,Utility_discrimination_2024_2cat,2024.2.4,Win32,59.88023952,,,,,,,,2,"[0.5,0.5]","[0.707,0.707]",s,"[1.133201082630335,0.7624632193153877]","[-0.13320108263033492,0.23753678068461226]",161.0938,163.4072,1,s,1,0.7765,,0.249801133,0.558068668,0.308267535,163.4092,163.4092,0,69,69,69,1,0.685282557,0.685282557,shape_difference1,1,,TRUE,,intensity,0.1,0.05,0.7,0.3,0.82,20,400,1E-11,3.5,0.01,0.5,0.1,,,,,,,,,,,,,,,,,,,,,,,,,,,,,,,,,,,,,,,,,,,,,,,,,,,,,,,,,,,,,,,,,,,,,,,,,,,,,,,,,
,,,,,229150,001,2025-03-14_20h34.33.419,Utility_discrimination_2024_2cat,2024.2.4,Win32,59.88023952,,,,,,,,4,"[0.5,0.5]","[0,1]",s,"[0.7790773107756908,0.7790773107756908]","[0.2209226892243093,0.2209226892243093]",163.4098,165.7076,1,d,1,0.7596,,0.357149462,0.787489896,0.430340434,165.7098,165.7098,0,70,70,70,1,0.394734527,0.394734527,shape_difference2,1,,TRUE,,intensity,0.1,0.05,0.7,0.3,0.82,20,400,1E-11,3.5,0.01,0.5,0.1,,,,,,,,,,,,,,,,,,,,,,,,,,,,,,,,,,,,,,,,,,,,,,,,,,,,,,,,,,,,,,,,,,,,,,,,,,,,,,,,,
,,,,,229150,001,2025-03-14_20h34.33.419,Utility_discrimination_2024_2cat,2024.2.4,Win32,59.88023952,,,,,,,,3,"[0.5,0.5]","[0.383,0.924]",d,"[0.5,1.0532315683610378]","[0.5,-0.05323156836103782]",165.7102,168.5241,0,d,0,1.2698,,0.050648333,0.412506943,0.361858611,168.5268,168.5269,0,71,71,71,1,0.553231568,0.553231568,shape_difference4,1,,TRUE,,intensity,0.1,0.05,0.7,0.3,0.82,20,400,1E-11,3.5,0.01,0.5,0.1,,,,,,,,,,,,,,,,,,,,,,,,,,,,,,,,,,,,,,,,,,,,,,,,,,,,,,,,,,,,,,,,,,,,,,,,,,,,,,,,,
,,,,,229150,001,2025-03-14_20h34.33.419,Utility_discrimination_2024_2cat,2024.2.4,Win32,59.88023952,,,,,,,,1,"[0.5,0.5]","[0.924,0.383]",s,"[0.5784100743281423,0.6891668633921763]","[0.4215899256718577,0.31083313660782375]",168.5279,170.7252,1,d,1,0.6626,,0.507173843,0.876373003,0.36919916,170.7277,170.7277,0,72,72,72,1,0.204726043,0.204726043,shape_difference3,1,,TRUE,,intensity,0.1,0.05,0.7,0.3,0.82,20,400,1E-11,3.5,0.01,0.5,0.1,,,,,,,,,,,,,,,,,,,,,,,,,,,,,,,,,,,,,,,,,,,,,,,,,,,,,,,,,,,,,,,,,,,,,,,,,,,,,,,,,
,,,,,229150,001,2025-03-14_20h34.33.419,Utility_discrimination_2024_2cat,2024.2.4,Win32,59.88023952,,,,,,,,0,"[0.5,0.5]","[1,0]",d,"[1.1169663917478165,0.7557339048045604]","[-0.11696639174781653,0.24426609519543968]",170.7286,176.7232,0,d,0,4.4512,,-0.022262948,0.29717742,0.319440369,176.7262,176.7262,0,73,73,73,1,0.667712545,0.667712545,shape_difference1,1,,TRUE,,intensity,0.1,0.05,0.7,0.3,0.82,20,400,1E-11,3.5,0.01,0.5,0.1,,,,,,,,,,,,,,,,,,,,,,,,,,,,,,,,,,,,,,,,,,,,,,,,,,,,,,,,,,,,,,,,,,,,,,,,,,,,,,,,,
,,,,,229150,001,2025-03-14_20h34.33.419,Utility_discrimination_2024_2cat,2024.2.4,Win32,59.88023952,,,,,,,,3,"[0.5,0.5]","[0.383,0.924]",s,"[0.6193482099634323,0.5]","[0.3806517900365677,0.5]",176.7268,179.0907,1,d,1,0.8174,,0.04045197,0.382539602,0.342087632,179.0931,179.0931,0,74,74,74,1,0.11934821,0.11934821,shape_difference0,1,,TRUE,,intensity,0.1,0.05,0.7,0.3,0.82,20,400,1E-11,3.5,0.01,0.5,0.1,,,,,,,,,,,,,,,,,,,,,,,,,,,,,,,,,,,,,,,,,,,,,,,,,,,,,,,,,,,,,,,,,,,,,,,,,,,,,,,,,
,,,,,229150,001,2025-03-14_20h34.33.419,Utility_discrimination_2024_2cat,2024.2.4,Win32,59.88023952,,,,,,,,4,"[0.5,0.5]","[0,1]",d,"[0.572893298707908,0.6758574621569371]","[0.4271067012920921,0.3241425378430629]",179.0942,183.4905,0,d,0,2.8508,,0.443836254,0.888828809,0.444992556,183.4921,183.4921,0,75,75,75,1,0.190321929,0.190321929,shape_difference3,1,,TRUE,,intensity,0.1,0.05,0.7,0.3,0.82,20,400,1E-11,3.5,0.01,0.5,0.1,,,,,,,,,,,,,,,,,,,,,,,,,,,,,,,,,,,,,,,,,,,,,,,,,,,,,,,,,,,,,,,,,,,,,,,,,,,,,,,,,
,,,,,229150,001,2025-03-14_20h34.33.419,Utility_discrimination_2024_2cat,2024.2.4,Win32,59.88023952,,,,,,,,0,"[0.5,0.5]","[1,0]",s,"[0.5,1.1537633511827594]","[0.5,-0.1537633511827593]",183.4926,185.7405,0,d,0,0.7088,,-0.038806327,0.278779967,0.317586294,185.7423,185.7424,0,76,76,76,1,0.653763351,0.653763351,shape_difference4,1,,TRUE,,intensity,0.1,0.05,0.7,0.3,0.82,20,400,1E-11,3.5,0.01,0.5,0.1,,,,,,,,,,,,,,,,,,,,,,,,,,,,,,,,,,,,,,,,,,,,,,,,,,,,,,,,,,,,,,,,,,,,,,,,,,,,,,,,,
,,,,,229150,001,2025-03-14_20h34.33.419,Utility_discrimination_2024_2cat,2024.2.4,Win32,59.88023952,,,,,,,,1,"[0.5,0.5]","[0.924,0.383]",s,"[0.6005911496103706,0.5]","[0.3994088503896293,0.5]",185.7435,189.5067,1,d,1,2.2251,,0.55662069,0.960510736,0.403890047,189.5086,189.5086,0,77,77,77,1,0.10059115,0.10059115,shape_difference0,1,,TRUE,,intensity,0.1,0.05,0.7,0.3,0.82,20,400,1E-11,3.5,0.01,0.5,0.1,,,,,,,,,,,,,,,,,,,,,,,,,,,,,,,,,,,,,,,,,,,,,,,,,,,,,,,,,,,,,,,,,,,,,,,,,,,,,,,,,
,,,,,229150,001,2025-03-14_20h34.33.419,Utility_discrimination_2024_2cat,2024.2.4,Win32,59.88023952,,,,,,,,2,"[0.5,0.5]","[0.707,0.707]",d,"[1.1873145460078909,0.7848933670140933]","[-0.18731454600789088,0.2151066329859067]",189.5091,191.5736,1,d,1,0.5184,,0.240130079,0.532638472,0.292508394,191.5764,191.5764,0,78,78,78,1,0.743846911,0.743846911,shape_difference1,1,,TRUE,,intensity,0.1,0.05,0.7,0.3,0.82,20,400,1E-11,3.5,0.01,0.5,0.1,,,,,,,,,,,,,,,,,,,,,,,,,,,,,,,,,,,,,,,,,,,,,,,,,,,,,,,,,,,,,,,,,,,,,,,,,,,,,,,,,
,,,,,229150,001,2025-03-14_20h34.33.419,Utility_discrimination_2024_2cat,2024.2.4,Win32,59.88023952,,,,,,,,2,"[0.5,0.5]","[0.707,0.707]",d,"[0.7721905727022262,0.7721905727022262]","[0.22780942729777381,0.22780942729777381]",191.5769,194.0066,0,d,0,0.9024,,0.304552573,0.58210256,0.277549987,194.0093,194.0093,0,79,79,79,1,0.384993738,0.384993738,shape_difference2,1,,TRUE,,intensity,0.1,0.05,0.7,0.3,0.82,20,400,1E-11,3.5,0.01,0.5,0.1,,,,,,,,,,,,,,,,,,,,,,,,,,,,,,,,,,,,,,,,,,,,,,,,,,,,,,,,,,,,,,,,,,,,,,,,,,,,,,,,,
,,,,,229150,001,2025-03-14_20h34.33.419,Utility_discrimination_2024_2cat,2024.2.4,Win32,59.88023952,,,,,,,,1,"[0.5,0.5]","[0.924,0.383]",s,"[0.8016813563764686,0.8016813563764686]","[0.19831864362353135,0.19831864362353135]",194.0097,196.4245,1,s,1,0.8799,,0.543328029,0.927903515,0.384575487,196.4261,196.4262,0,80,80,80,1,0.426706303,0.426706303,shape_difference2,1,,TRUE,,intensity,0.1,0.05,0.7,0.3,0.82,20,400,1E-11,3.5,0.01,0.5,0.1,,,,,,,,,,,,,,,,,,,,,,,,,,,,,,,,,,,,,,,,,,,,,,,,,,,,,,,,,,,,,,,,,,,,,,,,,,,,,,,,,
,,,,,229150,001,2025-03-14_20h34.33.419,Utility_discrimination_2024_2cat,2024.2.4,Win32,59.88023952,,,,,,,,3,"[0.5,0.5]","[0.383,0.924]",s,"[1.1678568246184808,0.7768280993819028]","[-0.16785682461848084,0.22317190061809727]",196.4271,198.6566,1,s,1,0.6882,,0.1052,0.463024588,0.357824588,198.66,198.6601,0,81,81,81,1,0.722788771,0.722788771,shape_difference1,1,,TRUE,,intensity,0.1,0.05,0.7,0.3,0.82,20,400,1E-11,3.5,0.01,0.5,0.1,,,,,,,,,,,,,,,,,,,,,,,,,,,,,,,,,,,,,,,,,,,,,,,,,,,,,,,,,,,,,,,,,,,,,,,,,,,,,,,,,
,,,,,229150,001,2025-03-14_20h34.33.419,Utility_discrimination_2024_2cat,2024.2.4,Win32,59.88023952,,,,,,,,4,"[0.5,0.5]","[0,1]",s,"[0.5927561038128832,0.7237771277365643]","[0.40724389618711676,0.2762228722634357]",198.6614,200.7898,1,s,1,0.5923,,0.544967153,0.986213333,0.44124618,200.7923,200.7923,0,82,82,82,1,0.242183039,0.242183039,shape_difference3,1,,TRUE,,intensity,0.1,0.05,0.7,0.3,0.82,20,400,1E-11,3.5,0.01,0.5,0.1,,,,,,,,,,,,,,,,,,,,,,,,,,,,,,,,,,,,,,,,,,,,,,,,,,,,,,,,,,,,,,,,,,,,,,,,,,,,,,,,,
,,,,,229150,001,2025-03-14_20h34.33.419,Utility_discrimination_2024_2cat,2024.2.4,Win32,59.88023952,,,,,,,,0,"[0.5,0.5]","[1,0]",s,"[0.5,1.258960677720613]","[0.5,-0.25896067772061293]",200.7931,202.9735,1,s,1,0.6394,,-0.050932269,0.255832792,0.306765061,202.9759,202.9759,0,83,83,83,1,0.758960678,0.758960678,shape_difference4,1,,TRUE,,intensity,0.1,0.05,0.7,0.3,0.82,20,400,1E-11,3.5,0.01,0.5,0.1,,,,,,,,,,,,,,,,,,,,,,,,,,,,,,,,,,,,,,,,,,,,,,,,,,,,,,,,,,,,,,,,,,,,,,,,,,,,,,,,,
,,,,,229150,001,2025-03-14_20h34.33.419,Utility_discrimination_2024_2cat,2024.2.4,Win32,59.88023952,,,,,,,,2,"[0.5,0.5]","[0.707,0.707]",s,"[0.5896481061743486,0.5]","[0.41035189382565135,0.5]",202.9764,205.2059,0,s,0,0.7102,,0.302513697,0.566181121,0.263667425,205.2083,205.2083,0,84,84,84,1,0.089648106,0.089648106,shape_difference0,1,,TRUE,,intensity,0.1,0.05,0.7,0.3,0.82,20,400,1E-11,3.5,0.01,0.5,0.1,,,,,,,,,,,,,,,,,,,,,,,,,,,,,,,,,,,,,,,,,,,,,,,,,,,,,,,,,,,,,,,,,,,,,,,,,,,,,,,,,
,,,,,229150,001,2025-03-14_20h34.33.419,Utility_discrimination_2024_2cat,2024.2.4,Win32,59.88023952,,,,,,,,1,"[0.5,0.5]","[0.924,0.383]",d,"[0.7916893658659221,0.7916893658659221]","[0.20831063413407797,0.20831063413407797]",205.2092,207.2736,1,d,1,0.5183,,0.53394555,0.893880568,0.359935018,207.2755,207.2755,0,85,85,85,1,0.41257336,0.41257336,shape_difference2,1,,TRUE,,intensity,0.1,0.05,0.7,0.3,0.82,20,400,1E-11,3.5,0.01,0.5,0.1,,,,,,,,,,,,,,,,,,,,,,,,,,,,,,,,,,,,,,,,,,,,,,,,,,,,,,,,,,,,,,,,,,,,,,,,,,,,,,,,,
,,,,,229150,001,2025-03-14_20h34.33.419,Utility_discrimination_2024_2cat,2024.2.4,Win32,59.88023952,,,,,,,,3,"[0.5,0.5]","[0.383,0.924]",d,"[1.1464791329219688,0.7679669999016385]","[-0.14647913292196868,0.23203300009836147]",207.2763,209.4058,1,s,1,0.5939,,0.102708587,0.422382988,0.319674401,209.408,209.408,0,86,86,86,1,0.699652741,0.699652741,shape_difference1,1,,TRUE,,intensity,0.1,0.05,0.7,0.3,0.82,20,400,1E-11,3.5,0.01,0.5,0.1,,,,,,,,,,,,,,,,,,,,,,,,,,,,,,,,,,,,,,,,,,,,,,,,,,,,,,,,,,,,,,,,,,,,,,,,,,,,,,,,,
,,,,,229150,001,2025-03-14_20h34.33.419,Utility_discrimination_2024_2cat,2024.2.4,Win32,59.88023952,,,,,,,,4,"[0.5,0.5]","[0,1]",s,"[0.5864180028317932,0.708486252262603]","[0.41358199716820676,0.291513747737397]",209.4085,211.5065,0,s,0,0.5512,,0.536605947,0.955077383,0.418471437,211.5099,211.5099,0,87,87,87,1,0.225634472,0.225634472,shape_difference3,1,,TRUE,,intensity,0.1,0.05,0.7,0.3,0.82,20,400,1E-11,3.5,0.01,0.5,0.1,,,,,,,,,,,,,,,,,,,,,,,,,,,,,,,,,,,,,,,,,,,,,,,,,,,,,,,,,,,,,,,,,,,,,,,,,,,,,,,,,
,,,,,229150,001,2025-03-14_20h34.33.419,Utility_discrimination_2024_2cat,2024.2.4,Win32,59.88023952,,,,,,,,0,"[0.5,0.5]","[1,0]",d,"[0.5,1.2370020018701524]","[0.5,-0.23700200187015252]",211.5108,213.9062,1,d,1,0.8584,,0.006043272,0.299082965,0.293039693,213.9085,213.9085,0,88,88,88,1,0.737002002,0.737002002,shape_difference4,1,,TRUE,,intensity,0.1,0.05,0.7,0.3,0.82,20,400,1E-11,3.5,0.01,0.5,0.1,,,,,,,,,,,,,,,,,,,,,,,,,,,,,,,,,,,,,,,,,,,,,,,,,,,,,,,,,,,,,,,,,,,,,,,,,,,,,,,,,
,,,,,229150,001,2025-03-14_20h34.33.419,Utility_discrimination_2024_2cat,2024.2.4,Win32,59.88023952,,,,,,,,4,"[0.5,0.5]","[0,1]",d,"[0.6339420431214535,0.5]","[0.3660579568785465,0.5]",213.9092,216.1232,0,d,0,0.6701,,0.527362514,0.91916727,0.391804755,216.1275,216.1275,0,89,89,89,1,0.133942043,0.133942043,shape_difference0,1,,TRUE,,intensity,0.1,0.05,0.7,0.3,0.82,20,400,1E-11,3.5,0.01,0.5,0.1,,,,,,,,,,,,,,,,,,,,,,,,,,,,,,,,,,,,,,,,,,,,,,,,,,,,,,,,,,,,,,,,,,,,,,,,,,,,,,,,,
,,,,,229150,001,2025-03-14_20h34.33.419,Utility_discrimination_2024_2cat,2024.2.4,Win32,59.88023952,,,,,,,,0,"[0.5,0.5]","[1,0]",s,"[0.5,1.2133468481389826]","[0.5,-0.21334684813898264]",216.1289,218.057,1,s,1,0.3846,,0.01548598,0.36956973,0.35408375,218.0597,218.0598,0,90,90,90,1,0.713346848,0.713346848,shape_difference4,1,,TRUE,,intensity,0.1,0.05,0.7,0.3,0.82,20,400,1E-11,3.5,0.01,0.5,0.1,,,,,,,,,,,,,,,,,,,,,,,,,,,,,,,,,,,,,,,,,,,,,,,,,,,,,,,,,,,,,,,,,,,,,,,,,,,,,,,,,
,,,,,229150,001,2025-03-14_20h34.33.419,Utility_discrimination_2024_2cat,2024.2.4,Win32,59.88023952,,,,,,,,2,"[0.5,0.5]","[0.707,0.707]",s,"[0.664942567535779,0.5]","[0.335057432464221,0.5]",218.0611,220.1897,1,d,1,0.588,,0.300571341,0.546128663,0.245557321,220.1923,220.1923,0,91,91,91,1,0.164942568,0.164942568,shape_difference0,1,,TRUE,,intensity,0.1,0.05,0.7,0.3,0.82,20,400,1E-11,3.5,0.01,0.5,0.1,,,,,,,,,,,,,,,,,,,,,,,,,,,,,,,,,,,,,,,,,,,,,,,,,,,,,,,,,,,,,,,,,,,,,,,,,,,,,,,,,
,,,,,229150,001,2025-03-14_20h34.33.419,Utility_discrimination_2024_2cat,2024.2.4,Win32,59.88023952,,,,,,,,1,"[0.5,0.5]","[0.924,0.383]",d,"[0.7813826437284184,0.7813826437284184]","[0.21861735627158163,0.21861735627158163]",220.1931,222.406,0,d,0,0.675,,0.527178116,0.874012413,0.346834297,222.4084,222.4084,0,92,92,92,1,0.397995253,0.397995253,shape_difference2,1,,TRUE,,intensity,0.1,0.05,0.7,0.3,0.82,20,400,1E-11,3.5,0.01,0.5,0.1,,,,,,,,,,,,,,,,,,,,,,,,,,,,,,,,,,,,,,,,,,,,,,,,,,,,,,,,,,,,,,,,,,,,,,,,,,,,,,,,,
,,,,,229150,001,2025-03-14_20h34.33.419,Utility_discrimination_2024_2cat,2024.2.4,Win32,59.88023952,,,,,,,,3,"[0.5,0.5]","[0.383,0.924]",s,"[1.1340809116327142,0.7628279103412657]","[-0.1340809116327143,0.23717208965873426]",222.4092,224.3728,1,s,1,0.429,,0.113216008,0.489975403,0.376759395,224.3749,224.3749,0,93,93,93,1,0.686234753,0.686234753,shape_difference1,1,,TRUE,,intensity,0.1,0.05,0.7,0.3,0.82,20,400,1E-11,3.5,0.01,0.5,0.1,,,,,,,,,,,,,,,,,,,,,,,,,,,,,,,,,,,,,,,,,,,,,,,,,,,,,,,,,,,,,,,,,,,,,,,,,,,,,,,,,
,,,,,229150,001,2025-03-14_20h34.33.419,Utility_discrimination_2024_2cat,2024.2.4,Win32,59.88023952,,,,,,,,0,"[0.5,0.5]","[1,0]",s,"[0.6012935033549418,0.7443738827675357]","[0.39870649664505825,0.25562611723246426]",224.3761,226.3895,1,s,1,0.469,,0.013014116,0.326273308,0.313259192,226.3926,226.3926,0,94,94,94,1,0.264473899,0.264473899,shape_difference3,1,,TRUE,,intensity,0.1,0.05,0.7,0.3,0.82,20,400,1E-11,3.5,0.01,0.5,0.1,,,,,,,,,,,,,,,,,,,,,,,,,,,,,,,,,,,,,,,,,,,,,,,,,,,,,,,,,,,,,,,,,,,,,,,,,,,,,,,,,
,,,,,229150,001,2025-03-14_20h34.33.419,Utility_discrimination_2024_2cat,2024.2.4,Win32,59.88023952,,,,,,,,1,"[0.5,0.5]","[0.924,0.383]",s,"[0.6536601674651209,0.5]","[0.3463398325348791,0.5]",226.3933,228.2232,1,s,1,0.2884,,0.522190546,0.848114901,0.325924355,228.2261,228.2261,0,95,95,95,1,0.153660167,0.153660167,shape_difference0,1,,TRUE,,intensity,0.1,0.05,0.7,0.3,0.82,20,400,1E-11,3.5,0.01,0.5,0.1,,,,,,,,,,,,,,,,,,,,,,,,,,,,,,,,,,,,,,,,,,,,,,,,,,,,,,,,,,,,,,,,,,,,,,,,,,,,,,,,,
,,,,,229150,001,2025-03-14_20h34.33.419,Utility_discrimination_2024_2cat,2024.2.4,Win32,59.88023952,,,,,,,,2,"[0.5,0.5]","[0.707,0.707]",s,"[1.1238388754479167,0.7585825641737576]","[-0.12383887544791672,0.24141743582624237]",228.2275,230.423,1,d,1,0.6549,,0.30939641,0.583936213,0.274539803,230.4263,230.4265,0,96,96,96,1,0.675150298,0.675150298,shape_difference1,1,,TRUE,,intensity,0.1,0.05,0.7,0.3,0.82,20,400,1E-11,3.5,0.01,0.5,0.1,,,,,,,,,,,,,,,,,,,,,,,,,,,,,,,,,,,,,,,,,,,,,,,,,,,,,,,,,,,,,,,,,,,,,,,,,,,,,,,,,
,,,,,229150,001,2025-03-14_20h34.33.419,Utility_discrimination_2024_2cat,2024.2.4,Win32,59.88023952,,,,,,,,3,"[0.5,0.5]","[0.383,0.924]",d,"[0.8088994941539158,0.8088994941539158]","[0.19110050584608423,0.19110050584608423]",230.4276,232.6226,1,d,1,0.6558,,0.110918236,0.450990287,0.340072051,232.6247,232.6247,0,97,97,97,1,0.436915833,0.436915833,shape_difference2,1,,TRUE,,intensity,0.1,0.05,0.7,0.3,0.82,20,400,1E-11,3.5,0.01,0.5,0.1,,,,,,,,,,,,,,,,,,,,,,,,,,,,,,,,,,,,,,,,,,,,,,,,,,,,,,,,,,,,,,,,,,,,,,,,,,,,,,,,,
,,,,,229150,001,2025-03-14_20h34.33.419,Utility_discrimination_2024_2cat,2024.2.4,Win32,59.88023952,,,,,,,,4,"[0.5,0.5]","[0,1]",d,"[0.5960180338468888,0.7316466404034601]","[0.40398196615311127,0.26835335959653994]",232.6253,234.639,0,d,0,0.4767,,0.520771426,0.889320589,0.368549163,234.6418,234.6419,0,98,98,98,1,0.250699827,0.250699827,shape_difference3,1,,TRUE,,intensity,0.1,0.05,0.7,0.3,0.82,20,400,1E-11,3.5,0.01,0.5,0.1,,,,,,,,,,,,,,,,,,,,,,,,,,,,,,,,,,,,,,,,,,,,,,,,,,,,,,,,,,,,,,,,,,,,,,,,,,,,,,,,,
,,,,,229150,001,2025-03-14_20h34.33.419,Utility_discrimination_2024_2cat,2024.2.4,Win32,59.88023952,,,,,,,,0,"[0.5,0.5]","[1,0]",s,"[0.5,1.1920360061539015]","[0.5,-0.19203600615390148]",234.6425,236.8232,0,d,0,0.6397,,0.011130565,0.292249227,0.281118663,236.8257,236.8257,0,99,99,99,1,0.692036006,0.692036006,shape_difference4,1,,TRUE,,intensity,0.1,0.05,0.7,0.3,0.82,20,400,1E-11,3.5,0.01,0.5,0.1,,,,,,,,,,,,,,,,,,,,,,,,,,,,,,,,,,,,,,,,,,,,,,,,,,,,,,,,,,,,,,,,,,,,,,,,,,,,,,,,,
,,,,,229150,001,2025-03-14_20h34.33.419,Utility_discrimination_2024_2cat,2024.2.4,Win32,59.88023952,,,,,,,,1,"[0.5,0.5]","[0.924,0.383]",s,"[0.6434115166385524,0.5]","[0.35658848336144755,0.5]",236.8266,239.0896,1,d,1,0.7208,,0.518436492,0.813163123,0.294726631,239.0921,239.0922,0,100,100,100,1,0.143411517,0.143411517,shape_difference0,1,,TRUE,,intensity,0.1,0.05,0.7,0.3,0.82,20,400,1E-11,3.5,0.01,0.5,0.1,,,,,,,,,,,,,,,,,,,,,,,,,,,,,,,,,,,,,,,,,,,,,,,,,,,,,,,,,,,,,,,,,,,,,,,,,,,,,,,,,
,,,,,229150,001,2025-03-14_20h34.33.419,Utility_discrimination_2024_2cat,2024.2.4,Win32,59.88023952,,,,,,,,4,"[0.5,0.5]","[0,1]",d,"[1.1150829821062584,0.7549532274314903]","[-0.11508298210625845,0.24504677256850976]",239.0927,240.923,1,d,1,0.2867,,0.600994901,0.960857688,0.359862787,240.9266,240.9266,0,101,101,101,1,0.665674223,0.665674223,shape_difference1,1,,TRUE,,intensity,0.1,0.05,0.7,0.3,0.82,20,400,1E-11,3.5,0.01,0.5,0.1,,,,,,,,,,,,,,,,,,,,,,,,,,,,,,,,,,,,,,,,,,,,,,,,,,,,,,,,,,,,,,,,,,,,,,,,,,,,,,,,,
,,,,,229150,001,2025-03-14_20h34.33.419,Utility_discrimination_2024_2cat,2024.2.4,Win32,59.88023952,,,,,,,,2,"[0.5,0.5]","[0.707,0.707]",d,"[0.5,1.2555297545622723]","[0.5,-0.2555297545622722]",240.9277,243.0563,1,d,1,0.5886,,0.307700574,0.570149595,0.262449021,243.0591,243.0592,0,102,102,102,1,0.755529755,0.755529755,shape_difference4,1,,TRUE,,intensity,0.1,0.05,0.7,0.3,0.82,20,400,1E-11,3.5,0.01,0.5,0.1,,,,,,,,,,,,,,,,,,,,,,,,,,,,,,,,,,,,,,,,,,,,,,,,,,,,,,,,,,,,,,,,,,,,,,,,,,,,,,,,,
,,,,,229150,001,2025-03-14_20h34.33.419,Utility_discrimination_2024_2cat,2024.2.4,Win32,59.88023952,,,,,,,,3,"[0.5,0.5]","[0.383,0.924]",d,"[0.8008836782498567,0.8008836782498567]","[0.19911632175014327,0.19911632175014327]",243.0609,245.2902,1,d,1,0.6954,,0.142093461,0.567406842,0.425313381,245.2925,245.2925,0,103,103,103,1,0.425578046,0.425578046,shape_difference2,1,,TRUE,,intensity,0.1,0.05,0.7,0.3,0.82,20,400,1E-11,3.5,0.01,0.5,0.1,,,,,,,,,,,,,,,,,,,,,,,,,,,,,,,,,,,,,,,,,,,,,,,,,,,,,,,,,,,,,,,,,,,,,,,,,,,,,,,,,
,,,,,229150,001,2025-03-14_20h34.33.419,Utility_discrimination_2024_2cat,2024.2.4,Win32,59.88023952,,,,,,,,4,"[0.5,0.5]","[0,1]",d,"[0.6199682861162065,0.7894274056693857]","[0.38003171388379353,0.2105725943306142]",245.2931,247.4058,0,d,0,0.5715,,0.589603886,0.922914313,0.333310427,247.4075,247.4075,0,104,104,104,1,0.313233123,0.313233123,shape_difference3,1,,TRUE,,intensity,0.1,0.05,0.7,0.3,0.82,20,400,1E-11,3.5,0.01,0.5,0.1,,,,,,,,,,,,,,,,,,,,,,,,,,,,,,,,,,,,,,,,,,,,,,,,,,,,,,,,,,,,,,,,,,,,,,,,,,,,,,,,,
,,,,,229150,001,2025-03-14_20h34.33.419,Utility_discrimination_2024_2cat,2024.2.4,Win32,59.88023952,,,,,,,,3,"[0.5,0.5]","[0.383,0.924]",s,"[0.5,1.239494088399148]","[0.5,-0.2394940883991482]",247.4082,249.5551,1,d,1,0.6108,,0.207821799,0.649000017,0.441178218,249.5575,249.5575,0,105,105,105,1,0.739494088,0.739494088,shape_difference4,1,,TRUE,,intensity,0.1,0.05,0.7,0.3,0.82,20,400,1E-11,3.5,0.01,0.5,0.1,,,,,,,,,,,,,,,,,,,,,,,,,,,,,,,,,,,,,,,,,,,,,,,,,,,,,,,,,,,,,,,,,,,,,,,,,,,,,,,,,
,,,,,229150,001,2025-03-14_20h34.33.419,Utility_discrimination_2024_2cat,2024.2.4,Win32,59.88023952,,,,,,,,1,"[0.5,0.5]","[0.924,0.383]",d,"[0.6435849532075946,0.8464033858063116]","[0.3564150467924055,0.15359661419368842]",249.558,251.8727,1,d,1,0.7681,,0.515553116,0.792907252,0.277354136,251.875,251.875,0,106,106,106,1,0.374895439,0.374895439,shape_difference3,1,,TRUE,,intensity,0.1,0.05,0.7,0.3,0.82,20,400,1E-11,3.5,0.01,0.5,0.1,,,,,,,,,,,,,,,,,,,,,,,,,,,,,,,,,,,,,,,,,,,,,,,,,,,,,,,,,,,,,,,,,,,,,,,,,,,,,,,,,
,,,,,229150,001,2025-03-14_20h34.33.419,Utility_discrimination_2024_2cat,2024.2.4,Win32,59.88023952,,,,,,,,2,"[0.5,0.5]","[0.707,0.707]",d,"[1.107309234486085,0.7517309922166349]","[-0.1073092344860852,0.24826900778336514]",251.8759,253.9726,1,d,1,0.5527,,0.306234019,0.553088772,0.246854753,253.9761,253.9762,0,107,107,107,1,0.657261076,0.657261076,shape_difference1,1,,TRUE,,intensity,0.1,0.05,0.7,0.3,0.82,20,400,1E-11,3.5,0.01,0.5,0.1,,,,,,,,,,,,,,,,,,,,,,,,,,,,,,,,,,,,,,,,,,,,,,,,,,,,,,,,,,,,,,,,,,,,,,,,,,,,,,,,,
,,,,,229150,001,2025-03-14_20h34.33.419,Utility_discrimination_2024_2cat,2024.2.4,Win32,59.88023952,,,,,,,,0,"[0.5,0.5]","[1,0]",d,"[0.7919731558503833,0.7919731558503833]","[0.20802684414961675,0.20802684414961675]",253.9773,256.0553,1,d,1,0.5455,,0.00932026,0.279235495,0.269915235,256.0582,256.0582,0,108,108,108,1,0.412974761,0.412974761,shape_difference2,1,,TRUE,,intensity,0.1,0.05,0.7,0.3,0.82,20,400,1E-11,3.5,0.01,0.5,0.1,,,,,,,,,,,,,,,,,,,,,,,,,,,,,,,,,,,,,,,,,,,,,,,,,,,,,,,,,,,,,,,,,,,,,,,,,,,,,,,,,
,,,,,229150,001,2025-03-14_20h34.33.419,Utility_discrimination_2024_2cat,2024.2.4,Win32,59.88023952,,,,,,,,3,"[0.5,0.5]","[0.383,0.924]",d,"[0.632879521379546,0.5]","[0.36712047862045405,0.5]",256.0587,258.1891,0,s,0,0.5885,,0.205037131,0.593460889,0.388423757,258.1908,258.1908,0,109,109,109,1,0.132879521,0.132879521,shape_difference0,1,,TRUE,,intensity,0.1,0.05,0.7,0.3,0.82,20,400,1E-11,3.5,0.01,0.5,0.1,,,,,,,,,,,,,,,,,,,,,,,,,,,,,,,,,,,,,,,,,,,,,,,,,,,,,,,,,,,,,,,,,,,,,,,,,,,,,,,,,
,,,,,229150,001,2025-03-14_20h34.33.419,Utility_discrimination_2024_2cat,2024.2.4,Win32,59.88023952,,,,,,,,1,"[0.5,0.5]","[0.924,0.383]",d,"[0.6357637260671802,0.8275344200680799]","[0.3642362739328197,0.17246557993192013]",258.1912,260.5221,1,d,1,0.788,,0.513295624,0.781893224,0.2685976,260.5247,260.5247,0,110,110,110,1,0.354474481,0.354474481,shape_difference3,1,,TRUE,,intensity,0.1,0.05,0.7,0.3,0.82,20,400,1E-11,3.5,0.01,0.5,0.1,,,,,,,,,,,,,,,,,,,,,,,,,,,,,,,,,,,,,,,,,,,,,,,,,,,,,,,,,,,,,,,,,,,,,,,,,,,,,,,,,
,,,,,229150,001,2025-03-14_20h34.33.419,Utility_discrimination_2024_2cat,2024.2.4,Win32,59.88023952,,,,,,,,2,"[0.5,0.5]","[0.707,0.707]",d,"[1.100127533604831,0.7487541616565478]","[-0.10012753360483095,0.25124583834345215]",260.5253,262.8721,1,d,1,0.811,,0.304921329,0.531428401,0.226507072,262.8757,262.8757,0,111,111,111,1,0.649488673,0.649488673,shape_difference1,1,,TRUE,,intensity,0.1,0.05,0.7,0.3,0.82,20,400,1E-11,3.5,0.01,0.5,0.1,,,,,,,,,,,,,,,,,,,,,,,,,,,,,,,,,,,,,,,,,,,,,,,,,,,,,,,,,,,,,,,,,,,,,,,,,,,,,,,,,
,,,,,229150,001,2025-03-14_20h34.33.419,Utility_discrimination_2024_2cat,2024.2.4,Win32,59.88023952,,,,,,,,0,"[0.5,0.5]","[1,0]",d,"[0.7822356722261434,0.7822356722261434]","[0.21776432777385657,0.21776432777385657]",262.8769,265.1728,1,d,1,0.7515,,0.016249284,0.308938148,0.292688864,265.1766,265.1766,0,112,112,112,1,0.399201799,0.399201799,shape_difference2,1,,TRUE,,intensity,0.1,0.05,0.7,0.3,0.82,20,400,1E-11,3.5,0.01,0.5,0.1,,,,,,,,,,,,,,,,,,,,,,,,,,,,,,,,,,,,,,,,,,,,,,,,,,,,,,,,,,,,,,,,,,,,,,,,,,,,,,,,,
,,,,,229150,001,2025-03-14_20h34.33.419,Utility_discrimination_2024_2cat,2024.2.4,Win32,59.88023952,,,,,,,,4,"[0.5,0.5]","[0,1]",d,"[0.6578379427493118,0.5]","[0.34216205725068816,0.5]",265.1779,267.4387,0,d,0,0.7271,,0.569000172,0.894355045,0.325354872,267.441,267.441,0,113,113,113,1,0.157837943,0.157837943,shape_difference0,1,,TRUE,,intensity,0.1,0.05,0.7,0.3,0.82,20,400,1E-11,3.5,0.01,0.5,0.1,,,,,,,,,,,,,,,,,,,,,,,,,,,,,,,,,,,,,,,,,,,,,,,,,,,,,,,,,,,,,,,,,,,,,,,,,,,,,,,,,
,,,,,229150,001,2025-03-14_20h34.33.419,Utility_discrimination_2024_2cat,2024.2.4,Win32,59.88023952,,,,,,,,4,"[0.5,0.5]","[0,1]",s,"[0.5,1.2226665221224922]","[0.5,-0.22266652212249205]",267.4419,269.6055,1,s,1,0.6257,,0.554228304,0.878863185,0.324634881,269.6079,269.6079,0,114,114,114,1,0.722666522,0.722666522,shape_difference4,1,,TRUE,,intensity,0.1,0.05,0.7,0.3,0.82,20,400,1E-11,3.5,0.01,0.5,0.1,,,,,,,,,,,,,,,,,,,,,,,,,,,,,,,,,,,,,,,,,,,,,,,,,,,,,,,,,,,,,,,,,,,,,,,,,,,,,,,,,
,,,,,229150,001,2025-03-14_20h34.33.419,Utility_discrimination_2024_2cat,2024.2.4,Win32,59.88023952,,,,,,,,3,"[0.5,0.5]","[0.383,0.924]",s,"[0.5,1.2039480479769211]","[0.5,-0.20394804797692112]",269.6087,271.6232,1,s,1,0.4788,,0.202933822,0.55402688,0.351093058,271.6247,271.6247,0,115,115,115,1,0.703948048,0.703948048,shape_difference4,1,,TRUE,,intensity,0.1,0.05,0.7,0.3,0.82,20,400,1E-11,3.5,0.01,0.5,0.1,,,,,,,,,,,,,,,,,,,,,,,,,,,,,,,,,,,,,,,,,,,,,,,,,,,,,,,,,,,,,,,,,,,,,,,,,,,,,,,,,
,,,,,229150,001,2025-03-14_20h34.33.419,Utility_discrimination_2024_2cat,2024.2.4,Win32,59.88023952,,,,,,,,2,"[0.5,0.5]","[0.707,0.707]",s,"[0.6288937206609144,0.8109603078085768]","[0.3711062793390856,0.18903969219142325]",271.6256,273.7061,1,s,1,0.538,,0.303702885,0.503344283,0.199641398,273.7101,273.7102,0,116,116,116,1,0.33653713,0.33653713,shape_difference3,1,,TRUE,,intensity,0.1,0.05,0.7,0.3,0.82,20,400,1E-11,3.5,0.01,0.5,0.1,,,,,,,,,,,,,,,,,,,,,,,,,,,,,,,,,,,,,,,,,,,,,,,,,,,,,,,,,,,,,,,,,,,,,,,,,,,,,,,,,
,,,,,229150,001,2025-03-14_20h34.33.419,Utility_discrimination_2024_2cat,2024.2.4,Win32,59.88023952,,,,,,,,1,"[0.5,0.5]","[0.924,0.383]",s,"[0.7765532119798302,0.7765532119798302]","[0.22344678802016987,0.22344678802016987]",273.7119,275.722,1,s,1,0.4772,,0.51107363,0.771484908,0.260411278,275.7243,275.7243,0,117,117,117,1,0.391164373,0.391164373,shape_difference2,1,,TRUE,,intensity,0.1,0.05,0.7,0.3,0.82,20,400,1E-11,3.5,0.01,0.5,0.1,,,,,,,,,,,,,,,,,,,,,,,,,,,,,,,,,,,,,,,,,,,,,,,,,,,,,,,,,,,,,,,,,,,,,,,,,,,,,,,,,
,,,,,229150,001,2025-03-14_20h34.33.419,Utility_discrimination_2024_2cat,2024.2.4,Win32,59.88023952,,,,,,,,0,"[0.5,0.5]","[1,0]",s,"[1.0926998791513003,0.7456753828083853]","[-0.09269987915130018,0.25432461719161475]",275.7248,277.7229,1,s,1,0.4531,,0.055603954,0.399984288,0.344380334,277.725,277.7251,0,118,118,118,1,0.641450086,0.641450086,shape_difference1,1,,TRUE,,intensity,0.1,0.05,0.7,0.3,0.82,20,400,1E-11,3.5,0.01,0.5,0.1,,,,,,,,,,,,,,,,,,,,,,,,,,,,,,,,,,,,,,,,,,,,,,,,,,,,,,,,,,,,,,,,,,,,,,,,,,,,,,,,,
,,,,,229150,001,2025-03-14_20h34.33.419,Utility_discrimination_2024_2cat,2024.2.4,Win32,59.88023952,,,,,,,,3,"[0.5,0.5]","[0.383,0.924]",s,"[0.6966343343177257,0.5]","[0.30336566568227424,0.5]",277.7258,279.6723,1,s,1,0.4068,,0.20031308,0.511823054,0.311509974,279.675,279.675,0,119,119,119,1,0.196634334,0.196634334,shape_difference0,1,,TRUE,,intensity,0.1,0.05,0.7,0.3,0.82,20,400,1E-11,3.5,0.01,0.5,0.1,,,,,,,,,,,,,,,,,,,,,,,,,,,,,,,,,,,,,,,,,,,,,,,,,,,,,,,,,,,,,,,,,,,,,,,,,,,,,,,,,
,,,,,229150,001,2025-03-14_20h34.33.419,Utility_discrimination_2024_2cat,2024.2.4,Win32,59.88023952,,,,,,,,4,"[0.5,0.5]","[0,1]",s,"[0.6219977705934674,0.7943236032072163]","[0.3780022294065326,0.20567639679278366]",279.6762,281.6562,1,s,1,0.4356,,0.543434709,0.859272447,0.315837738,281.6589,281.6589,0,120,120,120,1,0.318532038,0.318532038,shape_difference3,1,,TRUE,,intensity,0.1,0.05,0.7,0.3,0.82,20,400,1E-11,3.5,0.01,0.5,0.1,,,,,,,,,,,,,,,,,,,,,,,,,,,,,,,,,,,,,,,,,,,,,,,,,,,,,,,,,,,,,,,,,,,,,,,,,,,,,,,,,
,,,,,229150,001,2025-03-14_20h34.33.419,Utility_discrimination_2024_2cat,2024.2.4,Win32,59.88023952,,,,,,,,1,"[0.5,0.5]","[0.924,0.383]",s,"[0.5,1.1908887877993977]","[0.5,-0.19088878779939766]",281.6601,283.7058,1,s,1,0.5055,,0.509217782,0.758722916,0.249505135,283.7084,283.7084,0,121,121,121,1,0.690888788,0.690888788,shape_difference4,1,,TRUE,,intensity,0.1,0.05,0.7,0.3,0.82,20,400,1E-11,3.5,0.01,0.5,0.1,,,,,,,,,,,,,,,,,,,,,,,,,,,,,,,,,,,,,,,,,,,,,,,,,,,,,,,,,,,,,,,,,,,,,,,,,,,,,,,,,
,,,,,229150,001,2025-03-14_20h34.33.419,Utility_discrimination_2024_2cat,2024.2.4,Win32,59.88023952,,,,,,,,2,"[0.5,0.5]","[0.707,0.707]",s,"[1.084607869078862,0.7423212271181863]","[-0.08460786907886209,0.2576787728818137]",283.7101,285.5886,1,d,1,0.3373,,0.302529929,0.495908789,0.19337886,285.5911,285.5911,0,122,122,122,1,0.632692499,0.632692499,shape_difference1,1,,TRUE,,intensity,0.1,0.05,0.7,0.3,0.82,20,400,1E-11,3.5,0.01,0.5,0.1,,,,,,,,,,,,,,,,,,,,,,,,,,,,,,,,,,,,,,,,,,,,,,,,,,,,,,,,,,,,,,,,,,,,,,,,,,,,,,,,,
,,,,,229150,001,2025-03-14_20h34.33.419,Utility_discrimination_2024_2cat,2024.2.4,Win32,59.88023952,,,,,,,,0,"[0.5,0.5]","[1,0]",d,"[0.7719396799136045,0.7719396799136045]","[0.22806032008639548,0.22806032008639548]",285.5917,287.7719,1,d,1,0.6377,,0.044807789,0.375645334,0.330837545,287.7739,287.7739,0,123,123,123,1,0.384638868,0.384638868,shape_difference2,1,,TRUE,,intensity,0.1,0.05,0.7,0.3,0.82,20,400,1E-11,3.5,0.01,0.5,0.1,,,,,,,,,,,,,,,,,,,,,,,,,,,,,,,,,,,,,,,,,,,,,,,,,,,,,,,,,,,,,,,,,,,,,,,,,,,,,,,,,
,,,,,229150,001,2025-03-14_20h34.33.419,Utility_discrimination_2024_2cat,2024.2.4,Win32,59.88023952,,,,,,,,0,"[0.5,0.5]","[1,0]",d,"[0.6860143757565524,0.5]","[0.31398562424344756,0.5]",287.7743,290.0552,0,s,0,0.7339,,0.105220199,0.456417554,0.351197355,290.0578,290.0578,0,124,124,124,1,0.186014376,0.186014376,shape_difference0,1,,TRUE,,intensity,0.1,0.05,0.7,0.3,0.82,20,400,1E-11,3.5,0.01,0.5,0.1,,,,,,,,,,,,,,,,,,,,,,,,,,,,,,,,,,,,,,,,,,,,,,,,,,,,,,,,,,,,,,,,,,,,,,,,,,,,,,,,,
,,,,,229150,001,2025-03-14_20h34.33.419,Utility_discrimination_2024_2cat,2024.2.4,Win32,59.88023952,,,,,,,,1,"[0.5,0.5]","[0.924,0.383]",d,"[0.7338405654749067,0.5]","[0.2661594345250933,0.5]",290.0585,292.222,1,s,1,0.619,,0.507628947,0.742705527,0.23507658,292.2235,292.2236,0,125,125,125,1,0.233840565,0.233840565,shape_difference0,1,,TRUE,,intensity,0.1,0.05,0.7,0.3,0.82,20,400,1E-11,3.5,0.01,0.5,0.1,,,,,,,,,,,,,,,,,,,,,,,,,,,,,,,,,,,,,,,,,,,,,,,,,,,,,,,,,,,,,,,,,,,,,,,,,,,,,,,,,
,,,,,229150,001,2025-03-14_20h34.33.419,Utility_discrimination_2024_2cat,2024.2.4,Win32,59.88023952,,,,,,,,3,"[0.5,0.5]","[0.383,0.924]",s,"[1.0755724604837709,0.7385760306983595]","[-0.07557246048377098,0.2614239693016404]",292.2241,294.4711,1,s,1,0.7219,,0.181179125,0.48556285,0.304383726,294.4734,294.4734,0,126,126,126,1,0.622913918,0.622913918,shape_difference1,1,,TRUE,,intensity,0.1,0.05,0.7,0.3,0.82,20,400,1E-11,3.5,0.01,0.5,0.1,,,,,,,,,,,,,,,,,,,,,,,,,,,,,,,,,,,,,,,,,,,,,,,,,,,,,,,,,,,,,,,,,,,,,,,,,,,,,,,,,
,,,,,229150,001,2025-03-14_20h34.33.419,Utility_discrimination_2024_2cat,2024.2.4,Win32,59.88023952,,,,,,,,2,"[0.5,0.5]","[0.707,0.707]",s,"[0.6146522345142637,0.7766022576793201]","[0.38534776548573635,0.22339774232067994]",294.474,296.4054,1,s,1,0.3841,,0.301360976,0.491247049,0.189886073,296.4075,296.4075,0,127,127,127,1,0.299353093,0.299353093,shape_difference3,1,,TRUE,,intensity,0.1,0.05,0.7,0.3,0.82,20,400,1E-11,3.5,0.01,0.5,0.1,,,,,,,,,,,,,,,,,,,,,,,,,,,,,,,,,,,,,,,,,,,,,,,,,,,,,,,,,,,,,,,,,,,,,,,,,,,,,,,,,
,,,,,229150,001,2025-03-14_20h34.33.419,Utility_discrimination_2024_2cat,2024.2.4,Win32,59.88023952,,,,,,,,4,"[0.5,0.5]","[0,1]",s,"[0.768155288147403,0.768155288147403]","[0.23184471185259703,0.23184471185259703]",296.4079,298.3553,1,d,1,0.4027,,0.535399929,0.833665181,0.298265252,298.3568,298.3569,0,128,128,128,1,0.379286122,0.379286122,shape_difference2,1,,TRUE,,intensity,0.1,0.05,0.7,0.3,0.82,20,400,1E-11,3.5,0.01,0.5,0.1,,,,,,,,,,,,,,,,,,,,,,,,,,,,,,,,,,,,,,,,,,,,,,,,,,,,,,,,,,,,,,,,,,,,,,,,,,,,,,,,,
,,,,,229150,001,2025-03-14_20h34.33.419,Utility_discrimination_2024_2cat,2024.2.4,Win32,59.88023952,,,,,,,,3,"[0.5,0.5]","[0.383,0.924]",d,"[0.5,1.1814268355276227]","[0.5,-0.18142683552762262]",298.3575,300.5217,1,d,1,0.6251,,0.165128626,0.462992636,0.29786401,300.5239,300.5239,0,129,129,129,1,0.681426836,0.681426836,shape_difference4,1,,TRUE,,intensity,0.1,0.05,0.7,0.3,0.82,20,400,1E-11,3.5,0.01,0.5,0.1,,,,,,,,,,,,,,,,,,,,,,,,,,,,,,,,,,,,,,,,,,,,,,,,,,,,,,,,,,,,,,,,,,,,,,,,,,,,,,,,,
,,,,,229150,001,2025-03-14_20h34.33.419,Utility_discrimination_2024_2cat,2024.2.4,Win32,59.88023952,,,,,,,,2,"[0.5,0.5]","[0.707,0.707]",d,"[0.6108238300771747,0.7673661070269173]","[0.3891761699228254,0.23263389297308262]",300.5243,302.7714,1,s,1,0.7028,,0.300159162,0.486318556,0.186159394,302.7733,302.7733,0,130,130,130,1,0.289357259,0.289357259,shape_difference3,1,,TRUE,,intensity,0.1,0.05,0.7,0.3,0.82,20,400,1E-11,3.5,0.01,0.5,0.1,,,,,,,,,,,,,,,,,,,,,,,,,,,,,,,,,,,,,,,,,,,,,,,,,,,,,,,,,,,,,,,,,,,,,,,,,,,,,,,,,
,,,,,229150,001,2025-03-14_20h34.33.419,Utility_discrimination_2024_2cat,2024.2.4,Win32,59.88023952,,,,,,,,4,"[0.5,0.5]","[0,1]",s,"[0.7650151418091696,0.7650151418091696]","[0.23498485819083037,0.23498485819083037]",302.7739,304.905,1,d,1,0.5887,,0.529310534,0.79986198,0.270551447,304.9074,304.9074,0,131,131,131,1,0.374844614,0.374844614,shape_difference2,1,,TRUE,,intensity,0.1,0.05,0.7,0.3,0.82,20,400,1E-11,3.5,0.01,0.5,0.1,,,,,,,,,,,,,,,,,,,,,,,,,,,,,,,,,,,,,,,,,,,,,,,,,,,,,,,,,,,,,,,,,,,,,,,,,,,,,,,,,
,,,,,229150,001,2025-03-14_20h34.33.419,Utility_discrimination_2024_2cat,2024.2.4,Win32,59.88023952,,,,,,,,0,"[0.5,0.5]","[1,0]",d,"[0.5,1.1734883839516228]","[0.5,-0.17348838395162292]",304.908,307.3379,1,d,1,0.9009,,0.10309707,0.41109478,0.307997711,307.3401,307.3401,0,132,132,132,1,0.673488384,0.673488384,shape_difference4,1,,TRUE,,intensity,0.1,0.05,0.7,0.3,0.82,20,400,1E-11,3.5,0.01,0.5,0.1,,,,,,,,,,,,,,,,,,,,,,,,,,,,,,,,,,,,,,,,,,,,,,,,,,,,,,,,,,,,,,,,,,,,,,,,,,,,,,,,,
,,,,,229150,001,2025-03-14_20h34.33.419,Utility_discrimination_2024_2cat,2024.2.4,Win32,59.88023952,,,,,,,,1,"[0.5,0.5]","[0.924,0.383]",d,"[0.7160190705151437,0.5]","[0.28398092948485637,0.5]",307.3406,309.8376,1,d,1,0.9548,,0.506229947,0.722200483,0.215970535,309.84,309.84,0,133,133,133,1,0.216019071,0.216019071,shape_difference0,1,,TRUE,,intensity,0.1,0.05,0.7,0.3,0.82,20,400,1E-11,3.5,0.01,0.5,0.1,,,,,,,,,,,,,,,,,,,,,,,,,,,,,,,,,,,,,,,,,,,,,,,,,,,,,,,,,,,,,,,,,,,,,,,,,,,,,,,,,
,,,,,229150,001,2025-03-14_20h34.33.419,Utility_discrimination_2024_2cat,2024.2.4,Win32,59.88023952,,,,,,,,3,"[0.5,0.5]","[0.383,0.924]",d,"[1.0652770338686366,0.7343085540819132]","[-0.06527703386863659,0.2656914459180868]",309.8404,312.1218,1,s,1,0.7398,,0.153151625,0.43418893,0.281037305,312.124,312.124,0,134,134,134,1,0.611771682,0.611771682,shape_difference1,1,,TRUE,,intensity,0.1,0.05,0.7,0.3,0.82,20,400,1E-11,3.5,0.01,0.5,0.1,,,,,,,,,,,,,,,,,,,,,,,,,,,,,,,,,,,,,,,,,,,,,,,,,,,,,,,,,,,,,,,,,,,,,,,,,,,,,,,,,
,,,,,229150,001,2025-03-14_20h34.33.419,Utility_discrimination_2024_2cat,2024.2.4,Win32,59.88023952,,,,,,,,4,"[0.5,0.5]","[0,1]",s,"[0.6077523147869673,0.7599559761440151]","[0.39224768521303266,0.24004402385598483]",312.1245,314.3225,0,s,0,0.6627,,0.524616143,0.792142562,0.267526418,314.3239,314.3239,0,135,135,135,1,0.281337637,0.281337637,shape_difference3,1,,TRUE,,intensity,0.1,0.05,0.7,0.3,0.82,20,400,1E-11,3.5,0.01,0.5,0.1,,,,,,,,,,,,,,,,,,,,,,,,,,,,,,,,,,,,,,,,,,,,,,,,,,,,,,,,,,,,,,,,,,,,,,,,,,,,,,,,,
,,,,,229150,001,2025-03-14_20h34.33.419,Utility_discrimination_2024_2cat,2024.2.4,Win32,59.88023952,,,,,,,,0,"[0.5,0.5]","[1,0]",d,"[0.5,1.1666319815729367]","[0.5,-0.16663198157293668]",314.3245,316.3376,1,s,1,0.4782,,0.101144482,0.383956285,0.282811804,316.3399,316.3399,0,136,136,136,1,0.666631982,0.666631982,shape_difference4,1,,TRUE,,intensity,0.1,0.05,0.7,0.3,0.82,20,400,1E-11,3.5,0.01,0.5,0.1,,,,,,,,,,,,,,,,,,,,,,,,,,,,,,,,,,,,,,,,,,,,,,,,,,,,,,,,,,,,,,,,,,,,,,,,,,,,,,,,,
,,,,,229150,001,2025-03-14_20h34.33.419,Utility_discrimination_2024_2cat,2024.2.4,Win32,59.88023952,,,,,,,,2,"[0.5,0.5]","[0.707,0.707]",s,"[0.698216421577483,0.5]","[0.301783578422517,0.5]",316.3404,318.4207,1,s,1,0.5438,,0.285762057,0.480943165,0.195181108,318.4233,318.4233,0,137,137,137,1,0.198216422,0.198216422,shape_difference0,1,,TRUE,,intensity,0.1,0.05,0.7,0.3,0.82,20,400,1E-11,3.5,0.01,0.5,0.1,,,,,,,,,,,,,,,,,,,,,,,,,,,,,,,,,,,,,,,,,,,,,,,,,,,,,,,,,,,,,,,,,,,,,,,,,,,,,,,,,
,,,,,229150,001,2025-03-14_20h34.33.419,Utility_discrimination_2024_2cat,2024.2.4,Win32,59.88023952,,,,,,,,1,"[0.5,0.5]","[0.924,0.383]",s,"[0.762374886745661,0.762374886745661]","[0.23762511325433894,0.23762511325433894]",318.4238,320.3875,1,s,1,0.4231,,0.504959287,0.699469949,0.194510663,320.3901,320.3901,0,138,138,138,1,0.371110165,0.371110165,shape_difference2,1,,TRUE,,intensity,0.1,0.05,0.7,0.3,0.82,20,400,1E-11,3.5,0.01,0.5,0.1,,,,,,,,,,,,,,,,,,,,,,,,,,,,,,,,,,,,,,,,,,,,,,,,,,,,,,,,,,,,,,,,,,,,,,,,,,,,,,,,,
,,,,,229150,001,2025-03-14_20h34.33.419,Utility_discrimination_2024_2cat,2024.2.4,Win32,59.88023952,,,,,,,,3,"[0.5,0.5]","[0.383,0.924]",s,"[1.0537455102575897,0.7295287125851264]","[-0.05374551025758956,0.2704712874148736]",320.3907,322.488,1,d,1,0.5532,,0.205302061,0.489411673,0.284109612,322.4899,322.4899,0,139,139,139,1,0.599291678,0.599291678,shape_difference1,1,,TRUE,,intensity,0.1,0.05,0.7,0.3,0.82,20,400,1E-11,3.5,0.01,0.5,0.1,,,,,,,,,,,,,,,,,,,,,,,,,,,,,,,,,,,,,,,,,,,,,,,,,,,,,,,,,,,,,,,,,,,,,,,,,,,,,,,,,
,,,,,229150,001,2025-03-14_20h34.33.419,Utility_discrimination_2024_2cat,2024.2.4,Win32,59.88023952,,,,,,,,2,"[0.5,0.5]","[0.707,0.707]",d,"[0.6215311108303428,0.7931977712982683]","[0.3784688891696572,0.2068022287017317]",322.4906,324.7546,0,s,0,0.7225,,0.272436809,0.474916727,0.202479918,324.7569,324.7569,0,140,140,140,1,0.317313605,0.317313605,shape_difference3,1,,TRUE,,intensity,0.1,0.05,0.7,0.3,0.82,20,400,1E-11,3.5,0.01,0.5,0.1,,,,,,,,,,,,,,,,,,,,,,,,,,,,,,,,,,,,,,,,,,,,,,,,,,,,,,,,,,,,,,,,,,,,,,,,,,,,,,,,,
,,,,,229150,001,2025-03-14_20h34.33.419,Utility_discrimination_2024_2cat,2024.2.4,Win32,59.88023952,,,,,,,,4,"[0.5,0.5]","[0,1]",d,"[0.7601202835800633,0.7601202835800633]","[0.23987971641993666,0.23987971641993666]",324.7574,326.9046,1,s,1,0.6062,,0.52093888,0.783823752,0.262884873,326.9064,326.9064,0,141,141,141,1,0.367921193,0.367921193,shape_difference2,1,,TRUE,,intensity,0.1,0.05,0.7,0.3,0.82,20,400,1E-11,3.5,0.01,0.5,0.1,,,,,,,,,,,,,,,,,,,,,,,,,,,,,,,,,,,,,,,,,,,,,,,,,,,,,,,,,,,,,,,,,,,,,,,,,,,,,,,,,
,,,,,229150,001,2025-03-14_20h34.33.419,Utility_discrimination_2024_2cat,2024.2.4,Win32,59.88023952,,,,,,,,0,"[0.5,0.5]","[1,0]",s,"[0.5,1.160516101344939]","[0.5,-0.1605161013449391]",326.9076,329.0876,0,s,0,0.6339,,0.091841885,0.359789417,0.267947532,329.0901,329.0901,0,142,142,142,1,0.660516101,0.660516101,shape_difference4,1,,TRUE,,intensity,0.1,0.05,0.7,0.3,0.82,20,400,1E-11,3.5,0.01,0.5,0.1,,,,,,,,,,,,,,,,,,,,,,,,,,,,,,,,,,,,,,,,,,,,,,,,,,,,,,,,,,,,,,,,,,,,,,,,,,,,,,,,,
,,,,,229150,001,2025-03-14_20h34.33.419,Utility_discrimination_2024_2cat,2024.2.4,Win32,59.88023952,,,,,,,,1,"[0.5,0.5]","[0.924,0.383]",d,"[0.6890442268269098,0.5]","[0.3109557731730902,0.5]",329.0906,331.0876,1,s,1,0.454,,0.503766581,0.695936798,0.192170217,331.09,331.09,0,143,143,143,1,0.189044227,0.189044227,shape_difference0,1,,TRUE,,intensity,0.1,0.05,0.7,0.3,0.82,20,400,1E-11,3.5,0.01,0.5,0.1,,,,,,,,,,,,,,,,,,,,,,,,,,,,,,,,,,,,,,,,,,,,,,,,,,,,,,,,,,,,,,,,,,,,,,,,,,,,,,,,,
,,,,,229150,001,2025-03-14_20h34.33.419,Utility_discrimination_2024_2cat,2024.2.4,Win32,59.88023952,,,,,,,,2,"[0.5,0.5]","[0.707,0.707]",s,"[1.0465562130467019,0.7265487333299642]","[-0.04655621304670199,0.27345126667003583]",331.0904,332.8039,1,d,1,0.1891,,0.261629002,0.468000604,0.206371602,332.8065,332.8065,0,144,144,144,1,0.591511053,0.591511053,shape_difference1,1,,TRUE,,intensity,0.1,0.05,0.7,0.3,0.82,20,400,1E-11,3.5,0.01,0.5,0.1,,,,,,,,,,,,,,,,,,,,,,,,,,,,,,,,,,,,,,,,,,,,,,,,,,,,,,,,,,,,,,,,,,,,,,,,,,,,,,,,,
,,,,,229150,001,2025-03-14_20h34.33.419,Utility_discrimination_2024_2cat,2024.2.4,Win32,59.88023952,,,,,,,,4,"[0.5,0.5]","[0,1]",d,"[0.7581595524154878,0.7581595524154878]","[0.24184044758451212,0.24184044758451212]",332.8071,334.8877,1,s,1,0.5354,,0.573507661,0.822474205,0.248966544,334.8899,334.8899,0,145,145,145,1,0.365147882,0.365147882,shape_difference2,1,,TRUE,,intensity,0.1,0.05,0.7,0.3,0.82,20,400,1E-11,3.5,0.01,0.5,0.1,,,,,,,,,,,,,,,,,,,,,,,,,,,,,,,,,,,,,,,,,,,,,,,,,,,,,,,,,,,,,,,,,,,,,,,,,,,,,,,,,
,,,,,229150,001,2025-03-14_20h34.33.419,Utility_discrimination_2024_2cat,2024.2.4,Win32,59.88023952,,,,,,,,3,"[0.5,0.5]","[0.383,0.924]",s,"[0.5,1.1864078393118362]","[0.5,-0.18640783931183624]",334.8906,336.8546,1,s,1,0.4213,,0.212643602,0.552289559,0.339645957,336.8566,336.8566,0,146,146,146,1,0.686407839,0.686407839,shape_difference4,1,,TRUE,,intensity,0.1,0.05,0.7,0.3,0.82,20,400,1E-11,3.5,0.01,0.5,0.1,,,,,,,,,,,,,,,,,,,,,,,,,,,,,,,,,,,,,,,,,,,,,,,,,,,,,,,,,,,,,,,,,,,,,,,,,,,,,,,,,
,,,,,229150,001,2025-03-14_20h34.33.419,Utility_discrimination_2024_2cat,2024.2.4,Win32,59.88023952,,,,,,,,1,"[0.5,0.5]","[0.924,0.383]",s,"[0.6356802995982288,0.8273331509889384]","[0.3643197004017712,0.17266684901106155]",336.8571,338.9051,1,s,1,0.5068,,0.502609188,0.692312639,0.189703451,338.9066,338.9067,0,147,147,147,1,0.354256657,0.354256657,shape_difference3,1,,TRUE,,intensity,0.1,0.05,0.7,0.3,0.82,20,400,1E-11,3.5,0.01,0.5,0.1,,,,,,,,,,,,,,,,,,,,,,,,,,,,,,,,,,,,,,,,,,,,,,,,,,,,,,,,,,,,,,,,,,,,,,,,,,,,,,,,,
,,,,,229150,001,2025-03-14_20h34.33.419,Utility_discrimination_2024_2cat,2024.2.4,Win32,59.88023952,,,,,,,,0,"[0.5,0.5]","[1,0]",s,"[1.040647988403407,0.7240997614269533]","[-0.04064798840340689,0.2759002385730467]",338.9072,340.9713,1,s,1,0.5242,,0.074796582,0.329138291,0.254341709,340.973,340.973,0,148,148,148,1,0.585116871,0.585116871,shape_difference1,1,,TRUE,,intensity,0.1,0.05,0.7,0.3,0.82,20,400,1E-11,3.5,0.01,0.5,0.1,,,,,,,,,,,,,,,,,,,,,,,,,,,,,,,,,,,,,,,,,,,,,,,,,,,,,,,,,,,,,,,,,,,,,,,,,,,,,,,,,
,,,,,229150,001,2025-03-14_20h34.33.419,Utility_discrimination_2024_2cat,2024.2.4,Win32,59.88023952,,,,,,,,2,"[0.5,0.5]","[0.707,0.707]",s,"[0.6817453565746334,0.5]","[0.3182546434253666,0.5]",340.9735,343.2706,0,s,0,0.7672,,0.252783645,0.459908756,0.207125111,343.2727,343.2728,0,149,149,149,1,0.181745357,0.181745357,shape_difference0,1,,TRUE,,intensity,0.1,0.05,0.7,0.3,0.82,20,400,1E-11,3.5,0.01,0.5,0.1,,,,,,,,,,,,,,,,,,,,,,,,,,,,,,,,,,,,,,,,,,,,,,,,,,,,,,,,,,,,,,,,,,,,,,,,,,,,,,,,,
,,,,,229150,001,2025-03-14_20h34.33.419,Utility_discrimination_2024_2cat,2024.2.4,Win32,59.88023952,,,,,,,,3,"[0.5,0.5]","[0.383,0.924]",d,"[0.7564176842931534,0.7564176842931534]","[0.24358231570684657,0.24358231570684657]",343.2736,345.487,1,s,1,0.6773,,0.210830014,0.503142763,0.292312749,345.4894,345.4894,0,150,150,150,1,0.362684136,0.362684136,shape_difference2,1,,TRUE,,intensity,0.1,0.05,0.7,0.3,0.82,20,400,1E-11,3.5,0.01,0.5,0.1,,,,,,,,,,,,,,,,,,,,,,,,,,,,,,,,,,,,,,,,,,,,,,,,,,,,,,,,,,,,,,,,,,,,,,,,,,,,,,,,,
,,,,,229150,001,2025-03-14_20h34.33.419,Utility_discrimination_2024_2cat,2024.2.4,Win32,59.88023952,,,,,,,,4,"[0.5,0.5]","[0,1]",s,"[0.6310654956703876,0.8161997858993164]","[0.3689345043296124,0.1838002141006836]",345.49,347.7761,1,d,1,0.7504,,0.560379876,0.798131681,0.237751805,347.7781,347.7781,0,151,151,151,1,0.34220756,0.34220756,shape_difference3,1,,TRUE,,intensity,0.1,0.05,0.7,0.3,0.82,20,400,1E-11,3.5,0.01,0.5,0.1,,,,,,,,,,,,,,,,,,,,,,,,,,,,,,,,,,,,,,,,,,,,,,,,,,,,,,,,,,,,,,,,,,,,,,,,,,,,,,,,,
,,,,,229150,001,2025-03-14_20h34.33.419,Utility_discrimination_2024_2cat,2024.2.4,Win32,59.88023952,,,,,,,,1,"[0.5,0.5]","[0.924,0.383]",d,"[0.5,1.179632923732787]","[0.5,-0.17963292373278683]",347.779,350.1204,1,s,1,0.8077,,0.501449669,0.688475591,0.187025922,350.1226,350.1226,0,152,152,152,1,0.679632924,0.679632924,shape_difference4,1,,TRUE,,intensity,0.1,0.05,0.7,0.3,0.82,20,400,1E-11,3.5,0.01,0.5,0.1,,,,,,,,,,,,,,,,,,,,,,,,,,,,,,,,,,,,,,,,,,,,,,,,,,,,,,,,,,,,,,,,,,,,,,,,,,,,,,,,,
,,,,,229150,001,2025-03-14_20h34.33.419,Utility_discrimination_2024_2cat,2024.2.4,Win32,59.88023952,,,,,,,,0,"[0.5,0.5]","[1,0]",s,"[1.0357510868012245,0.7220699851134946]","[-0.03575108680122452,0.2779300148865054]",350.1231,352.2543,1,s,1,0.5889,,0.106418783,0.387487897,0.281069115,352.2565,352.2566,0,153,153,153,1,0.579817194,0.579817194,shape_difference1,1,,TRUE,,intensity,0.1,0.05,0.7,0.3,0.82,20,400,1E-11,3.5,0.01,0.5,0.1,,,,,,,,,,,,,,,,,,,,,,,,,,,,,,,,,,,,,,,,,,,,,,,,,,,,,,,,,,,,,,,,,,,,,,,,,,,,,,,,,
,,,,,229150,001,2025-03-14_20h34.33.419,Utility_discrimination_2024_2cat,2024.2.4,Win32,59.88023952,,,,,,,,1,"[0.5,0.5]","[0.924,0.383]",s,"[0.7140318462402832,0.5]","[0.28596815375971685,0.5]",352.257,354.3548,1,s,1,0.551,,0.500253825,0.684291473,0.184037648,354.3563,354.3564,0,154,154,154,1,0.214031846,0.214031846,shape_difference0,1,,TRUE,,intensity,0.1,0.05,0.7,0.3,0.82,20,400,1E-11,3.5,0.01,0.5,0.1,,,,,,,,,,,,,,,,,,,,,,,,,,,,,,,,,,,,,,,,,,,,,,,,,,,,,,,,,,,,,,,,,,,,,,,,,,,,,,,,,
,,,,,229150,001,2025-03-14_20h34.33.419,Utility_discrimination_2024_2cat,2024.2.4,Win32,59.88023952,,,,,,,,3,"[0.5,0.5]","[0.383,0.924]",s,"[1.0316524496716597,0.720371091151781]","[-0.03165244967165959,0.279628908848219]",354.357,356.4035,1,s,1,0.5104,,0.209159972,0.487400399,0.278240427,356.4065,356.4067,0,155,155,155,1,0.575381439,0.575381439,shape_difference1,1,,TRUE,,intensity,0.1,0.05,0.7,0.3,0.82,20,400,1E-11,3.5,0.01,0.5,0.1,,,,,,,,,,,,,,,,,,,,,,,,,,,,,,,,,,,,,,,,,,,,,,,,,,,,,,,,,,,,,,,,,,,,,,,,,,,,,,,,,
,,,,,229150,001,2025-03-14_20h34.33.419,Utility_discrimination_2024_2cat,2024.2.4,Win32,59.88023952,,,,,,,,4,"[0.5,0.5]","[0,1]",s,"[0.6264219239503626,0.804997017572154]","[0.37357807604963744,0.19500298242784597]",356.4072,358.5869,1,d,1,0.6334,,0.550225884,0.792021595,0.241795711,358.5906,358.5907,0,156,156,156,1,0.330083352,0.330083352,shape_difference3,1,,TRUE,,intensity,0.1,0.05,0.7,0.3,0.82,20,400,1E-11,3.5,0.01,0.5,0.1,,,,,,,,,,,,,,,,,,,,,,,,,,,,,,,,,,,,,,,,,,,,,,,,,,,,,,,,,,,,,,,,,,,,,,,,,,,,,,,,,
,,,,,229150,001,2025-03-14_20h34.33.419,Utility_discrimination_2024_2cat,2024.2.4,Win32,59.88023952,,,,,,,,2,"[0.5,0.5]","[0.707,0.707]",d,"[0.5,1.1739758979559456]","[0.5,-0.17397589795594548]",358.5917,360.7704,1,s,1,0.6387,,0.245485924,0.450291437,0.204805513,360.7726,360.7726,0,157,157,157,1,0.673975898,0.673975898,shape_difference4,1,,TRUE,,intensity,0.1,0.05,0.7,0.3,0.82,20,400,1E-11,3.5,0.01,0.5,0.1,,,,,,,,,,,,,,,,,,,,,,,,,,,,,,,,,,,,,,,,,,,,,,,,,,,,,,,,,,,,,,,,,,,,,,,,,,,,,,,,,
,,,,,229150,001,2025-03-14_20h34.33.419,Utility_discrimination_2024_2cat,2024.2.4,Win32,59.88023952,,,,,,,,0,"[0.5,0.5]","[1,0]",s,"[0.7548321563142941,0.7548321563142941]","[0.24516784368570588,0.24516784368570588]",360.7735,362.9535,1,s,1,0.6446,,0.10509104,0.367067825,0.261976785,362.9562,362.9562,0,158,158,158,1,0.360441522,0.360441522,shape_difference2,1,,TRUE,,intensity,0.1,0.05,0.7,0.3,0.82,20,400,1E-11,3.5,0.01,0.5,0.1,,,,,,,,,,,,,,,,,,,,,,,,,,,,,,,,,,,,,,,,,,,,,,,,,,,,,,,,,,,,,,,,,,,,,,,,,,,,,,,,,
,,,,,229150,001,2025-03-14_20h34.33.419,Utility_discrimination_2024_2cat,2024.2.4,Win32,59.88023952,,,,,,,,0,"[0.5,0.5]","[1,0]",s,"[0.6983486019528826,0.5]","[0.3016513980471174,0.5]",362.9566,365.087,1,s,1,0.6061,,0.103888986,0.341669683,0.237780696,365.0893,365.0894,0,159,159,159,1,0.198348602,0.198348602,shape_difference0,1,,TRUE,,intensity,0.1,0.05,0.7,0.3,0.82,20,400,1E-11,3.5,0.01,0.5,0.1,,,,,,,,,,,,,,,,,,,,,,,,,,,,,,,,,,,,,,,,,,,,,,,,,,,,,,,,,,,,,,,,,,,,,,,,,,,,,,,,,
,,,,,229150,001,2025-03-14_20h34.33.419,Utility_discrimination_2024_2cat,2024.2.4,Win32,59.88023952,,,,,,,,4,"[0.5,0.5]","[0,1]",s,"[0.6900639730045143,0.5]","[0.3099360269954857,0.5]",365.0898,367.3372,1,d,1,0.7072,,0.542260377,0.785539909,0.243279532,367.3395,367.3395,0,160,160,160,1,0.190063973,0.190063973,shape_difference0,1,,TRUE,,intensity,0.1,0.05,0.7,0.3,0.82,20,400,1E-11,3.5,0.01,0.5,0.1,,,,,,,,,,,,,,,,,,,,,,,,,,,,,,,,,,,,,,,,,,,,,,,,,,,,,,,,,,,,,,,,,,,,,,,,,,,,,,,,,
,,,,,229150,001,2025-03-14_20h34.33.419,Utility_discrimination_2024_2cat,2024.2.4,Win32,59.88023952,,,,,,,,3,"[0.5,0.5]","[0.383,0.924]",d,"[0.5,1.1691497979713277]","[0.5,-0.16914979797132756]",367.3399,369.4208,1,s,1,0.5339,,0.207787165,0.471334149,0.263546984,369.4227,369.4227,0,161,161,161,1,0.669149798,0.669149798,shape_difference4,1,,TRUE,,intensity,0.1,0.05,0.7,0.3,0.82,20,400,1E-11,3.5,0.01,0.5,0.1,,,,,,,,,,,,,,,,,,,,,,,,,,,,,,,,,,,,,,,,,,,,,,,,,,,,,,,,,,,,,,,,,,,,,,,,,,,,,,,,,
,,,,,229150,001,2025-03-14_20h34.33.419,Utility_discrimination_2024_2cat,2024.2.4,Win32,59.88023952,,,,,,,,2,"[0.5,0.5]","[0.707,0.707]",s,"[0.6213850492899045,0.7928453930649392]","[0.37861495071009554,0.20715460693506083]",369.4231,371.7881,0,s,0,0.8176,,0.239422061,0.438714224,0.199292163,371.7899,371.7899,0,162,162,162,1,0.316932244,0.316932244,shape_difference3,1,,TRUE,,intensity,0.1,0.05,0.7,0.3,0.82,20,400,1E-11,3.5,0.01,0.5,0.1,,,,,,,,,,,,,,,,,,,,,,,,,,,,,,,,,,,,,,,,,,,,,,,,,,,,,,,,,,,,,,,,,,,,,,,,,,,,,,,,,
,,,,,229150,001,2025-03-14_20h34.33.419,Utility_discrimination_2024_2cat,2024.2.4,Win32,59.88023952,,,,,,,,1,"[0.5,0.5]","[0.924,0.383]",d,"[0.7533496529316391,0.7533496529316391]","[0.24665034706836086,0.24665034706836086]",371.7904,374.0201,1,d,1,0.6915,,0.486868556,0.679607604,0.192739049,374.0222,374.0222,0,163,163,163,1,0.358344629,0.358344629,shape_difference2,1,,TRUE,,intensity,0.1,0.05,0.7,0.3,0.82,20,400,1E-11,3.5,0.01,0.5,0.1,,,,,,,,,,,,,,,,,,,,,,,,,,,,,,,,,,,,,,,,,,,,,,,,,,,,,,,,,,,,,,,,,,,,,,,,,,,,,,,,,
,,,,,229150,001,2025-03-14_20h34.33.419,Utility_discrimination_2024_2cat,2024.2.4,Win32,59.88023952,,,,,,,,1,"[0.5,0.5]","[0.924,0.383]",d,"[1.0281819926488907,0.7189325792040315]","[-0.028181992648890763,0.28106742079596847]",374.0231,376.1374,1,d,1,0.5712,,0.473246137,0.674245354,0.200999217,376.1397,376.1397,0,164,164,164,1,0.571625533,0.571625533,shape_difference1,1,,TRUE,,intensity,0.1,0.05,0.7,0.3,0.82,20,400,1E-11,3.5,0.01,0.5,0.1,,,,,,,,,,,,,,,,,,,,,,,,,,,,,,,,,,,,,,,,,,,,,,,,,,,,,,,,,,,,,,,,,,,,,,,,,,,,,,,,,
,,,,,229150,001,2025-03-14_20h34.33.419,Utility_discrimination_2024_2cat,2024.2.4,Win32,59.88023952,,,,,,,,0,"[0.5,0.5]","[1,0]",d,"[1.025202343321542,0.7176975081083882]","[-0.025202343321542142,0.28230249189161183]",376.1401,378.3373,1,d,1,0.678,,0.10275411,0.30916677,0.20641266,378.3391,378.3392,0,165,165,165,1,0.568400804,0.568400804,shape_difference1,1,,TRUE,,intensity,0.1,0.05,0.7,0.3,0.82,20,400,1E-11,3.5,0.01,0.5,0.1,,,,,,,,,,,,,,,,,,,,,,,,,,,,,,,,,,,,,,,,,,,,,,,,,,,,,,,,,,,,,,,,,,,,,,,,,,,,,,,,,
,,,,,229150,001,2025-03-14_20h34.33.419,Utility_discrimination_2024_2cat,2024.2.4,Win32,59.88023952,,,,,,,,3,"[0.5,0.5]","[0.383,0.924]",d,"[0.6834790788776417,0.5]","[0.3165209211223583,0.5]",378.3401,380.8866,1,d,1,1.0404,,0.213113699,0.500755135,0.287641436,380.8892,380.8892,0,166,166,166,1,0.183479079,0.183479079,shape_difference0,1,,TRUE,,intensity,0.1,0.05,0.7,0.3,0.82,20,400,1E-11,3.5,0.01,0.5,0.1,,,,,,,,,,,,,,,,,,,,,,,,,,,,,,,,,,,,,,,,,,,,,,,,,,,,,,,,,,,,,,,,,,,,,,,,,,,,,,,,,
,,,,,229150,001,2025-03-14_20h34.33.419,Utility_discrimination_2024_2cat,2024.2.4,Win32,59.88023952,,,,,,,,4,"[0.5,0.5]","[0,1]",d,"[0.6335664566601086,0.8222334359110715]","[0.3664335433398914,0.1777665640889286]",380.8898,383.4036,1,d,1,0.9685,,0.53593002,0.778410461,0.242480441,383.4055,383.4059,0,167,167,167,1,0.348737485,0.348737485,shape_difference3,1,,TRUE,,intensity,0.1,0.05,0.7,0.3,0.82,20,400,1E-11,3.5,0.01,0.5,0.1,,,,,,,,,,,,,,,,,,,,,,,,,,,,,,,,,,,,,,,,,,,,,,,,,,,,,,,,,,,,,,,,,,,,,,,,,,,,,,,,,
,,,,,229150,001,2025-03-14_20h34.33.419,Utility_discrimination_2024_2cat,2024.2.4,Win32,59.88023952,,,,,,,,2,"[0.5,0.5]","[0.707,0.707]",d,"[0.5,1.1649300667702278]","[0.5,-0.1649300667702278]",383.4065,385.47,1,s,1,0.526,,0.234351889,0.424630676,0.190278787,385.472,385.472,0,168,168,168,1,0.664930067,0.664930067,shape_difference4,1,,TRUE,,intensity,0.1,0.05,0.7,0.3,0.82,20,400,1E-11,3.5,0.01,0.5,0.1,,,,,,,,,,,,,,,,,,,,,,,,,,,,,,,,,,,,,,,,,,,,,,,,,,,,,,,,,,,,,,,,,,,,,,,,,,,,,,,,,
,,,,,229150,001,2025-03-14_20h34.33.419,Utility_discrimination_2024_2cat,2024.2.4,Win32,59.88023952,,,,,,,,0,"[0.5,0.5]","[1,0]",s,"[0.7519235103275916,0.7519235103275916]","[0.24807648967240836,0.24807648967240836]",385.4726,387.4705,1,s,1,0.4544,,0.101639186,0.295307511,0.193668325,387.4727,387.4727,0,169,169,169,1,0.356327454,0.356327454,shape_difference2,1,,TRUE,,intensity,0.1,0.05,0.7,0.3,0.82,20,400,1E-11,3.5,0.01,0.5,0.1,,,,,,,,,,,,,,,,,,,,,,,,,,,,,,,,,,,,,,,,,,,,,,,,,,,,,,,,,,,,,,,,,,,,,,,,,,,,,,,,,
,,,,,229150,001,2025-03-14_20h34.33.419,Utility_discrimination_2024_2cat,2024.2.4,Win32,59.88023952,,,,,,,,4,"[0.5,0.5]","[0,1]",s,"[0.678176531133694,0.5]","[0.321823468866306,0.5]",387.4733,389.5702,1,s,1,0.5582,,0.530839475,0.770309802,0.239470327,389.5722,389.5722,0,170,170,170,1,0.178176531,0.178176531,shape_difference0,1,,TRUE,,intensity,0.1,0.05,0.7,0.3,0.82,20,400,1E-11,3.5,0.01,0.5,0.1,,,,,,,,,,,,,,,,,,,,,,,,,,,,,,,,,,,,,,,,,,,,,,,,,,,,,,,,,,,,,,,,,,,,,,,,,,,,,,,,,
,,,,,229150,001,2025-03-14_20h34.33.419,Utility_discrimination_2024_2cat,2024.2.4,Win32,59.88023952,,,,,,,,3,"[0.5,0.5]","[0.383,0.924]",s,"[0.5,1.1611371423925023]","[0.5,-0.1611371423925022]",389.5726,392.0528,1,d,1,0.9457,,0.211281534,0.4880854,0.276803866,392.0552,392.0552,0,171,171,171,1,0.661137142,0.661137142,shape_difference4,1,,TRUE,,intensity,0.1,0.05,0.7,0.3,0.82,20,400,1E-11,3.5,0.01,0.5,0.1,,,,,,,,,,,,,,,,,,,,,,,,,,,,,,,,,,,,,,,,,,,,,,,,,,,,,,,,,,,,,,,,,,,,,,,,,,,,,,,,,
,,,,,229150,001,2025-03-14_20h34.33.419,Utility_discrimination_2024_2cat,2024.2.4,Win32,59.88023952,,,,,,,,2,"[0.5,0.5]","[0.707,0.707]",d,"[0.6296363444506963,0.8127519119384945]","[0.3703636555493037,0.18724808806150556]",392.0558,394.2532,1,d,1,0.6578,,0.230089452,0.407346335,0.177256883,394.256,394.256,0,172,172,172,1,0.338476095,0.338476095,shape_difference3,1,,TRUE,,intensity,0.1,0.05,0.7,0.3,0.82,20,400,1E-11,3.5,0.01,0.5,0.1,,,,,,,,,,,,,,,,,,,,,,,,,,,,,,,,,,,,,,,,,,,,,,,,,,,,,,,,,,,,,,,,,,,,,,,,,,,,,,,,,
,,,,,229150,001,2025-03-14_20h34.33.419,Utility_discrimination_2024_2cat,2024.2.4,Win32,59.88023952,,,,,,,,1,"[0.5,0.5]","[0.924,0.383]",d,"[0.7505116801940501,0.7505116801940501]","[0.24948831980594993,0.24948831980594993]",394.2565,396.7864,0,s,0,0.9884,,0.462185838,0.667990929,0.205805091,396.7889,396.7889,0,173,173,173,1,0.354330524,0.354330524,shape_difference2,1,,TRUE,,intensity,0.1,0.05,0.7,0.3,0.82,20,400,1E-11,3.5,0.01,0.5,0.1,,,,,,,,,,,,,,,,,,,,,,,,,,,,,,,,,,,,,,,,,,,,,,,,,,,,,,,,,,,,,,,,,,,,,,,,,,,,,,,,,
,,,,,229150,001,2025-03-14_20h34.33.419,Utility_discrimination_2024_2cat,2024.2.4,Win32,59.88023952,,,,,,,,0,"[0.5,0.5]","[1,0]",d,"[1.0226010825304126,0.7166192798800304]","[-0.02260108253041271,0.2833807201199696]",396.7895,398.9703,1,s,1,0.6341,,0.100504254,0.289030352,0.188526098,398.9723,398.9723,0,174,174,174,1,0.565585587,0.565585587,shape_difference1,1,,TRUE,,intensity,0.1,0.05,0.7,0.3,0.82,20,400,1E-11,3.5,0.01,0.5,0.1,,,,,,,,,,,,,,,,,,,,,,,,,,,,,,,,,,,,,,,,,,,,,,,,,,,,,,,,,,,,,,,,,,,,,,,,,,,,,,,,,
,,,,,229150,001,2025-03-14_20h34.33.419,Utility_discrimination_2024_2cat,2024.2.4,Win32,59.88023952,,,,,,,,3,"[0.5,0.5]","[0.383,0.924]",s,"[0.6738461164449305,0.5]","[0.3261538835550695,0.5]",398.9727,401.237,1,d,1,0.7184,,0.209825571,0.473782139,0.263956568,401.2388,401.2388,0,175,175,175,1,0.173846116,0.173846116,shape_difference0,1,,TRUE,,intensity,0.1,0.05,0.7,0.3,0.82,20,400,1E-11,3.5,0.01,0.5,0.1,,,,,,,,,,,,,,,,,,,,,,,,,,,,,,,,,,,,,,,,,,,,,,,,,,,,,,,,,,,,,,,,,,,,,,,,,,,,,,,,,
,,,,,229150,001,2025-03-14_20h34.33.419,Utility_discrimination_2024_2cat,2024.2.4,Win32,59.88023952,,,,,,,,2,"[0.5,0.5]","[0.707,0.707]",d,"[0.6254291214722162,0.8026018491914563]","[0.3745708785277838,0.19739815080854373]",401.2393,403.8869,0,d,0,1.1058,,0.294828701,0.453756182,0.158927481,403.8885,403.8885,0,176,176,176,1,0.327491179,0.327491179,shape_difference3,1,,TRUE,,intensity,0.1,0.05,0.7,0.3,0.82,20,400,1E-11,3.5,0.01,0.5,0.1,,,,,,,,,,,,,,,,,,,,,,,,,,,,,,,,,,,,,,,,,,,,,,,,,,,,,,,,,,,,,,,,,,,,,,,,,,,,,,,,,
,,,,,229150,001,2025-03-14_20h34.33.419,Utility_discrimination_2024_2cat,2024.2.4,Win32,59.88023952,,,,,,,,4,"[0.5,0.5]","[0,1]",s,"[0.7570987726146879,0.7570987726146879]","[0.24290122738531206,0.24290122738531206]",403.889,406.3539,0,d,0,0.9184,,0.526702333,0.76084603,0.234143697,406.3563,406.3563,0,177,177,177,1,0.363647486,0.363647486,shape_difference2,1,,TRUE,,intensity,0.1,0.05,0.7,0.3,0.82,20,400,1E-11,3.5,0.01,0.5,0.1,,,,,,,,,,,,,,,,,,,,,,,,,,,,,,,,,,,,,,,,,,,,,,,,,,,,,,,,,,,,,,,,,,,,,,,,,,,,,,,,,
,,,,,229150,001,2025-03-14_20h34.33.419,Utility_discrimination_2024_2cat,2024.2.4,Win32,59.88023952,,,,,,,,1,"[0.5,0.5]","[0.924,0.383]",s,"[0.5,1.1576237523084432]","[0.5,-0.15762375230844305]",406.3568,408.5862,1,d,1,0.6912,,0.453128132,0.660583733,0.207455602,408.5884,408.5885,0,178,178,178,1,0.657623752,0.657623752,shape_difference4,1,,TRUE,,intensity,0.1,0.05,0.7,0.3,0.82,20,400,1E-11,3.5,0.01,0.5,0.1,,,,,,,,,,,,,,,,,,,,,,,,,,,,,,,,,,,,,,,,,,,,,,,,,,,,,,,,,,,,,,,,,,,,,,,,,,,,,,,,,
,,,,,229150,001,2025-03-14_20h34.33.419,Utility_discrimination_2024_2cat,2024.2.4,Win32,59.88023952,,,,,,,,2,"[0.5,0.5]","[0.707,0.707]",d,"[1.0202848098414368,0.7156591798368725]","[-0.020284809841436657,0.28434082016312745]",408.589,410.5361,1,s,1,0.4078,,0.304345924,0.475460518,0.171114594,410.5385,410.5385,0,179,179,179,1,0.563078799,0.563078799,shape_difference1,1,,TRUE,,intensity,0.1,0.05,0.7,0.3,0.82,20,400,1E-11,3.5,0.01,0.5,0.1,,,,,,,,,,,,,,,,,,,,,,,,,,,,,,,,,,,,,,,,,,,,,,,,,,,,,,,,,,,,,,,,,,,,,,,,,,,,,,,,,
,,,,,229150,001,2025-03-14_20h34.33.419,Utility_discrimination_2024_2cat,2024.2.4,Win32,59.88023952,,,,,,,,0,"[0.5,0.5]","[1,0]",s,"[0.762375318012364,0.762375318012364]","[0.23762468198763592,0.23762468198763592]",410.5389,412.6199,1,d,1,0.5411,,0.090543338,0.28241711,0.191873772,412.6226,412.6226,0,180,180,180,1,0.371110775,0.371110775,shape_difference2,1,,TRUE,,intensity,0.1,0.05,0.7,0.3,0.82,20,400,1E-11,3.5,0.01,0.5,0.1,,,,,,,,,,,,,,,,,,,,,,,,,,,,,,,,,,,,,,,,,,,,,,,,,,,,,,,,,,,,,,,,,,,,,,,,,,,,,,,,,
,,,,,229150,001,2025-03-14_20h34.33.419,Utility_discrimination_2024_2cat,2024.2.4,Win32,59.88023952,,,,,,,,4,"[0.5,0.5]","[0,1]",d,"[0.6702539173035647,0.5]","[0.3297460826964354,0.5]",412.6233,414.8033,1,s,1,0.6356,,0.523308205,0.749531605,0.2262234,414.8051,414.8051,0,181,181,181,1,0.170253917,0.170253917,shape_difference0,1,,TRUE,,intensity,0.1,0.05,0.7,0.3,0.82,20,400,1E-11,3.5,0.01,0.5,0.1,,,,,,,,,,,,,,,,,,,,,,,,,,,,,,,,,,,,,,,,,,,,,,,,,,,,,,,,,,,,,,,,,,,,,,,,,,,,,,,,,
,,,,,229150,001,2025-03-14_20h34.33.419,Utility_discrimination_2024_2cat,2024.2.4,Win32,59.88023952,,,,,,,,3,"[0.5,0.5]","[0.383,0.924]",s,"[0.5,1.1542654963426515]","[0.5,-0.1542654963426514]",414.8055,416.9863,1,s,1,0.6343,,0.215220186,0.499210052,0.283989866,416.9887,416.9887,0,182,182,182,1,0.654265496,0.654265496,shape_difference4,1,,TRUE,,intensity,0.1,0.05,0.7,0.3,0.82,20,400,1E-11,3.5,0.01,0.5,0.1,,,,,,,,,,,,,,,,,,,,,,,,,,,,,,,,,,,,,,,,,,,,,,,,,,,,,,,,,,,,,,,,,,,,,,,,,,,,,,,,,
,,,,,229150,001,2025-03-14_20h34.33.419,Utility_discrimination_2024_2cat,2024.2.4,Win32,59.88023952,,,,,,,,1,"[0.5,0.5]","[0.924,0.383]",s,"[0.6354819456602128,0.8268546156397822]","[0.36451805433978723,0.1731453843602178]",416.9899,419.3524,1,d,1,0.8229,,0.445652182,0.651701411,0.206049229,419.3549,419.3549,0,183,183,183,1,0.353738762,0.353738762,shape_difference3,1,,TRUE,,intensity,0.1,0.05,0.7,0.3,0.82,20,400,1E-11,3.5,0.01,0.5,0.1,,,,,,,,,,,,,,,,,,,,,,,,,,,,,,,,,,,,,,,,,,,,,,,,,,,,,,,,,,,,,,,,,,,,,,,,,,,,,,,,,
,,,,,229150,001,2025-03-14_20h34.33.419,Utility_discrimination_2024_2cat,2024.2.4,Win32,59.88023952,,,,,,,,3,"[0.5,0.5]","[0.383,0.924]",d,"[1.0181745442418713,0.7147844701781783]","[-0.01817454424187115,0.2852155298218218]",419.3554,421.3866,1,s,1,0.4896,,0.213327267,0.48515416,0.271826893,421.3893,421.3893,0,184,184,184,1,0.560794961,0.560794961,shape_difference1,1,,TRUE,,intensity,0.1,0.05,0.7,0.3,0.82,20,400,1E-11,3.5,0.01,0.5,0.1,,,,,,,,,,,,,,,,,,,,,,,,,,,,,,,,,,,,,,,,,,,,,,,,,,,,,,,,,,,,,,,,,,,,,,,,,,,,,,,,,
,,,,,229150,001,2025-03-14_20h34.33.419,Utility_discrimination_2024_2cat,2024.2.4,Win32,59.88023952,,,,,,,,0,"[0.5,0.5]","[1,0]",s,"[0.6322031385692057,0.8189443865220524]","[0.3677968614307943,0.18105561347794763]",421.3898,423.9698,0,s,0,1.0442,,0.076525367,0.275212049,0.198686682,423.972,423.972,0,185,185,185,1,0.345177907,0.345177907,shape_difference3,1,,TRUE,,intensity,0.1,0.05,0.7,0.3,0.82,20,400,1E-11,3.5,0.01,0.5,0.1,,,,,,,,,,,,,,,,,,,,,,,,,,,,,,,,,,,,,,,,,,,,,,,,,,,,,,,,,,,,,,,,,,,,,,,,,,,,,,,,,
,,,,,229150,001,2025-03-14_20h34.33.419,Utility_discrimination_2024_2cat,2024.2.4,Win32,59.88023952,,,,,,,,1,"[0.5,0.5]","[0.924,0.383]",d,"[0.6672207422617931,0.5]","[0.332779257738207,0.5]",423.9725,426.6866,1,s,1,1.1677,,0.439438145,0.640940398,0.201502253,426.6887,426.6887,0,186,186,186,1,0.167220742,0.167220742,shape_difference0,1,,TRUE,,intensity,0.1,0.05,0.7,0.3,0.82,20,400,1E-11,3.5,0.01,0.5,0.1,,,,,,,,,,,,,,,,,,,,,,,,,,,,,,,,,,,,,,,,,,,,,,,,,,,,,,,,,,,,,,,,,,,,,,,,,,,,,,,,,
,,,,,229150,001,2025-03-14_20h34.33.419,Utility_discrimination_2024_2cat,2024.2.4,Win32,59.88023952,,,,,,,,4,"[0.5,0.5]","[0,1]",s,"[1.0162021052241892,0.7139668899360005]","[-0.01620210522418919,0.28603311006399945]",426.6892,428.8195,1,d,1,0.5943,,0.520500412,0.735747714,0.215247302,428.8214,428.8214,0,187,187,187,1,0.558660287,0.558660287,shape_difference1,1,,TRUE,,intensity,0.1,0.05,0.7,0.3,0.82,20,400,1E-11,3.5,0.01,0.5,0.1,,,,,,,,,,,,,,,,,,,,,,,,,,,,,,,,,,,,,,,,,,,,,,,,,,,,,,,,,,,,,,,,,,,,,,,,,,,,,,,,,
,,,,,229150,001,2025-03-14_20h34.33.419,Utility_discrimination_2024_2cat,2024.2.4,Win32,59.88023952,,,,,,,,2,"[0.5,0.5]","[0.707,0.707]",d,"[0.5,1.1509537310475366]","[0.5,-0.15095373104753662]",428.822,431.5195,0,d,0,1.1522,,0.30388937,0.46979585,0.165906481,431.5215,431.5215,0,188,188,188,1,0.650953731,0.650953731,shape_difference4,1,,TRUE,,intensity,0.1,0.05,0.7,0.3,0.82,20,400,1E-11,3.5,0.01,0.5,0.1,,,,,,,,,,,,,,,,,,,,,,,,,,,,,,,,,,,,,,,,,,,,,,,,,,,,,,,,,,,,,,,,,,,,,,,,,,,,,,,,,
,,,,,229150,001,2025-03-14_20h34.33.419,Utility_discrimination_2024_2cat,2024.2.4,Win32,59.88023952,,,,,,,,0,"[0.5,0.5]","[1,0]",s,"[0.7607276371615004,0.7607276371615004]","[0.23927236283849967,0.23927236283849967]",431.5219,433.8357,0,s,0,0.7686,,0.065154725,0.267129112,0.201974387,433.8381,433.8381,0,189,189,189,1,0.368780251,0.368780251,shape_difference2,1,,TRUE,,intensity,0.1,0.05,0.7,0.3,0.82,20,400,1E-11,3.5,0.01,0.5,0.1,,,,,,,,,,,,,,,,,,,,,,,,,,,,,,,,,,,,,,,,,,,,,,,,,,,,,,,,,,,,,,,,,,,,,,,,,,,,,,,,,
,,,,,229150,001,2025-03-14_20h34.33.419,Utility_discrimination_2024_2cat,2024.2.4,Win32,59.88023952,,,,,,,,1,"[0.5,0.5]","[0.924,0.383]",d,"[0.6646069016975673,0.5]","[0.3353930983024327,0.5]",433.8387,436.5866,1,s,1,1.2013,,0.434240372,0.627790388,0.193550016,436.5885,436.5885,0,190,190,190,1,0.164606902,0.164606902,shape_difference0,1,,TRUE,,intensity,0.1,0.05,0.7,0.3,0.82,20,400,1E-11,3.5,0.01,0.5,0.1,,,,,,,,,,,,,,,,,,,,,,,,,,,,,,,,,,,,,,,,,,,,,,,,,,,,,,,,,,,,,,,,,,,,,,,,,,,,,,,,,
,,,,,229150,001,2025-03-14_20h34.33.419,Utility_discrimination_2024_2cat,2024.2.4,Win32,59.88023952,,,,,,,,4,"[0.5,0.5]","[0,1]",s,"[1.0143072142938108,0.7131814535438632]","[-0.014307214293810877,0.28681854645613686]",436.5893,438.6698,1,d,1,0.5364,,0.562572422,0.772768062,0.21019564,438.6716,438.6717,0,191,191,191,1,0.556609539,0.556609539,shape_difference1,1,,TRUE,,intensity,0.1,0.05,0.7,0.3,0.82,20,400,1E-11,3.5,0.01,0.5,0.1,,,,,,,,,,,,,,,,,,,,,,,,,,,,,,,,,,,,,,,,,,,,,,,,,,,,,,,,,,,,,,,,,,,,,,,,,,,,,,,,,
