Consent.started,Consent.stopped,key_resp.keys,key_resp.rt,key_resp.duration,participant,session,date,expName,psychopyVersion,OS,frameRate,SetupExperiment.started,SetupExperiment.stopped,DiscrimInstructions_Pre.started,DiscrimInstructions_Pre.stopped,KeyboardResponse.keys,KeyboardResponse.rt,KeyboardResponse.duration,feature_index,feature_center,feature_vector,correct_answer,coord1,coord2,DiscriminationTrial.started,DiscriminationTrial.stopped,PreTest.response,Resp_s_or_d.keys,Resp_s_or_d.corr,Resp_s_or_d.rt,Resp_s_or_d.duration,PreTest.CI_lower,PreTest.CI_upper,PreTest.CI_width,CrashPretest_2.started,CrashPretest_2.stopped,PreTest.thisRepN,PreTest.thisTrialN,PreTest.thisN,PreTest.thisIndex,PreTest.ran,PreTest.intensity,intensity,PreTest.label,PreTest.nReps,PreTest.method,PreTest.autoLog,PreTest.seed,PreTest.varName,PreTest.startVal,PreTest.minVal,PreTest.maxVal,PreTest.startValSd,PreTest.pThreshold,PreTest.nTrials,PreTest.maxTrials,PreTest.stopInterval,PreTest.beta,PreTest.delta,PreTest.gamma,PreTest.grain,WelcomeToCategorizationTask.started,WelcomeToCategorizationTask.stopped,PressAnyKey3.keys,PressAnyKey3.rt,PressAnyKey3.duration,shape_coordinates,category_center,category_sigma,subspace_center,subspace_vector1,subspace_vector2,CategorizationTrial.started,CategorizationTrial.stopped,Respond_1or2.keys,Respond_1or2.rt,Respond_1or2.duration,Feedback.started,Feedback.stopped,xcoord,ycoord,shape_coord,numeric_response_minus1,correctness,truecategory,mixture_index,respAifA,respBifA,respAifB,respBifB,trial_number,D,muAx,muAy,muBx,muBy,sigmaA,sigmaB,priorA,priorB,TrialLoop.thisRepN,TrialLoop.thisTrialN,TrialLoop.thisN,TrialLoop.thisIndex,TrialLoop.ran,DiscriminationInstructions_Post.started,DiscriminationInstructions_Post.stopped,key_resp_2.keys,key_resp_2.rt,key_resp_2.duration,PostTest.response,PostTest.CI_lower,PostTest.CI_upper,PostTest.CI_width,CrashPosttest.started,CrashPosttest.stopped,PostTest.thisRepN,PostTest.thisTrialN,PostTest.thisN,PostTest.thisIndex,PostTest.ran,PostTest.intensity,PostTest.label,PostTest.nReps,PostTest.method,PostTest.autoLog,PostTest.seed,PostTest.varName,PostTest.startVal,PostTest.minVal,PostTest.maxVal,PostTest.startValSd,PostTest.pThreshold,PostTest.nTrials,PostTest.maxTrials,PostTest.stopInterval,PostTest.beta,PostTest.delta,PostTest.gamma,PostTest.grain,Thanks.started,Thanks.stopped
0.001,16.461,y,16.367,,249109,001,2025-03-17_10h37.42.839,Utility_discrimination_2024_2cat,2024.2.4,MacIntel,90.90909091,,,,,,,,,,,,,,,,,,,,,,,,,,,,,,,,,,,,,,,,,,,,,,,,,,,,,,,,,,,,,,,,,,,,,,,,,,,,,,,,,,,,,,,,,,,,,,,,,,,,,,,,,,,,,,,,,,,,,,,,,,,,,,,,,,,
,,,,,249109,001,2025-03-17_10h37.42.839,Utility_discrimination_2024_2cat,2024.2.4,MacIntel,90.90909091,16.462,16.463,,,,,,,,,,,,,,,,,,,,,,,,,,,,,,,,,,,,,,,,,,,,,,,,,,,,,,,,,,,,,,,,,,,,,,,,,,,,,,,,,,,,,,,,,,,,,,,,,,,,,,,,,,,,,,,,,,,,,,,,,,,,,,,,,
,,,,,249109,001,2025-03-17_10h37.42.839,Utility_discrimination_2024_2cat,2024.2.4,MacIntel,90.90909091,,,16.463,30.226,space,13.692,,,,,,,,,,,,,,,,,,,,,,,,,,,,,,,,,,,,,,,,,,,,,,,,,,,,,,,,,,,,,,,,,,,,,,,,,,,,,,,,,,,,,,,,,,,,,,,,,,,,,,,,,,,,,,,,,,,,,,,,,,,,,
,,,,,249109,001,2025-03-17_10h37.42.839,Utility_discrimination_2024_2cat,2024.2.4,MacIntel,90.90909091,,,,,,,,0,"[0.5,0.5]","[1,0]",,"[0.6185239449756466,0.5]","[0.3814760550243534,0.5]",30.326,34.008,0,s,0,2.159,,-0.447967632,0.547967632,0.995935263,34.012,34.012,0,0,0,0,1,0.118523945,0.118523945,shape_difference1,1,,TRUE,,intensity,0.1,0.05,0.7,0.3,0.82,20,400,1E-11,3.5,0.01,0.5,0.1,,,,,,,,,,,,,,,,,,,,,,,,,,,,,,,,,,,,,,,,,,,,,,,,,,,,,,,,,,,,,,,,,,,,,,,,,,,,,,,,,
,,,,,249109,001,2025-03-17_10h37.42.839,Utility_discrimination_2024_2cat,2024.2.4,MacIntel,90.90909091,,,,,,,,2,"[0.5,0.5]","[0.707,0.707]",d,"[0.6185239449756466,0.5]","[0.3814760550243534,0.5]",34.014,36.841,1,d,1,1.306,,-0.447967632,0.547967632,0.995935263,36.843,36.843,0,1,1,1,1,0.118523945,0.118523945,shape_difference0,1,,TRUE,,intensity,0.1,0.05,0.7,0.3,0.82,20,400,1E-11,3.5,0.01,0.5,0.1,,,,,,,,,,,,,,,,,,,,,,,,,,,,,,,,,,,,,,,,,,,,,,,,,,,,,,,,,,,,,,,,,,,,,,,,,,,,,,,,,
,,,,,249109,001,2025-03-17_10h37.42.839,Utility_discrimination_2024_2cat,2024.2.4,MacIntel,90.90909091,,,,,,,,4,"[0.5,0.5]","[0,1]",d,"[0.5837964290977822,0.5837964290977822]","[0.4162035709022178,0.4162035709022178]",36.844,39.288,1,s,1,0.92,,-0.447967632,0.547967632,0.995935263,39.289,39.289,0,2,2,2,1,0.118523945,0.118523945,shape_difference2,1,,TRUE,,intensity,0.1,0.05,0.7,0.3,0.82,20,400,1E-11,3.5,0.01,0.5,0.1,,,,,,,,,,,,,,,,,,,,,,,,,,,,,,,,,,,,,,,,,,,,,,,,,,,,,,,,,,,,,,,,,,,,,,,,,,,,,,,,,
,,,,,249109,001,2025-03-17_10h37.42.839,Utility_discrimination_2024_2cat,2024.2.4,MacIntel,90.90909091,,,,,,,,3,"[0.5,0.5]","[0.383,0.924]",s,"[0.5,0.6185239449756466]","[0.5,0.3814760550243534]",39.29,42.031,0,s,0,1.213,,-0.447967632,0.547967632,0.995935263,42.033,42.033,0,3,3,3,1,0.118523945,0.118523945,shape_difference4,1,,TRUE,,intensity,0.1,0.05,0.7,0.3,0.82,20,400,1E-11,3.5,0.01,0.5,0.1,,,,,,,,,,,,,,,,,,,,,,,,,,,,,,,,,,,,,,,,,,,,,,,,,,,,,,,,,,,,,,,,,,,,,,,,,,,,,,,,,
,,,,,249109,001,2025-03-17_10h37.42.839,Utility_discrimination_2024_2cat,2024.2.4,MacIntel,90.90909091,,,,,,,,0,"[0.5,0.5]","[1,0]",d,"[0.5453946709256726,0.6095161251574974]","[0.4546053290743273,0.3904838748425025]",42.034,44.998,1,d,1,1.435,,-0.479157219,0.478510979,0.957668197,45,45,0,4,4,4,1,0.118523945,0.118523945,shape_difference3,1,,TRUE,,intensity,0.1,0.05,0.7,0.3,0.82,20,400,1E-11,3.5,0.01,0.5,0.1,,,,,,,,,,,,,,,,,,,,,,,,,,,,,,,,,,,,,,,,,,,,,,,,,,,,,,,,,,,,,,,,,,,,,,,,,,,,,,,,,
,,,,,249109,001,2025-03-17_10h37.42.839,Utility_discrimination_2024_2cat,2024.2.4,MacIntel,90.90909091,,,,,,,,3,"[0.5,0.5]","[0.383,0.924]",d,"[0.5370015867235566,0.5]","[0.4629984132764434,0.5]",45.001,48.177,0,s,0,1.643,,-0.479157219,0.478510979,0.957668197,48.179,48.18,0,5,5,5,1,0.037001587,0.037001587,shape_difference0,1,,TRUE,,intensity,0.1,0.05,0.7,0.3,0.82,20,400,1E-11,3.5,0.01,0.5,0.1,,,,,,,,,,,,,,,,,,,,,,,,,,,,,,,,,,,,,,,,,,,,,,,,,,,,,,,,,,,,,,,,,,,,,,,,,,,,,,,,,
,,,,,249109,001,2025-03-17_10h37.42.839,Utility_discrimination_2024_2cat,2024.2.4,MacIntel,90.90909091,,,,,,,,4,"[0.5,0.5]","[0,1]",d,"[0.5141716077151222,0.5341894661325662]","[0.48582839228487784,0.46581053386743376]",48.181,51.127,1,s,1,1.424,,0.008797352,0.664308158,0.655510806,51.129,51.129,0,6,6,6,1,0.037001587,0.037001587,shape_difference3,1,,TRUE,,intensity,0.1,0.05,0.7,0.3,0.82,20,400,1E-11,3.5,0.01,0.5,0.1,,,,,,,,,,,,,,,,,,,,,,,,,,,,,,,,,,,,,,,,,,,,,,,,,,,,,,,,,,,,,,,,,,,,,,,,,,,,,,,,,
,,,,,249109,001,2025-03-17_10h37.42.839,Utility_discrimination_2024_2cat,2024.2.4,MacIntel,90.90909091,,,,,,,,1,"[0.5,0.5]","[0.924,0.383]",s,"[0.5,0.8247185585179694]","[0.5,0.17528144148203062]",51.131,54.681,0,d,0,2.028,,0.008797352,0.664308158,0.655510806,54.686,54.686,0,7,7,7,1,0.324718559,0.324718559,shape_difference4,1,,TRUE,,intensity,0.1,0.05,0.7,0.3,0.82,20,400,1E-11,3.5,0.01,0.5,0.1,,,,,,,,,,,,,,,,,,,,,,,,,,,,,,,,,,,,,,,,,,,,,,,,,,,,,,,,,,,,,,,,,,,,,,,,,,,,,,,,,
,,,,,249109,001,2025-03-17_10h37.42.839,Utility_discrimination_2024_2cat,2024.2.4,MacIntel,90.90909091,,,,,,,,2,"[0.5,0.5]","[0.707,0.707]",s,"[0.8000399480706037,0.6243672079123823]","[0.19996005192939625,0.37563279208761774]",54.687,57.222,1,d,1,1.002,,-0.479157219,0.478510979,0.957668197,57.226,57.226,0,8,8,8,1,0.324718559,0.324718559,shape_difference1,1,,TRUE,,intensity,0.1,0.05,0.7,0.3,0.82,20,400,1E-11,3.5,0.01,0.5,0.1,,,,,,,,,,,,,,,,,,,,,,,,,,,,,,,,,,,,,,,,,,,,,,,,,,,,,,,,,,,,,,,,,,,,,,,,,,,,,,,,,
,,,,,249109,001,2025-03-17_10h37.42.839,Utility_discrimination_2024_2cat,2024.2.4,MacIntel,90.90909091,,,,,,,,4,"[0.5,0.5]","[0,1]",d,"[0.5261601218135545,0.5261601218135545]","[0.4738398781864455,0.4738398781864455]",57.227,59.819,1,s,1,1.07,,0.200901354,0.758241115,0.557339761,59.822,59.822,0,9,9,9,1,0.037001587,0.037001587,shape_difference2,1,,TRUE,,intensity,0.1,0.05,0.7,0.3,0.82,20,400,1E-11,3.5,0.01,0.5,0.1,,,,,,,,,,,,,,,,,,,,,,,,,,,,,,,,,,,,,,,,,,,,,,,,,,,,,,,,,,,,,,,,,,,,,,,,,,,,,,,,,
,,,,,249109,001,2025-03-17_10h37.42.839,Utility_discrimination_2024_2cat,2024.2.4,MacIntel,90.90909091,,,,,,,,0,"[0.5,0.5]","[1,0]",s,"[0.5,0.9604328418247562]","[0.5,0.03956715817524381]",59.824,62.544,0,d,0,1.202,,-0.090065158,0.591798206,0.681863364,62.545,62.545,0,10,10,10,1,0.460432842,0.460432842,shape_difference4,1,,TRUE,,intensity,0.1,0.05,0.7,0.3,0.82,20,400,1E-11,3.5,0.01,0.5,0.1,,,,,,,,,,,,,,,,,,,,,,,,,,,,,,,,,,,,,,,,,,,,,,,,,,,,,,,,,,,,,,,,,,,,,,,,,,,,,,,,,
,,,,,249109,001,2025-03-17_10h37.42.839,Utility_discrimination_2024_2cat,2024.2.4,MacIntel,90.90909091,,,,,,,,3,"[0.5,0.5]","[0.383,0.924]",s,"[0.7256621725789216,0.5]","[0.2743378274210784,0.5]",62.546,64.94,1,d,1,0.864,,-0.510435314,0.404710629,0.915145943,64.942,64.942,0,11,11,11,1,0.225662173,0.225662173,shape_difference0,1,,TRUE,,intensity,0.1,0.05,0.7,0.3,0.82,20,400,1E-11,3.5,0.01,0.5,0.1,,,,,,,,,,,,,,,,,,,,,,,,,,,,,,,,,,,,,,,,,,,,,,,,,,,,,,,,,,,,,,,,,,,,,,,,,,,,,,,,,
,,,,,249109,001,2025-03-17_10h37.42.839,Utility_discrimination_2024_2cat,2024.2.4,MacIntel,90.90909091,,,,,,,,2,"[0.5,0.5]","[0.707,0.707]",d,"[0.48572626012287257,0.46556413669330093]","[0.5142737398771274,0.5344358633066991]",64.942,68.001,1,s,1,1.532,,-0.510435314,0.404710629,0.915145943,68.003,68.003,0,12,12,12,1,-0.03726825,-0.03726825,shape_difference3,1,,TRUE,,intensity,0.1,0.05,0.7,0.3,0.82,20,400,1E-11,3.5,0.01,0.5,0.1,,,,,,,,,,,,,,,,,,,,,,,,,,,,,,,,,,,,,,,,,,,,,,,,,,,,,,,,,,,,,,,,,,,,,,,,,,,,,,,,,
,,,,,249109,001,2025-03-17_10h37.42.839,Utility_discrimination_2024_2cat,2024.2.4,MacIntel,90.90909091,,,,,,,,1,"[0.5,0.5]","[0.924,0.383]",s,"[0.47365134701532874,0.47365134701532874]","[0.5263486529846713,0.5263486529846713]",68.003,70.768,0,s,0,1.235,,-0.003741292,0.604569979,0.608311271,70.77,70.77,0,13,13,13,1,-0.03726825,-0.03726825,shape_difference2,1,,TRUE,,intensity,0.1,0.05,0.7,0.3,0.82,20,400,1E-11,3.5,0.01,0.5,0.1,,,,,,,,,,,,,,,,,,,,,,,,,,,,,,,,,,,,,,,,,,,,,,,,,,,,,,,,,,,,,,,,,,,,,,,,,,,,,,,,,
,,,,,249109,001,2025-03-17_10h37.42.839,Utility_discrimination_2024_2cat,2024.2.4,MacIntel,90.90909091,,,,,,,,2,"[0.5,0.5]","[0.707,0.707]",d,"[0.7539312280981512,0.6052550436813765]","[0.2460687719018489,0.3947449563186235]",70.771,73.468,1,s,1,1.168,,-0.118157943,0.566731222,0.684889165,73.472,73.472,0,14,14,14,1,0.274817346,0.274817346,shape_difference1,1,,TRUE,,intensity,0.1,0.05,0.7,0.3,0.82,20,400,1E-11,3.5,0.01,0.5,0.1,,,,,,,,,,,,,,,,,,,,,,,,,,,,,,,,,,,,,,,,,,,,,,,,,,,,,,,,,,,,,,,,,,,,,,,,,,,,,,,,,
,,,,,249109,001,2025-03-17_10h37.42.839,Utility_discrimination_2024_2cat,2024.2.4,MacIntel,90.90909091,,,,,,,,0,"[0.5,0.5]","[1,0]",s,"[0.630420181502283,0.630420181502283]","[0.369579818497717,0.369579818497717]",73.475,75.868,1,d,1,0.876,,-0.09936101,0.537490534,0.636851544,75.872,75.872,0,15,15,15,1,0.184469847,0.184469847,shape_difference2,1,,TRUE,,intensity,0.1,0.05,0.7,0.3,0.82,20,400,1E-11,3.5,0.01,0.5,0.1,,,,,,,,,,,,,,,,,,,,,,,,,,,,,,,,,,,,,,,,,,,,,,,,,,,,,,,,,,,,,,,,,,,,,,,,,,,,,,,,,
,,,,,249109,001,2025-03-17_10h37.42.839,Utility_discrimination_2024_2cat,2024.2.4,MacIntel,90.90909091,,,,,,,,4,"[0.5,0.5]","[0,1]",d,"[0.6717231163357056,0.5]","[0.3282768836642944,0.5]",75.874,78.303,1,d,1,0.9,,0.356937718,0.867366385,0.510428667,78.305,78.305,0,16,16,16,1,0.171723116,0.171723116,shape_difference0,1,,TRUE,,intensity,0.1,0.05,0.7,0.3,0.82,20,400,1E-11,3.5,0.01,0.5,0.1,,,,,,,,,,,,,,,,,,,,,,,,,,,,,,,,,,,,,,,,,,,,,,,,,,,,,,,,,,,,,,,,,,,,,,,,,,,,,,,,,
,,,,,249109,001,2025-03-17_10h37.42.839,Utility_discrimination_2024_2cat,2024.2.4,MacIntel,90.90909091,,,,,,,,3,"[0.5,0.5]","[0.383,0.924]",d,"[0.5,1.1002865038315122]","[0.5,-0.10028650383151216]",78.305,80.87,0,d,0,1.037,,-0.540713527,0.322166073,0.862879599,80.872,80.872,0,17,17,17,1,0.600286504,0.600286504,shape_difference4,1,,TRUE,,intensity,0.1,0.05,0.7,0.3,0.82,20,400,1E-11,3.5,0.01,0.5,0.1,,,,,,,,,,,,,,,,,,,,,,,,,,,,,,,,,,,,,,,,,,,,,,,,,,,,,,,,,,,,,,,,,,,,,,,,,,,,,,,,,
,,,,,249109,001,2025-03-17_10h37.42.839,Utility_discrimination_2024_2cat,2024.2.4,MacIntel,90.90909091,,,,,,,,1,"[0.5,0.5]","[0.924,0.383]",s,"[0.4630011812750919,0.410739142292911]","[0.5369988187249081,0.589260857707089]",80.873,83.39,0,d,0,1.001,,-0.026700702,0.552121039,0.578821741,83.392,83.392,0,18,18,18,1,-0.09660266,-0.09660266,shape_difference3,1,,TRUE,,intensity,0.1,0.05,0.7,0.3,0.82,20,400,1E-11,3.5,0.01,0.5,0.1,,,,,,,,,,,,,,,,,,,,,,,,,,,,,,,,,,,,,,,,,,,,,,,,,,,,,,,,,,,,,,,,,,,,,,,,,,,,,,,,,
,,,,,249109,001,2025-03-17_10h37.42.839,Utility_discrimination_2024_2cat,2024.2.4,MacIntel,90.90909091,,,,,,,,3,"[0.5,0.5]","[0.383,0.924]",s,"[0.7182179619957938,0.5904518175805076]","[0.2817820380042062,0.4095481824194924]",83.393,85.908,1,d,1,0.986,,-0.198081498,0.472058333,0.670139831,85.91,85.91,0,19,19,19,1,0.236166626,0.236166626,shape_difference1,1,,TRUE,,intensity,0.1,0.05,0.7,0.3,0.82,20,400,1E-11,3.5,0.01,0.5,0.1,,,,,,,,,,,,,,,,,,,,,,,,,,,,,,,,,,,,,,,,,,,,,,,,,,,,,,,,,,,,,,,,,,,,,,,,,,,,,,,,,
,,,,,249109,001,2025-03-17_10h37.42.839,Utility_discrimination_2024_2cat,2024.2.4,MacIntel,90.90909091,,,,,,,,1,"[0.5,0.5]","[0.924,0.383]",d,"[0.5265428423850549,0.5640354735347015]","[0.47345715761494517,0.4359645264652985]",85.911,88.709,0,s,0,1.281,,-0.050981617,0.494068035,0.545049652,88.712,88.712,0,20,20,20,1,0.069302461,0.069302461,shape_difference3,1,,TRUE,,intensity,0.1,0.05,0.7,0.3,0.82,20,400,1E-11,3.5,0.01,0.5,0.1,,,,,,,,,,,,,,,,,,,,,,,,,,,,,,,,,,,,,,,,,,,,,,,,,,,,,,,,,,,,,,,,,,,,,,,,,,,,,,,,,
,,,,,249109,001,2025-03-17_10h37.42.839,Utility_discrimination_2024_2cat,2024.2.4,MacIntel,90.90909091,,,,,,,,0,"[0.5,0.5]","[1,0]",d,"[0.6817646943115111,0.5753418592221956]","[0.3182353056884889,0.4246581407778044]",88.713,91.173,1,s,1,0.923,,-0.120490743,0.470685176,0.591175919,91.176,91.176,0,21,21,21,1,0.196715037,0.196715037,shape_difference1,1,,TRUE,,intensity,0.1,0.05,0.7,0.3,0.82,20,400,1E-11,3.5,0.01,0.5,0.1,,,,,,,,,,,,,,,,,,,,,,,,,,,,,,,,,,,,,,,,,,,,,,,,,,,,,,,,,,,,,,,,,,,,,,,,,,,,,,,,,
,,,,,249109,001,2025-03-17_10h37.42.839,Utility_discrimination_2024_2cat,2024.2.4,MacIntel,90.90909091,,,,,,,,4,"[0.5,0.5]","[0,1]",s,"[0.6306116159745301,0.5]","[0.3693883840254699,0.5]",91.178,93.415,1,d,1,0.713,,0.484808729,0.947322582,0.462513853,93.418,93.418,0,22,22,22,1,0.130611616,0.130611616,shape_difference0,1,,TRUE,,intensity,0.1,0.05,0.7,0.3,0.82,20,400,1E-11,3.5,0.01,0.5,0.1,,,,,,,,,,,,,,,,,,,,,,,,,,,,,,,,,,,,,,,,,,,,,,,,,,,,,,,,,,,,,,,,,,,,,,,,,,,,,,,,,
,,,,,249109,001,2025-03-17_10h37.42.839,Utility_discrimination_2024_2cat,2024.2.4,MacIntel,90.90909091,,,,,,,,2,"[0.5,0.5]","[0.707,0.707]",d,"[0.5,1.1985564984272785]","[0.5,-0.19855649842727852]",93.419,96.227,1,s,1,1.287,,-0.138426098,0.496127593,0.634553691,96.23,96.23,0,23,23,23,1,0.698556498,0.698556498,shape_difference4,1,,TRUE,,intensity,0.1,0.05,0.7,0.3,0.82,20,400,1E-11,3.5,0.01,0.5,0.1,,,,,,,,,,,,,,,,,,,,,,,,,,,,,,,,,,,,,,,,,,,,,,,,,,,,,,,,,,,,,,,,,,,,,,,,,,,,,,,,,
,,,,,249109,001,2025-03-17_10h37.42.839,Utility_discrimination_2024_2cat,2024.2.4,MacIntel,90.90909091,,,,,,,,1,"[0.5,0.5]","[0.924,0.383]",s,"[0.5959456051886609,0.5959456051886609]","[0.4040543948113391,0.4040543948113391]",96.232,99.161,1,d,1,1.404,,-0.067097964,0.445046575,0.512144539,99.163,99.163,0,24,24,24,1,0.13570807,0.13570807,shape_difference2,1,,TRUE,,intensity,0.1,0.05,0.7,0.3,0.82,20,400,1E-11,3.5,0.01,0.5,0.1,,,,,,,,,,,,,,,,,,,,,,,,,,,,,,,,,,,,,,,,,,,,,,,,,,,,,,,,,,,,,,,,,,,,,,,,,,,,,,,,,
,,,,,249109,001,2025-03-17_10h37.42.839,Utility_discrimination_2024_2cat,2024.2.4,MacIntel,90.90909091,,,,,,,,4,"[0.5,0.5]","[0,1]",d,"[0.657167979377494,0.5651464676424028]","[0.34283202062250595,0.43485353235759716]",99.164,101.478,1,d,1,0.792,,0.465910148,0.899509208,0.43359906,101.483,101.483,0,25,25,25,1,0.170095216,0.170095216,shape_difference1,1,,TRUE,,intensity,0.1,0.05,0.7,0.3,0.82,20,400,1E-11,3.5,0.01,0.5,0.1,,,,,,,,,,,,,,,,,,,,,,,,,,,,,,,,,,,,,,,,,,,,,,,,,,,,,,,,,,,,,,,,,,,,,,,,,,,,,,,,,
,,,,,249109,001,2025-03-17_10h37.42.839,Utility_discrimination_2024_2cat,2024.2.4,MacIntel,90.90909091,,,,,,,,3,"[0.5,0.5]","[0.383,0.924]",d,"[0.5,1.1739771625531974]","[0.5,-0.17397716255319728]",101.485,104.01,0,d,0,1.002,,-0.037680959,0.607396831,0.64507779,104.011,104.011,0,26,26,26,1,0.673977163,0.673977163,shape_difference4,1,,TRUE,,intensity,0.1,0.05,0.7,0.3,0.82,20,400,1E-11,3.5,0.01,0.5,0.1,,,,,,,,,,,,,,,,,,,,,,,,,,,,,,,,,,,,,,,,,,,,,,,,,,,,,,,,,,,,,,,,,,,,,,,,,,,,,,,,,
,,,,,249109,001,2025-03-17_10h37.42.839,Utility_discrimination_2024_2cat,2024.2.4,MacIntel,90.90909091,,,,,,,,2,"[0.5,0.5]","[0.707,0.707]",s,"[0.5981341874471879,0.7367519300292471]","[0.4018658125528121,0.26324806997075295]",104.013,106.56,1,d,1,1.018,,-0.158612068,0.441238695,0.599850764,106.562,106.562,0,27,27,27,1,0.256225032,0.256225032,shape_difference3,1,,TRUE,,intensity,0.1,0.05,0.7,0.3,0.82,20,400,1E-11,3.5,0.01,0.5,0.1,,,,,,,,,,,,,,,,,,,,,,,,,,,,,,,,,,,,,,,,,,,,,,,,,,,,,,,,,,,,,,,,,,,,,,,,,,,,,,,,,
,,,,,249109,001,2025-03-17_10h37.42.839,Utility_discrimination_2024_2cat,2024.2.4,MacIntel,90.90909091,,,,,,,,0,"[0.5,0.5]","[1,0]",d,"[0.5641114274257293,0.5641114274257293]","[0.4358885725742707,0.4358885725742707]",106.564,108.98,0,d,0,0.888,,-0.144584963,0.406347617,0.550932581,108.983,108.983,0,28,28,28,1,0.090680944,0.090680944,shape_difference2,1,,TRUE,,intensity,0.1,0.05,0.7,0.3,0.82,20,400,1E-11,3.5,0.01,0.5,0.1,,,,,,,,,,,,,,,,,,,,,,,,,,,,,,,,,,,,,,,,,,,,,,,,,,,,,,,,,,,,,,,,,,,,,,,,,,,,,,,,,
,,,,,249109,001,2025-03-17_10h37.42.839,Utility_discrimination_2024_2cat,2024.2.4,MacIntel,90.90909091,,,,,,,,3,"[0.5,0.5]","[0.383,0.924]",s,"[0.5917420996447461,0.5]","[0.4082579003552539,0.5]",108.985,111.273,1,d,1,0.767,,-0.050295143,0.550070744,0.600365887,111.276,111.276,0,29,29,29,1,0.0917421,0.0917421,shape_difference0,1,,TRUE,,intensity,0.1,0.05,0.7,0.3,0.82,20,400,1E-11,3.5,0.01,0.5,0.1,,,,,,,,,,,,,,,,,,,,,,,,,,,,,,,,,,,,,,,,,,,,,,,,,,,,,,,,,,,,,,,,,,,,,,,,,,,,,,,,,
,,,,,249109,001,2025-03-17_10h37.42.839,Utility_discrimination_2024_2cat,2024.2.4,MacIntel,90.90909091,,,,,,,,1,"[0.5,0.5]","[0.924,0.383]",d,"[0.5802263709272786,0.693548738216202]","[0.4197736290727215,0.306451261783798]",111.277,113.772,0,d,0,0.97,,-0.078138993,0.387434732,0.465573725,113.775,113.775,0,30,30,30,1,0.209468331,0.209468331,shape_difference3,1,,TRUE,,intensity,0.1,0.05,0.7,0.3,0.82,20,400,1E-11,3.5,0.01,0.5,0.1,,,,,,,,,,,,,,,,,,,,,,,,,,,,,,,,,,,,,,,,,,,,,,,,,,,,,,,,,,,,,,,,,,,,,,,,,,,,,,,,,
,,,,,249109,001,2025-03-17_10h37.42.839,Utility_discrimination_2024_2cat,2024.2.4,MacIntel,90.90909091,,,,,,,,0,"[0.5,0.5]","[1,0]",s,"[0.6362005814239964,0.5564554358066998]","[0.3637994185760036,0.44354456419330024]",113.776,116.341,1,s,1,1.037,,-0.160589475,0.350306654,0.510896129,116.344,116.344,0,31,31,31,1,0.147403227,0.147403227,shape_difference1,1,,TRUE,,intensity,0.1,0.05,0.7,0.3,0.82,20,400,1E-11,3.5,0.01,0.5,0.1,,,,,,,,,,,,,,,,,,,,,,,,,,,,,,,,,,,,,,,,,,,,,,,,,,,,,,,,,,,,,,,,,,,,,,,,,,,,,,,,,
,,,,,249109,001,2025-03-17_10h37.42.839,Utility_discrimination_2024_2cat,2024.2.4,MacIntel,90.90909091,,,,,,,,2,"[0.5,0.5]","[0.707,0.707]",s,"[0.5661561925116445,0.5]","[0.43384380748835555,0.5]",116.346,118.74,1,s,1,0.871,,-0.023918249,0.566353461,0.59027171,118.742,118.742,0,32,32,32,1,0.066156193,0.066156193,shape_difference0,1,,TRUE,,intensity,0.1,0.05,0.7,0.3,0.82,20,400,1E-11,3.5,0.01,0.5,0.1,,,,,,,,,,,,,,,,,,,,,,,,,,,,,,,,,,,,,,,,,,,,,,,,,,,,,,,,,,,,,,,,,,,,,,,,,,,,,,,,,
,,,,,249109,001,2025-03-17_10h37.42.839,Utility_discrimination_2024_2cat,2024.2.4,MacIntel,90.90909091,,,,,,,,4,"[0.5,0.5]","[0,1]",s,"[0.6535629441670637,0.6535629441670637]","[0.34643705583293627,0.34643705583293627]",118.744,120.965,1,d,1,0.691,,0.560876155,0.989102598,0.428226443,120.968,120.968,0,33,33,33,1,0.217203599,0.217203599,shape_difference2,1,,TRUE,,intensity,0.1,0.05,0.7,0.3,0.82,20,400,1E-11,3.5,0.01,0.5,0.1,,,,,,,,,,,,,,,,,,,,,,,,,,,,,,,,,,,,,,,,,,,,,,,,,,,,,,,,,,,,,,,,,,,,,,,,,,,,,,,,,
,,,,,249109,001,2025-03-17_10h37.42.839,Utility_discrimination_2024_2cat,2024.2.4,MacIntel,90.90909091,,,,,,,,1,"[0.5,0.5]","[0.924,0.383]",d,"[0.5,1.2665939481597848]","[0.5,-0.26659394815978465]",120.971,123.249,1,d,1,0.76,,-0.090658615,0.352456116,0.443114731,123.251,123.251,0,34,34,34,1,0.766593948,0.766593948,shape_difference4,1,,TRUE,,intensity,0.1,0.05,0.7,0.3,0.82,20,400,1E-11,3.5,0.01,0.5,0.1,,,,,,,,,,,,,,,,,,,,,,,,,,,,,,,,,,,,,,,,,,,,,,,,,,,,,,,,,,,,,,,,,,,,,,,,,,,,,,,,,
,,,,,249109,001,2025-03-17_10h37.42.839,Utility_discrimination_2024_2cat,2024.2.4,MacIntel,90.90909091,,,,,,,,3,"[0.5,0.5]","[0.383,0.924]",d,"[0.6149010112825593,0.5476267178801084]","[0.3850989887174407,0.45237328211989153]",123.252,125.739,1,s,1,0.966,,0.087767638,0.654540039,0.566772401,125.743,125.743,0,35,35,35,1,0.124351744,0.124351744,shape_difference1,1,,TRUE,,intensity,0.1,0.05,0.7,0.3,0.82,20,400,1E-11,3.5,0.01,0.5,0.1,,,,,,,,,,,,,,,,,,,,,,,,,,,,,,,,,,,,,,,,,,,,,,,,,,,,,,,,,,,,,,,,,,,,,,,,,,,,,,,,,
,,,,,249109,001,2025-03-17_10h37.42.839,Utility_discrimination_2024_2cat,2024.2.4,MacIntel,90.90909091,,,,,,,,4,"[0.5,0.5]","[0,1]",s,"[0.6281732901499347,0.8092222456880932]","[0.3718267098500653,0.1907777543119068]",125.744,128.205,1,s,1,0.932,,0.54947875,0.960269583,0.410790834,128.208,128.208,0,36,36,36,1,0.33465611,0.33465611,shape_difference3,1,,TRUE,,intensity,0.1,0.05,0.7,0.3,0.82,20,400,1E-11,3.5,0.01,0.5,0.1,,,,,,,,,,,,,,,,,,,,,,,,,,,,,,,,,,,,,,,,,,,,,,,,,,,,,,,,,,,,,,,,,,,,,,,,,,,,,,,,,
,,,,,249109,001,2025-03-17_10h37.42.839,Utility_discrimination_2024_2cat,2024.2.4,MacIntel,90.90909091,,,,,,,,0,"[0.5,0.5]","[1,0]",s,"[0.5,1.2460047212948382]","[0.5,-0.2460047212948383]",128.211,130.243,1,d,1,0.504,,-0.171576622,0.286796614,0.458373237,130.246,130.246,0,37,37,37,1,0.746004721,0.746004721,shape_difference4,1,,TRUE,,intensity,0.1,0.05,0.7,0.3,0.82,20,400,1E-11,3.5,0.01,0.5,0.1,,,,,,,,,,,,,,,,,,,,,,,,,,,,,,,,,,,,,,,,,,,,,,,,,,,,,,,,,,,,,,,,,,,,,,,,,,,,,,,,,
,,,,,249109,001,2025-03-17_10h37.42.839,Utility_discrimination_2024_2cat,2024.2.4,MacIntel,90.90909091,,,,,,,,2,"[0.5,0.5]","[0.707,0.707]",d,"[0.5442987540991198,0.5]","[0.4557012459008803,0.5]",130.247,132.613,0,d,0,0.845,,-0.042308962,0.50250489,0.544813852,132.615,132.615,0,38,38,38,1,0.044298754,0.044298754,shape_difference0,1,,TRUE,,intensity,0.1,0.05,0.7,0.3,0.82,20,400,1E-11,3.5,0.01,0.5,0.1,,,,,,,,,,,,,,,,,,,,,,,,,,,,,,,,,,,,,,,,,,,,,,,,,,,,,,,,,,,,,,,,,,,,,,,,,,,,,,,,,
,,,,,249109,001,2025-03-17_10h37.42.839,Utility_discrimination_2024_2cat,2024.2.4,MacIntel,90.90909091,,,,,,,,1,"[0.5,0.5]","[0.924,0.383]",s,"[0.6263217003484959,0.6263217003484959]","[0.3736782996515041,0.3736782996515041]",132.616,134.798,1,d,1,0.655,,-0.099810016,0.302017827,0.401827843,134.802,134.802,0,39,39,39,1,0.178672843,0.178672843,shape_difference2,1,,TRUE,,intensity,0.1,0.05,0.7,0.3,0.82,20,400,1E-11,3.5,0.01,0.5,0.1,,,,,,,,,,,,,,,,,,,,,,,,,,,,,,,,,,,,,,,,,,,,,,,,,,,,,,,,,,,,,,,,,,,,,,,,,,,,,,,,,
,,,,,249109,001,2025-03-17_10h37.42.839,Utility_discrimination_2024_2cat,2024.2.4,MacIntel,90.90909091,,,,,,,,4,"[0.5,0.5]","[0,1]",d,"[0.5913841818646277,0.5378789411841476]","[0.40861581813537234,0.4621210588158524]",134.802,137.197,1,s,1,0.872,,0.537130744,0.928112005,0.390981261,137.199,137.199,0,40,40,40,1,0.09890063,0.09890063,shape_difference1,1,,TRUE,,intensity,0.1,0.05,0.7,0.3,0.82,20,400,1E-11,3.5,0.01,0.5,0.1,,,,,,,,,,,,,,,,,,,,,,,,,,,,,,,,,,,,,,,,,,,,,,,,,,,,,,,,,,,,,,,,,,,,,,,,,,,,,,,,,
,,,,,249109,001,2025-03-17_10h37.42.839,Utility_discrimination_2024_2cat,2024.2.4,MacIntel,90.90909091,,,,,,,,0,"[0.5,0.5]","[1,0]",s,"[0.5,1.2250203445694523]","[0.5,-0.2250203445694524]",137.2,139.57,1,d,1,0.849,,-0.086613843,0.373421794,0.460035637,139.572,139.572,0,41,41,41,1,0.725020345,0.725020345,shape_difference4,1,,TRUE,,intensity,0.1,0.05,0.7,0.3,0.82,20,400,1E-11,3.5,0.01,0.5,0.1,,,,,,,,,,,,,,,,,,,,,,,,,,,,,,,,,,,,,,,,,,,,,,,,,,,,,,,,,,,,,,,,,,,,,,,,,,,,,,,,,
,,,,,249109,001,2025-03-17_10h37.42.839,Utility_discrimination_2024_2cat,2024.2.4,MacIntel,90.90909091,,,,,,,,2,"[0.5,0.5]","[0.707,0.707]",d,"[0.5926867023447159,0.5]","[0.4073132976552841,0.5]",139.574,142.164,0,d,0,1.072,,-0.054518098,0.446883636,0.501401734,142.165,142.165,0,42,42,42,1,0.092686702,0.092686702,shape_difference0,1,,TRUE,,intensity,0.1,0.05,0.7,0.3,0.82,20,400,1E-11,3.5,0.01,0.5,0.1,,,,,,,,,,,,,,,,,,,,,,,,,,,,,,,,,,,,,,,,,,,,,,,,,,,,,,,,,,,,,,,,,,,,,,,,,,,,,,,,,
,,,,,249109,001,2025-03-17_10h37.42.839,Utility_discrimination_2024_2cat,2024.2.4,MacIntel,90.90909091,,,,,,,,3,"[0.5,0.5]","[0.383,0.924]",s,"[0.6069245249692726,0.6069245249692726]","[0.3930754750307273,0.3930754750307273]",142.166,144.509,0,d,0,0.815,,0.065523552,0.597639774,0.532116221,144.51,144.51,0,43,43,43,1,0.151236952,0.151236952,shape_difference2,1,,TRUE,,intensity,0.1,0.05,0.7,0.3,0.82,20,400,1E-11,3.5,0.01,0.5,0.1,,,,,,,,,,,,,,,,,,,,,,,,,,,,,,,,,,,,,,,,,,,,,,,,,,,,,,,,,,,,,,,,,,,,,,,,,,,,,,,,,
,,,,,249109,001,2025-03-17_10h37.42.839,Utility_discrimination_2024_2cat,2024.2.4,MacIntel,90.90909091,,,,,,,,4,"[0.5,0.5]","[0,1]",s,"[0.6120691965112623,0.7703705941942727]","[0.3879308034887376,0.22962940580572727]",144.511,146.787,1,d,1,0.746,,0.528403406,0.894217221,0.365813814,146.789,146.789,0,44,44,44,1,0.292608868,0.292608868,shape_difference3,1,,TRUE,,intensity,0.1,0.05,0.7,0.3,0.82,20,400,1E-11,3.5,0.01,0.5,0.1,,,,,,,,,,,,,,,,,,,,,,,,,,,,,,,,,,,,,,,,,,,,,,,,,,,,,,,,,,,,,,,,,,,,,,,,,,,,,,,,,
,,,,,249109,001,2025-03-17_10h37.42.839,Utility_discrimination_2024_2cat,2024.2.4,MacIntel,90.90909091,,,,,,,,1,"[0.5,0.5]","[0.924,0.383]",d,"[0.5,1.20165531399239]","[0.5,-0.20165531399239]",146.789,149.644,1,d,1,1.334,,-0.147620511,0.278358432,0.425978943,149.647,149.647,0,45,45,45,1,0.701655314,0.701655314,shape_difference4,1,,TRUE,,intensity,0.1,0.05,0.7,0.3,0.82,20,400,1E-11,3.5,0.01,0.5,0.1,,,,,,,,,,,,,,,,,,,,,,,,,,,,,,,,,,,,,,,,,,,,,,,,,,,,,,,,,,,,,,,,,,,,,,,,,,,,,,,,,
,,,,,249109,001,2025-03-17_10h37.42.839,Utility_discrimination_2024_2cat,2024.2.4,MacIntel,90.90909091,,,,,,,,3,"[0.5,0.5]","[0.383,0.924]",d,"[0.5753683462442437,0.5312403426531875]","[0.4246316537557563,0.4687596573468124]",149.648,152.219,1,d,1,1.042,,0.050824875,0.551392617,0.500567742,152.221,152.221,0,46,46,46,1,0.081567474,0.081567474,shape_difference1,1,,TRUE,,intensity,0.1,0.05,0.7,0.3,0.82,20,400,1E-11,3.5,0.01,0.5,0.1,,,,,,,,,,,,,,,,,,,,,,,,,,,,,,,,,,,,,,,,,,,,,,,,,,,,,,,,,,,,,,,,,,,,,,,,,,,,,,,,,
,,,,,249109,001,2025-03-17_10h37.42.839,Utility_discrimination_2024_2cat,2024.2.4,MacIntel,90.90909091,,,,,,,,0,"[0.5,0.5]","[1,0]",d,"[0.6013746527688132,0.7445696583769801]","[0.39862534723118687,0.25543034162302]",152.222,155.053,0,d,0,1.301,,-0.007302409,0.485956576,0.493258985,155.054,155.054,0,47,47,47,1,0.264685777,0.264685777,shape_difference3,1,,TRUE,,intensity,0.1,0.05,0.7,0.3,0.82,20,400,1E-11,3.5,0.01,0.5,0.1,,,,,,,,,,,,,,,,,,,,,,,,,,,,,,,,,,,,,,,,,,,,,,,,,,,,,,,,,,,,,,,,,,,,,,,,,,,,,,,,,
,,,,,249109,001,2025-03-17_10h37.42.839,Utility_discrimination_2024_2cat,2024.2.4,MacIntel,90.90909091,,,,,,,,2,"[0.5,0.5]","[0.707,0.707]",s,"[0.6753480797329686,0.5]","[0.3246519202670314,0.5]",155.055,157.537,1,d,1,0.956,,0.043577532,0.588203131,0.544625599,157.538,157.538,0,48,48,48,1,0.17534808,0.17534808,shape_difference0,1,,TRUE,,intensity,0.1,0.05,0.7,0.3,0.82,20,400,1E-11,3.5,0.01,0.5,0.1,,,,,,,,,,,,,,,,,,,,,,,,,,,,,,,,,,,,,,,,,,,,,,,,,,,,,,,,,,,,,,,,,,,,,,,,,,,,,,,,,
,,,,,249109,001,2025-03-17_10h37.42.839,Utility_discrimination_2024_2cat,2024.2.4,MacIntel,90.90909091,,,,,,,,4,"[0.5,0.5]","[0,1]",d,"[0.6914149289733589,0.6914149289733589]","[0.3085850710266412,0.3085850710266412]",157.538,159.853,1,d,1,0.784,,0.522091246,0.874831962,0.352740716,159.854,159.854,0,49,49,49,1,0.270742474,0.270742474,shape_difference2,1,,TRUE,,intensity,0.1,0.05,0.7,0.3,0.82,20,400,1E-11,3.5,0.01,0.5,0.1,,,,,,,,,,,,,,,,,,,,,,,,,,,,,,,,,,,,,,,,,,,,,,,,,,,,,,,,,,,,,,,,,,,,,,,,,,,,,,,,,
,,,,,249109,001,2025-03-17_10h37.42.839,Utility_discrimination_2024_2cat,2024.2.4,MacIntel,90.90909091,,,,,,,,2,"[0.5,0.5]","[0.707,0.707]",d,"[0.5,1.1864628074042642]","[0.5,-0.18646280740426424]",159.855,162.232,0,d,0,0.858,,0.034732156,0.532194416,0.497462259,162.234,162.234,0,50,50,50,1,0.686462807,0.686462807,shape_difference4,1,,TRUE,,intensity,0.1,0.05,0.7,0.3,0.82,20,400,1E-11,3.5,0.01,0.5,0.1,,,,,,,,,,,,,,,,,,,,,,,,,,,,,,,,,,,,,,,,,,,,,,,,,,,,,,,,,,,,,,,,,,,,,,,,,,,,,,,,,
,,,,,249109,001,2025-03-17_10h37.42.839,Utility_discrimination_2024_2cat,2024.2.4,MacIntel,90.90909091,,,,,,,,0,"[0.5,0.5]","[1,0]",s,"[0.6702508281030826,0.6702508281030826]","[0.3297491718969175,0.3297491718969175]",162.236,165.443,0,s,0,1.676,,-0.025342847,0.425449953,0.4507928,165.445,165.445,0,51,51,51,1,0.240807395,0.240807395,shape_difference2,1,,TRUE,,intensity,0.1,0.05,0.7,0.3,0.82,20,400,1E-11,3.5,0.01,0.5,0.1,,,,,,,,,,,,,,,,,,,,,,,,,,,,,,,,,,,,,,,,,,,,,,,,,,,,,,,,,,,,,,,,,,,,,,,,,,,,,,,,,
,,,,,249109,001,2025-03-17_10h37.42.839,Utility_discrimination_2024_2cat,2024.2.4,MacIntel,90.90909091,,,,,,,,1,"[0.5,0.5]","[0.924,0.383]",d,"[0.6519567574200493,0.5]","[0.3480432425799506,0.5]",165.446,167.861,1,d,1,0.886,,-0.182423137,0.248987787,0.431410924,167.862,167.863,0,52,52,52,1,0.151956757,0.151956757,shape_difference0,1,,TRUE,,intensity,0.1,0.05,0.7,0.3,0.82,20,400,1E-11,3.5,0.01,0.5,0.1,,,,,,,,,,,,,,,,,,,,,,,,,,,,,,,,,,,,,,,,,,,,,,,,,,,,,,,,,,,,,,,,,,,,,,,,,,,,,,,,,
,,,,,249109,001,2025-03-17_10h37.42.839,Utility_discrimination_2024_2cat,2024.2.4,MacIntel,90.90909091,,,,,,,,3,"[0.5,0.5]","[0.383,0.924]",d,"[0.5617099302226933,0.525578899648584]","[0.43829006977730667,0.47442110035141605]",167.863,170.195,0,d,0,0.798,,0.152638918,0.672350985,0.519712067,170.198,170.198,0,53,53,53,1,0.066785639,0.066785639,shape_difference1,1,,TRUE,,intensity,0.1,0.05,0.7,0.3,0.82,20,400,1E-11,3.5,0.01,0.5,0.1,,,,,,,,,,,,,,,,,,,,,,,,,,,,,,,,,,,,,,,,,,,,,,,,,,,,,,,,,,,,,,,,,,,,,,,,,,,,,,,,,
,,,,,249109,001,2025-03-17_10h37.42.839,Utility_discrimination_2024_2cat,2024.2.4,MacIntel,90.90909091,,,,,,,,4,"[0.5,0.5]","[0,1]",s,"[0.6444451298794565,0.8484785901008298]","[0.3555548701205435,0.15152140989917018]",170.2,173.063,1,s,1,1.334,,0.600752862,0.93658074,0.335827878,173.065,173.065,0,54,54,54,1,0.377141331,0.377141331,shape_difference3,1,,TRUE,,intensity,0.1,0.05,0.7,0.3,0.82,20,400,1E-11,3.5,0.01,0.5,0.1,,,,,,,,,,,,,,,,,,,,,,,,,,,,,,,,,,,,,,,,,,,,,,,,,,,,,,,,,,,,,,,,,,,,,,,,,,,,,,,,,
,,,,,249109,001,2025-03-17_10h37.42.839,Utility_discrimination_2024_2cat,2024.2.4,MacIntel,90.90909091,,,,,,,,1,"[0.5,0.5]","[0.924,0.383]",s,"[0.5,1.2448787859949377]","[0.5,-0.24487878599493773]",173.065,175.541,1,s,1,0.951,,-0.030834103,0.325906026,0.356740129,175.544,175.544,0,55,55,55,1,0.744878786,0.744878786,shape_difference4,1,,TRUE,,intensity,0.1,0.05,0.7,0.3,0.82,20,400,1E-11,3.5,0.01,0.5,0.1,,,,,,,,,,,,,,,,,,,,,,,,,,,,,,,,,,,,,,,,,,,,,,,,,,,,,,,,,,,,,,,,,,,,,,,,,,,,,,,,,
,,,,,249109,001,2025-03-17_10h37.42.839,Utility_discrimination_2024_2cat,2024.2.4,MacIntel,90.90909091,,,,,,,,3,"[0.5,0.5]","[0.383,0.924]",s,"[0.6222928509252381,0.5506906514116517]","[0.3777071490747619,0.44930934858834826]",175.545,178.414,0,d,0,1.347,,0.141816336,0.617376097,0.475559761,178.415,178.415,0,56,56,56,1,0.13235157,0.13235157,shape_difference1,1,,TRUE,,intensity,0.1,0.05,0.7,0.3,0.82,20,400,1E-11,3.5,0.01,0.5,0.1,,,,,,,,,,,,,,,,,,,,,,,,,,,,,,,,,,,,,,,,,,,,,,,,,,,,,,,,,,,,,,,,,,,,,,,,,,,,,,,,,
,,,,,249109,001,2025-03-17_10h37.42.839,Utility_discrimination_2024_2cat,2024.2.4,MacIntel,90.90909091,,,,,,,,2,"[0.5,0.5]","[0.707,0.707]",s,"[0.633948241943775,0.8231545053682718]","[0.36605175805622503,0.17684549463172822]",178.415,181.03,1,s,1,1.085,,0.110224334,0.60924687,0.499022536,181.032,181.032,0,57,57,57,1,0.349734313,0.349734313,shape_difference3,1,,TRUE,,intensity,0.1,0.05,0.7,0.3,0.82,20,400,1E-11,3.5,0.01,0.5,0.1,,,,,,,,,,,,,,,,,,,,,,,,,,,,,,,,,,,,,,,,,,,,,,,,,,,,,,,,,,,,,,,,,,,,,,,,,,,,,,,,,
,,,,,249109,001,2025-03-17_10h37.42.839,Utility_discrimination_2024_2cat,2024.2.4,MacIntel,90.90909091,,,,,,,,0,"[0.5,0.5]","[1,0]",s,"[0.7171575779544217,0.7171575779544217]","[0.28284242204557836,0.28284242204557836]",181.033,183.297,1,d,1,0.74,,-0.037927976,0.369592096,0.407520071,183.299,183.299,0,58,58,58,1,0.307153576,0.307153576,shape_difference2,1,,TRUE,,intensity,0.1,0.05,0.7,0.3,0.82,20,400,1E-11,3.5,0.01,0.5,0.1,,,,,,,,,,,,,,,,,,,,,,,,,,,,,,,,,,,,,,,,,,,,,,,,,,,,,,,,,,,,,,,,,,,,,,,,,,,,,,,,,
,,,,,249109,001,2025-03-17_10h37.42.839,Utility_discrimination_2024_2cat,2024.2.4,MacIntel,90.90909091,,,,,,,,2,"[0.5,0.5]","[0.707,0.707]",d,"[0.6315084218995708,0.5]","[0.3684915781004292,0.5]",183.3,185.722,0,d,0,0.902,,0.105771682,0.564261089,0.458489407,185.724,185.724,0,59,59,59,1,0.131508422,0.131508422,shape_difference0,1,,TRUE,,intensity,0.1,0.05,0.7,0.3,0.82,20,400,1E-11,3.5,0.01,0.5,0.1,,,,,,,,,,,,,,,,,,,,,,,,,,,,,,,,,,,,,,,,,,,,,,,,,,,,,,,,,,,,,,,,,,,,,,,,,,,,,,,,,
,,,,,249109,001,2025-03-17_10h37.42.839,Utility_discrimination_2024_2cat,2024.2.4,MacIntel,90.90909091,,,,,,,,4,"[0.5,0.5]","[0,1]",s,"[0.6976075199134695,0.6976075199134695]","[0.3023924800865305,0.3023924800865305]",185.726,188.355,0,d,0,1.112,,0.581142212,0.899702855,0.318560643,188.358,188.358,0,60,60,60,1,0.279501443,0.279501443,shape_difference2,1,,TRUE,,intensity,0.1,0.05,0.7,0.3,0.82,20,400,1E-11,3.5,0.01,0.5,0.1,,,,,,,,,,,,,,,,,,,,,,,,,,,,,,,,,,,,,,,,,,,,,,,,,,,,,,,,,,,,,,,,,,,,,,,,,,,,,,,,,
,,,,,249109,001,2025-03-17_10h37.42.839,Utility_discrimination_2024_2cat,2024.2.4,MacIntel,90.90909091,,,,,,,,0,"[0.5,0.5]","[1,0]",s,"[0.5,1.2285029088467312]","[0.5,-0.2285029088467312]",188.359,191.03,0,d,0,1.15,,0.012072625,0.451931768,0.439859143,191.031,191.031,0,61,61,61,1,0.728502909,0.728502909,shape_difference4,1,,TRUE,,intensity,0.1,0.05,0.7,0.3,0.82,20,400,1E-11,3.5,0.01,0.5,0.1,,,,,,,,,,,,,,,,,,,,,,,,,,,,,,,,,,,,,,,,,,,,,,,,,,,,,,,,,,,,,,,,,,,,,,,,,,,,,,,,,
,,,,,249109,001,2025-03-17_10h37.42.839,Utility_discrimination_2024_2cat,2024.2.4,MacIntel,90.90909091,,,,,,,,1,"[0.5,0.5]","[0.924,0.383]",s,"[0.6775850238212968,0.5]","[0.3224149761787032,0.5]",191.032,193.395,1,d,1,0.84,,0.012909116,0.389307595,0.37639848,193.397,193.397,0,62,62,62,1,0.177585024,0.177585024,shape_difference0,1,,TRUE,,intensity,0.1,0.05,0.7,0.3,0.82,20,400,1E-11,3.5,0.01,0.5,0.1,,,,,,,,,,,,,,,,,,,,,,,,,,,,,,,,,,,,,,,,,,,,,,,,,,,,,,,,,,,,,,,,,,,,,,,,,,,,,,,,,
,,,,,249109,001,2025-03-17_10h37.42.839,Utility_discrimination_2024_2cat,2024.2.4,MacIntel,90.90909091,,,,,,,,3,"[0.5,0.5]","[0.383,0.924]",d,"[0.6583557970663527,0.5656388206454688]","[0.3416442029336473,0.4343611793545313]",193.398,196.374,1,s,1,1.449,,0.130927128,0.578955949,0.448028821,196.376,196.376,0,63,63,63,1,0.171380733,0.171380733,shape_difference1,1,,TRUE,,intensity,0.1,0.05,0.7,0.3,0.82,20,400,1E-11,3.5,0.01,0.5,0.1,,,,,,,,,,,,,,,,,,,,,,,,,,,,,,,,,,,,,,,,,,,,,,,,,,,,,,,,,,,,,,,,,,,,,,,,,,,,,,,,,
,,,,,249109,001,2025-03-17_10h37.42.839,Utility_discrimination_2024_2cat,2024.2.4,MacIntel,90.90909091,,,,,,,,1,"[0.5,0.5]","[0.924,0.383]",s,"[0.6239365918806706,0.7990010728400514]","[0.37606340811932937,0.2009989271599486]",196.377,198.779,1,d,1,0.871,,0.010017237,0.3536385,0.343621263,198.782,198.782,0,64,64,64,1,0.323594235,0.323594235,shape_difference3,1,,TRUE,,intensity,0.1,0.05,0.7,0.3,0.82,20,400,1E-11,3.5,0.01,0.5,0.1,,,,,,,,,,,,,,,,,,,,,,,,,,,,,,,,,,,,,,,,,,,,,,,,,,,,,,,,,,,,,,,,,,,,,,,,,,,,,,,,,
,,,,,249109,001,2025-03-17_10h37.42.839,Utility_discrimination_2024_2cat,2024.2.4,MacIntel,90.90909091,,,,,,,,0,"[0.5,0.5]","[1,0]",d,"[0.6458096756470808,0.5604384261610735]","[0.35419032435291925,0.43956157383892647]",198.783,200.903,1,d,1,0.596,,0.008998354,0.39189223,0.382893876,200.905,200.905,0,65,65,65,1,0.157802679,0.157802679,shape_difference1,1,,TRUE,,intensity,0.1,0.05,0.7,0.3,0.82,20,400,1E-11,3.5,0.01,0.5,0.1,,,,,,,,,,,,,,,,,,,,,,,,,,,,,,,,,,,,,,,,,,,,,,,,,,,,,,,,,,,,,,,,,,,,,,,,,,,,,,,,,
,,,,,249109,001,2025-03-17_10h37.42.839,Utility_discrimination_2024_2cat,2024.2.4,MacIntel,90.90909091,,,,,,,,3,"[0.5,0.5]","[0.383,0.924]",d,"[0.6606349687558236,0.5]","[0.3393650312441764,0.5]",200.906,203.096,1,d,1,0.674,,0.123346634,0.53764886,0.414302226,203.099,203.099,0,66,66,66,1,0.160634969,0.160634969,shape_difference0,1,,TRUE,,intensity,0.1,0.05,0.7,0.3,0.82,20,400,1E-11,3.5,0.01,0.5,0.1,,,,,,,,,,,,,,,,,,,,,,,,,,,,,,,,,,,,,,,,,,,,,,,,,,,,,,,,,,,,,,,,,,,,,,,,,,,,,,,,,
,,,,,249109,001,2025-03-17_10h37.42.839,Utility_discrimination_2024_2cat,2024.2.4,MacIntel,90.90909091,,,,,,,,4,"[0.5,0.5]","[0,1]",d,"[0.6137710810381191,0.7744764461598486]","[0.38622891896188094,0.22552355384015138]",203.1,205.483,1,d,1,0.862,,0.612548001,0.962692421,0.35014442,205.486,205.486,0,67,67,67,1,0.297052431,0.297052431,shape_difference3,1,,TRUE,,intensity,0.1,0.05,0.7,0.3,0.82,20,400,1E-11,3.5,0.01,0.5,0.1,,,,,,,,,,,,,,,,,,,,,,,,,,,,,,,,,,,,,,,,,,,,,,,,,,,,,,,,,,,,,,,,,,,,,,,,,,,,,,,,,
,,,,,249109,001,2025-03-17_10h37.42.839,Utility_discrimination_2024_2cat,2024.2.4,MacIntel,90.90909091,,,,,,,,2,"[0.5,0.5]","[0.707,0.707]",d,"[0.5,1.2674745576712754]","[0.5,-0.26747455767127526]",205.488,207.916,0,d,0,0.908,,0.164203432,0.672754086,0.508550653,207.918,207.918,0,68,68,68,1,0.767474558,0.767474558,shape_difference4,1,,TRUE,,intensity,0.1,0.05,0.7,0.3,0.82,20,400,1E-11,3.5,0.01,0.5,0.1,,,,,,,,,,,,,,,,,,,,,,,,,,,,,,,,,,,,,,,,,,,,,,,,,,,,,,,,,,,,,,,,,,,,,,,,,,,,,,,,,
,,,,,249109,001,2025-03-17_10h37.42.839,Utility_discrimination_2024_2cat,2024.2.4,MacIntel,90.90909091,,,,,,,,4,"[0.5,0.5]","[0,1]",s,"[0.7673421099739005,0.7673421099739005]","[0.2326578900260995,0.2326578900260995]",207.919,210.423,1,s,1,0.984,,0.658545606,1.035210249,0.376664643,210.427,210.427,0,69,69,69,1,0.378135941,0.378135941,shape_difference2,1,,TRUE,,intensity,0.1,0.05,0.7,0.3,0.82,20,400,1E-11,3.5,0.01,0.5,0.1,,,,,,,,,,,,,,,,,,,,,,,,,,,,,,,,,,,,,,,,,,,,,,,,,,,,,,,,,,,,,,,,,,,,,,,,,,,,,,,,,
,,,,,249109,001,2025-03-17_10h37.42.839,Utility_discrimination_2024_2cat,2024.2.4,MacIntel,90.90909091,,,,,,,,0,"[0.5,0.5]","[1,0]",s,"[0.5,1.3343607423940995]","[0.5,-0.3343607423940995]",210.428,212.692,1,d,1,0.748,,0.006702372,0.349709696,0.343007325,212.695,212.695,0,70,70,70,1,0.834360742,0.834360742,shape_difference4,1,,TRUE,,intensity,0.1,0.05,0.7,0.3,0.82,20,400,1E-11,3.5,0.01,0.5,0.1,,,,,,,,,,,,,,,,,,,,,,,,,,,,,,,,,,,,,,,,,,,,,,,,,,,,,,,,,,,,,,,,,,,,,,,,,,,,,,,,,
,,,,,249109,001,2025-03-17_10h37.42.839,Utility_discrimination_2024_2cat,2024.2.4,MacIntel,90.90909091,,,,,,,,2,"[0.5,0.5]","[0.707,0.707]",d,"[0.6459405852700684,0.5]","[0.35405941472993163,0.5]",212.696,215.815,1,s,1,1.607,,0.151587629,0.61829064,0.466703012,215.818,215.818,0,71,71,71,1,0.145940585,0.145940585,shape_difference0,1,,TRUE,,intensity,0.1,0.05,0.7,0.3,0.82,20,400,1E-11,3.5,0.01,0.5,0.1,,,,,,,,,,,,,,,,,,,,,,,,,,,,,,,,,,,,,,,,,,,,,,,,,,,,,,,,,,,,,,,,,,,,,,,,,,,,,,,,,
,,,,,249109,001,2025-03-17_10h37.42.839,Utility_discrimination_2024_2cat,2024.2.4,MacIntel,90.90909091,,,,,,,,3,"[0.5,0.5]","[0.383,0.924]",s,"[0.7484625110402167,0.7484625110402167]","[0.25153748895978334,0.25153748895978334]",215.819,218.054,1,d,1,0.711,,0.11792241,0.491679304,0.373756894,218.055,218.055,0,72,72,72,1,0.351432123,0.351432123,shape_difference2,1,,TRUE,,intensity,0.1,0.05,0.7,0.3,0.82,20,400,1E-11,3.5,0.01,0.5,0.1,,,,,,,,,,,,,,,,,,,,,,,,,,,,,,,,,,,,,,,,,,,,,,,,,,,,,,,,,,,,,,,,,,,,,,,,,,,,,,,,,
,,,,,249109,001,2025-03-17_10h37.42.839,Utility_discrimination_2024_2cat,2024.2.4,MacIntel,90.90909091,,,,,,,,1,"[0.5,0.5]","[0.924,0.383]",d,"[0.6078674507344916,0.7602337453751179]","[0.3921325492655085,0.2397662546248821]",218.056,220.863,1,s,1,1.285,,0.007808208,0.305151892,0.297343683,220.864,220.864,0,73,73,73,1,0.281638253,0.281638253,shape_difference3,1,,TRUE,,intensity,0.1,0.05,0.7,0.3,0.82,20,400,1E-11,3.5,0.01,0.5,0.1,,,,,,,,,,,,,,,,,,,,,,,,,,,,,,,,,,,,,,,,,,,,,,,,,,,,,,,,,,,,,,,,,,,,,,,,,,,,,,,,,
,,,,,249109,001,2025-03-17_10h37.42.839,Utility_discrimination_2024_2cat,2024.2.4,MacIntel,90.90909091,,,,,,,,3,"[0.5,0.5]","[0.383,0.924]",s,"[0.6346231373309118,0.555801581815735]","[0.3653768626690882,0.4441984181842649]",220.865,223.022,1,d,1,0.645,,0.113930183,0.461986602,0.348056419,223.025,223.025,0,74,74,74,1,0.145696036,0.145696036,shape_difference1,1,,TRUE,,intensity,0.1,0.05,0.7,0.3,0.82,20,400,1E-11,3.5,0.01,0.5,0.1,,,,,,,,,,,,,,,,,,,,,,,,,,,,,,,,,,,,,,,,,,,,,,,,,,,,,,,,,,,,,,,,,,,,,,,,,,,,,,,,,
,,,,,249109,001,2025-03-17_10h37.42.839,Utility_discrimination_2024_2cat,2024.2.4,MacIntel,90.90909091,,,,,,,,1,"[0.5,0.5]","[0.924,0.383]",d,"[0.6029743125123108,0.7484288897163844]","[0.3970256874876892,0.25157111028361556]",223.026,225.53,1,s,1,0.969,,0.0053671,0.289018969,0.283651869,225.531,225.531,0,75,75,75,1,0.268862435,0.268862435,shape_difference3,1,,TRUE,,intensity,0.1,0.05,0.7,0.3,0.82,20,400,1E-11,3.5,0.01,0.5,0.1,,,,,,,,,,,,,,,,,,,,,,,,,,,,,,,,,,,,,,,,,,,,,,,,,,,,,,,,,,,,,,,,,,,,,,,,,,,,,,,,,
,,,,,249109,001,2025-03-17_10h37.42.839,Utility_discrimination_2024_2cat,2024.2.4,MacIntel,90.90909091,,,,,,,,2,"[0.5,0.5]","[0.707,0.707]",s,"[0.6233954241170534,0.5511476703861812]","[0.37660457588294666,0.4488523296138188]",225.532,227.998,1,s,1,0.951,,0.142840405,0.571160323,0.428319918,228.001,228.001,0,76,76,76,1,0.133544831,0.133544831,shape_difference1,1,,TRUE,,intensity,0.1,0.05,0.7,0.3,0.82,20,400,1E-11,3.5,0.01,0.5,0.1,,,,,,,,,,,,,,,,,,,,,,,,,,,,,,,,,,,,,,,,,,,,,,,,,,,,,,,,,,,,,,,,,,,,,,,,,,,,,,,,,
,,,,,249109,001,2025-03-17_10h37.42.839,Utility_discrimination_2024_2cat,2024.2.4,MacIntel,90.90909091,,,,,,,,0,"[0.5,0.5]","[1,0]",s,"[0.7318541605655936,0.7318541605655936]","[0.2681458394344064,0.2681458394344064]",228.002,230.709,0,d,0,1.183,,0.004178711,0.306080572,0.301901861,230.712,230.712,0,77,77,77,1,0.327940821,0.327940821,shape_difference2,1,,TRUE,,intensity,0.1,0.05,0.7,0.3,0.82,20,400,1E-11,3.5,0.01,0.5,0.1,,,,,,,,,,,,,,,,,,,,,,,,,,,,,,,,,,,,,,,,,,,,,,,,,,,,,,,,,,,,,,,,,,,,,,,,,,,,,,,,,
,,,,,249109,001,2025-03-17_10h37.42.839,Utility_discrimination_2024_2cat,2024.2.4,MacIntel,90.90909091,,,,,,,,4,"[0.5,0.5]","[0,1]",s,"[0.6317660800267447,0.5]","[0.3682339199732553,0.5]",230.715,233.655,1,d,1,1.416,,0.645489171,0.998423772,0.352934601,233.658,233.658,0,78,78,78,1,0.13176608,0.13176608,shape_difference0,1,,TRUE,,intensity,0.1,0.05,0.7,0.3,0.82,20,400,1E-11,3.5,0.01,0.5,0.1,,,,,,,,,,,,,,,,,,,,,,,,,,,,,,,,,,,,,,,,,,,,,,,,,,,,,,,,,,,,,,,,,,,,,,,,,,,,,,,,,
,,,,,249109,001,2025-03-17_10h37.42.839,Utility_discrimination_2024_2cat,2024.2.4,MacIntel,90.90909091,,,,,,,,1,"[0.5,0.5]","[0.924,0.383]",d,"[0.5,1.3138242881657107]","[0.5,-0.31382428816571073]",233.659,236.222,1,s,1,1.044,,0.003173599,0.274323782,0.271150183,236.225,236.225,0,79,79,79,1,0.813824288,0.813824288,shape_difference4,1,,TRUE,,intensity,0.1,0.05,0.7,0.3,0.82,20,400,1E-11,3.5,0.01,0.5,0.1,,,,,,,,,,,,,,,,,,,,,,,,,,,,,,,,,,,,,,,,,,,,,,,,,,,,,,,,,,,,,,,,,,,,,,,,,,,,,,,,,
,,,,,249109,001,2025-03-17_10h37.42.839,Utility_discrimination_2024_2cat,2024.2.4,MacIntel,90.90909091,,,,,,,,3,"[0.5,0.5]","[0.383,0.924]",s,"[0.6111773139673753,0.5460832372830138]","[0.38882268603262465,0.4539167627169862]",236.227,238.504,1,s,1,0.761,,0.110907612,0.422297864,0.311390253,238.507,238.507,0,80,80,80,1,0.120321768,0.120321768,shape_difference1,1,,TRUE,,intensity,0.1,0.05,0.7,0.3,0.82,20,400,1E-11,3.5,0.01,0.5,0.1,,,,,,,,,,,,,,,,,,,,,,,,,,,,,,,,,,,,,,,,,,,,,,,,,,,,,,,,,,,,,,,,,,,,,,,,,,,,,,,,,
,,,,,249109,001,2025-03-17_10h37.42.839,Utility_discrimination_2024_2cat,2024.2.4,MacIntel,90.90909091,,,,,,,,4,"[0.5,0.5]","[0,1]",s,"[0.5987427109946131,0.7382200129478395]","[0.4012572890053869,0.26177998705216055]",238.508,240.861,1,d,1,0.82,,0.63615357,0.98160827,0.3454547,240.864,240.864,0,81,81,81,1,0.257813867,0.257813867,shape_difference3,1,,TRUE,,intensity,0.1,0.05,0.7,0.3,0.82,20,400,1E-11,3.5,0.01,0.5,0.1,,,,,,,,,,,,,,,,,,,,,,,,,,,,,,,,,,,,,,,,,,,,,,,,,,,,,,,,,,,,,,,,,,,,,,,,,,,,,,,,,
,,,,,249109,001,2025-03-17_10h37.42.839,Utility_discrimination_2024_2cat,2024.2.4,MacIntel,90.90909091,,,,,,,,0,"[0.5,0.5]","[1,0]",d,"[0.5,1.2948148877212775]","[0.5,-0.2948148877212774]",240.864,243.146,1,d,1,0.753,,0.001895725,0.285555571,0.283659846,243.148,243.148,0,82,82,82,1,0.794814888,0.794814888,shape_difference4,1,,TRUE,,intensity,0.1,0.05,0.7,0.3,0.82,20,400,1E-11,3.5,0.01,0.5,0.1,,,,,,,,,,,,,,,,,,,,,,,,,,,,,,,,,,,,,,,,,,,,,,,,,,,,,,,,,,,,,,,,,,,,,,,,,,,,,,,,,
,,,,,249109,001,2025-03-17_10h37.42.839,Utility_discrimination_2024_2cat,2024.2.4,MacIntel,90.90909091,,,,,,,,2,"[0.5,0.5]","[0.707,0.707]",d,"[0.6164878576741757,0.5]","[0.38351214232582437,0.5]",243.148,246.198,1,s,1,1.524,,0.209624869,0.645758646,0.436133777,246.202,246.202,0,83,83,83,1,0.116487858,0.116487858,shape_difference0,1,,TRUE,,intensity,0.1,0.05,0.7,0.3,0.82,20,400,1E-11,3.5,0.01,0.5,0.1,,,,,,,,,,,,,,,,,,,,,,,,,,,,,,,,,,,,,,,,,,,,,,,,,,,,,,,,,,,,,,,,,,,,,,,,,,,,,,,,,
,,,,,249109,001,2025-03-17_10h37.42.839,Utility_discrimination_2024_2cat,2024.2.4,MacIntel,90.90909091,,,,,,,,4,"[0.5,0.5]","[0,1]",s,"[0.7703553941970758,0.7703553941970758]","[0.22964460580292417,0.22964460580292417]",246.204,249.113,1,s,1,1.388,,0.629341018,0.96012379,0.330782772,249.115,249.115,0,84,84,84,1,0.382398012,0.382398012,shape_difference2,1,,TRUE,,intensity,0.1,0.05,0.7,0.3,0.82,20,400,1E-11,3.5,0.01,0.5,0.1,,,,,,,,,,,,,,,,,,,,,,,,,,,,,,,,,,,,,,,,,,,,,,,,,,,,,,,,,,,,,,,,,,,,,,,,,,,,,,,,,
,,,,,249109,001,2025-03-17_10h37.42.839,Utility_discrimination_2024_2cat,2024.2.4,MacIntel,90.90909091,,,,,,,,0,"[0.5,0.5]","[1,0]",s,"[0.5,1.2831661322156749]","[0.5,-0.28316613221567477]",249.116,251.545,1,s,1,0.9,,-0.002809457,0.265901473,0.268710929,251.547,251.547,0,85,85,85,1,0.783166132,0.783166132,shape_difference4,1,,TRUE,,intensity,0.1,0.05,0.7,0.3,0.82,20,400,1E-11,3.5,0.01,0.5,0.1,,,,,,,,,,,,,,,,,,,,,,,,,,,,,,,,,,,,,,,,,,,,,,,,,,,,,,,,,,,,,,,,,,,,,,,,,,,,,,,,,
,,,,,249109,001,2025-03-17_10h37.42.839,Utility_discrimination_2024_2cat,2024.2.4,MacIntel,90.90909091,,,,,,,,3,"[0.5,0.5]","[0.383,0.924]",s,"[0.5996911813346756,0.5]","[0.4003088186653244,0.5]",251.549,254.588,0,d,0,1.519,,0.108554566,0.392836565,0.284281999,254.59,254.59,0,86,86,86,1,0.099691181,0.099691181,shape_difference0,1,,TRUE,,intensity,0.1,0.05,0.7,0.3,0.82,20,400,1E-11,3.5,0.01,0.5,0.1,,,,,,,,,,,,,,,,,,,,,,,,,,,,,,,,,,,,,,,,,,,,,,,,,,,,,,,,,,,,,,,,,,,,,,,,,,,,,,,,,
,,,,,249109,001,2025-03-17_10h37.42.839,Utility_discrimination_2024_2cat,2024.2.4,MacIntel,90.90909091,,,,,,,,2,"[0.5,0.5]","[0.707,0.707]",s,"[0.5949137966562357,0.7289826321419366]","[0.4050862033437644,0.2710173678580634]",254.591,256.88,1,s,1,0.77,,0.206317713,0.593281438,0.386963725,256.881,256.881,0,87,87,87,1,0.247816701,0.247816701,shape_difference3,1,,TRUE,,intensity,0.1,0.05,0.7,0.3,0.82,20,400,1E-11,3.5,0.01,0.5,0.1,,,,,,,,,,,,,,,,,,,,,,,,,,,,,,,,,,,,,,,,,,,,,,,,,,,,,,,,,,,,,,,,,,,,,,,,,,,,,,,,,
,,,,,249109,001,2025-03-17_10h37.42.839,Utility_discrimination_2024_2cat,2024.2.4,MacIntel,90.90909091,,,,,,,,1,"[0.5,0.5]","[0.924,0.383]",s,"[0.7568467155939744,0.7568467155939744]","[0.24315328440602552,0.24315328440602552]",256.882,259.191,1,d,1,0.787,,0.00111669,0.256142087,0.255025397,259.194,259.194,0,88,88,88,1,0.36329097,0.36329097,shape_difference2,1,,TRUE,,intensity,0.1,0.05,0.7,0.3,0.82,20,400,1E-11,3.5,0.01,0.5,0.1,,,,,,,,,,,,,,,,,,,,,,,,,,,,,,,,,,,,,,,,,,,,,,,,,,,,,,,,,,,,,,,,,,,,,,,,,,,,,,,,,
,,,,,249109,001,2025-03-17_10h37.42.839,Utility_discrimination_2024_2cat,2024.2.4,MacIntel,90.90909091,,,,,,,,3,"[0.5,0.5]","[0.383,0.924]",d,"[0.597480767927712,0.5404059893033698]","[0.402519232072288,0.4595940106966302]",259.195,261.647,1,s,1,0.929,,0.105891248,0.381477639,0.275586392,261.649,261.649,0,89,89,89,1,0.105498667,0.105498667,shape_difference1,1,,TRUE,,intensity,0.1,0.05,0.7,0.3,0.82,20,400,1E-11,3.5,0.01,0.5,0.1,,,,,,,,,,,,,,,,,,,,,,,,,,,,,,,,,,,,,,,,,,,,,,,,,,,,,,,,,,,,,,,,,,,,,,,,,,,,,,,,,
,,,,,249109,001,2025-03-17_10h37.42.839,Utility_discrimination_2024_2cat,2024.2.4,MacIntel,90.90909091,,,,,,,,4,"[0.5,0.5]","[0,1]",s,"[0.590997354396664,0.7195340873694974]","[0.409002645603336,0.2804659126305026]",261.65,264.065,1,s,1,0.893,,0.624269483,0.931671779,0.307402296,264.068,264.069,0,90,90,90,1,0.237591004,0.237591004,shape_difference3,1,,TRUE,,intensity,0.1,0.05,0.7,0.3,0.82,20,400,1E-11,3.5,0.01,0.5,0.1,,,,,,,,,,,,,,,,,,,,,,,,,,,,,,,,,,,,,,,,,,,,,,,,,,,,,,,,,,,,,,,,,,,,,,,,,,,,,,,,,
,,,,,249109,001,2025-03-17_10h37.42.839,Utility_discrimination_2024_2cat,2024.2.4,MacIntel,90.90909091,,,,,,,,0,"[0.5,0.5]","[1,0]",s,"[0.5,1.2734629285630163]","[0.5,-0.27346292856301635]",264.07,266.399,1,d,1,0.81,,0.009537337,0.307083413,0.297546076,266.402,266.402,0,91,91,91,1,0.773462929,0.773462929,shape_difference4,1,,TRUE,,intensity,0.1,0.05,0.7,0.3,0.82,20,400,1E-11,3.5,0.01,0.5,0.1,,,,,,,,,,,,,,,,,,,,,,,,,,,,,,,,,,,,,,,,,,,,,,,,,,,,,,,,,,,,,,,,,,,,,,,,,,,,,,,,,
,,,,,249109,001,2025-03-17_10h37.42.839,Utility_discrimination_2024_2cat,2024.2.4,MacIntel,90.90909091,,,,,,,,2,"[0.5,0.5]","[0.707,0.707]",d,"[0.6417714173612055,0.5]","[0.35822858263879453,0.5]",266.403,269.392,1,d,1,1.465,,0.203827856,0.557410169,0.353582314,269.395,269.395,0,92,92,92,1,0.141771417,0.141771417,shape_difference0,1,,TRUE,,intensity,0.1,0.05,0.7,0.3,0.82,20,400,1E-11,3.5,0.01,0.5,0.1,,,,,,,,,,,,,,,,,,,,,,,,,,,,,,,,,,,,,,,,,,,,,,,,,,,,,,,,,,,,,,,,,,,,,,,,,,,,,,,,,
,,,,,249109,001,2025-03-17_10h37.42.839,Utility_discrimination_2024_2cat,2024.2.4,MacIntel,90.90909091,,,,,,,,1,"[0.5,0.5]","[0.924,0.383]",d,"[0.7451542065188885,0.7451542065188885]","[0.25484579348111147,0.25484579348111147]",269.397,271.656,1,s,1,0.748,,-0.009291829,0.232962977,0.242254807,271.658,271.658,0,93,93,93,1,0.346752767,0.346752767,shape_difference2,1,,TRUE,,intensity,0.1,0.05,0.7,0.3,0.82,20,400,1E-11,3.5,0.01,0.5,0.1,,,,,,,,,,,,,,,,,,,,,,,,,,,,,,,,,,,,,,,,,,,,,,,,,,,,,,,,,,,,,,,,,,,,,,,,,,,,,,,,,
,,,,,249109,001,2025-03-17_10h37.42.839,Utility_discrimination_2024_2cat,2024.2.4,MacIntel,90.90909091,,,,,,,,0,"[0.5,0.5]","[1,0]",s,"[0.5866611649880166,0.535921240465812]","[0.41333883501198343,0.4640787595341879]",271.659,273.893,1,d,1,0.705,,0.007653709,0.287863307,0.280209599,273.896,273.896,0,94,94,94,1,0.09378914,0.09378914,shape_difference1,1,,TRUE,,intensity,0.1,0.05,0.7,0.3,0.82,20,400,1E-11,3.5,0.01,0.5,0.1,,,,,,,,,,,,,,,,,,,,,,,,,,,,,,,,,,,,,,,,,,,,,,,,,,,,,,,,,,,,,,,,,,,,,,,,,,,,,,,,,
,,,,,249109,001,2025-03-17_10h37.42.839,Utility_discrimination_2024_2cat,2024.2.4,MacIntel,90.90909091,,,,,,,,3,"[0.5,0.5]","[0.383,0.924]",d,"[0.629480086077497,0.5]","[0.370519913922503,0.5]",273.897,276.328,1,s,1,0.905,,0.103489126,0.367719517,0.264230391,276.33,276.33,0,95,95,95,1,0.129480086,0.129480086,shape_difference0,1,,TRUE,,intensity,0.1,0.05,0.7,0.3,0.82,20,400,1E-11,3.5,0.01,0.5,0.1,,,,,,,,,,,,,,,,,,,,,,,,,,,,,,,,,,,,,,,,,,,,,,,,,,,,,,,,,,,,,,,,,,,,,,,,,,,,,,,,,
,,,,,249109,001,2025-03-17_10h37.42.839,Utility_discrimination_2024_2cat,2024.2.4,MacIntel,90.90909091,,,,,,,,1,"[0.5,0.5]","[0.924,0.383]",s,"[0.5867155826654701,0.709204173323484]","[0.4132844173345299,0.29079582667651604]",276.332,278.669,1,d,1,0.811,,-0.026423201,0.202673993,0.229097194,278.671,278.671,0,96,96,96,1,0.226411443,0.226411443,shape_difference3,1,,TRUE,,intensity,0.1,0.05,0.7,0.3,0.82,20,400,1E-11,3.5,0.01,0.5,0.1,,,,,,,,,,,,,,,,,,,,,,,,,,,,,,,,,,,,,,,,,,,,,,,,,,,,,,,,,,,,,,,,,,,,,,,,,,,,,,,,,
,,,,,249109,001,2025-03-17_10h37.42.839,Utility_discrimination_2024_2cat,2024.2.4,MacIntel,90.90909091,,,,,,,,4,"[0.5,0.5]","[0,1]",d,"[0.5793325216597592,0.5328835019433851]","[0.42066747834024076,0.467116498056615]",278.672,280.915,1,s,1,0.724,,0.620421003,0.89850497,0.278083967,280.917,280.917,0,97,97,97,1,0.085857707,0.085857707,shape_difference1,1,,TRUE,,intensity,0.1,0.05,0.7,0.3,0.82,20,400,1E-11,3.5,0.01,0.5,0.1,,,,,,,,,,,,,,,,,,,,,,,,,,,,,,,,,,,,,,,,,,,,,,,,,,,,,,,,,,,,,,,,,,,,,,,,,,,,,,,,,
,,,,,249109,001,2025-03-17_10h37.42.839,Utility_discrimination_2024_2cat,2024.2.4,MacIntel,90.90909091,,,,,,,,2,"[0.5,0.5]","[0.707,0.707]",s,"[0.5,1.2651096726774127]","[0.5,-0.2651096726774128]",280.918,283.278,1,s,1,0.834,,0.200843774,0.519795306,0.318951532,283.281,283.281,0,98,98,98,1,0.765109673,0.765109673,shape_difference4,1,,TRUE,,intensity,0.1,0.05,0.7,0.3,0.82,20,400,1E-11,3.5,0.01,0.5,0.1,,,,,,,,,,,,,,,,,,,,,,,,,,,,,,,,,,,,,,,,,,,,,,,,,,,,,,,,,,,,,,,,,,,,,,,,,,,,,,,,,
,,,,,249109,001,2025-03-17_10h37.42.839,Utility_discrimination_2024_2cat,2024.2.4,MacIntel,90.90909091,,,,,,,,1,"[0.5,0.5]","[0.924,0.383]",s,"[0.7338773094210084,0.7338773094210084]","[0.2661226905789916,0.2661226905789916]",283.282,285.488,1,s,1,0.685,,-0.039547204,0.195052139,0.234599343,285.49,285.49,0,99,99,99,1,0.330802418,0.330802418,shape_difference2,1,,TRUE,,intensity,0.1,0.05,0.7,0.3,0.82,20,400,1E-11,3.5,0.01,0.5,0.1,,,,,,,,,,,,,,,,,,,,,,,,,,,,,,,,,,,,,,,,,,,,,,,,,,,,,,,,,,,,,,,,,,,,,,,,,,,,,,,,,
,,,,,249109,001,2025-03-17_10h37.42.839,Utility_discrimination_2024_2cat,2024.2.4,MacIntel,90.90909091,,,,,,,,4,"[0.5,0.5]","[0,1]",s,"[0.5732835452198354,0.5303761881160141]","[0.4267164547801646,0.469623811883986]",285.491,288.479,1,d,1,1.458,,0.617447332,0.888860419,0.271413087,288.481,288.481,0,100,100,100,1,0.079311196,0.079311196,shape_difference1,1,,TRUE,,intensity,0.1,0.05,0.7,0.3,0.82,20,400,1E-11,3.5,0.01,0.5,0.1,,,,,,,,,,,,,,,,,,,,,,,,,,,,,,,,,,,,,,,,,,,,,,,,,,,,,,,,,,,,,,,,,,,,,,,,,,,,,,,,,
,,,,,249109,001,2025-03-17_10h37.42.839,Utility_discrimination_2024_2cat,2024.2.4,MacIntel,90.90909091,,,,,,,,3,"[0.5,0.5]","[0.383,0.924]",d,"[0.5,1.2576531484792257]","[0.5,-0.2576531484792256]",288.482,290.746,1,d,1,0.735,,0.101232772,0.350528101,0.249295329,290.747,290.747,0,101,101,101,1,0.757653148,0.757653148,shape_difference4,1,,TRUE,,intensity,0.1,0.05,0.7,0.3,0.82,20,400,1E-11,3.5,0.01,0.5,0.1,,,,,,,,,,,,,,,,,,,,,,,,,,,,,,,,,,,,,,,,,,,,,,,,,,,,,,,,,,,,,,,,,,,,,,,,,,,,,,,,,
,,,,,249109,001,2025-03-17_10h37.42.839,Utility_discrimination_2024_2cat,2024.2.4,MacIntel,90.90909091,,,,,,,,2,"[0.5,0.5]","[0.707,0.707]",d,"[0.5818985337763637,0.6975828856641255]","[0.4181014662236363,0.3024171143358745]",290.748,293.32,1,d,1,1.048,,0.183979267,0.490548707,0.30656944,293.322,293.322,0,102,102,102,1,0.213834292,0.213834292,shape_difference3,1,,TRUE,,intensity,0.1,0.05,0.7,0.3,0.82,20,400,1E-11,3.5,0.01,0.5,0.1,,,,,,,,,,,,,,,,,,,,,,,,,,,,,,,,,,,,,,,,,,,,,,,,,,,,,,,,,,,,,,,,,,,,,,,,,,,,,,,,,
,,,,,249109,001,2025-03-17_10h37.42.839,Utility_discrimination_2024_2cat,2024.2.4,MacIntel,90.90909091,,,,,,,,0,"[0.5,0.5]","[1,0]",d,"[0.7216963891314361,0.7216963891314361]","[0.278303610868564,0.278303610868564]",293.323,295.994,1,s,1,1.152,,0.006038652,0.27111437,0.265075718,295.996,295.996,0,103,103,103,1,0.313573393,0.313573393,shape_difference2,1,,TRUE,,intensity,0.1,0.05,0.7,0.3,0.82,20,400,1E-11,3.5,0.01,0.5,0.1,,,,,,,,,,,,,,,,,,,,,,,,,,,,,,,,,,,,,,,,,,,,,,,,,,,,,,,,,,,,,,,,,,,,,,,,,,,,,,,,,
,,,,,249109,001,2025-03-17_10h37.42.839,Utility_discrimination_2024_2cat,2024.2.4,MacIntel,90.90909091,,,,,,,,2,"[0.5,0.5]","[0.707,0.707]",s,"[0.6161018388920553,0.5]","[0.3838981611079447,0.5]",295.996,298.305,1,s,1,0.783,,0.16659719,0.471488747,0.304891557,298.306,298.306,0,104,104,104,1,0.116101839,0.116101839,shape_difference0,1,,TRUE,,intensity,0.1,0.05,0.7,0.3,0.82,20,400,1E-11,3.5,0.01,0.5,0.1,,,,,,,,,,,,,,,,,,,,,,,,,,,,,,,,,,,,,,,,,,,,,,,,,,,,,,,,,,,,,,,,,,,,,,,,,,,,,,,,,
,,,,,249109,001,2025-03-17_10h37.42.839,Utility_discrimination_2024_2cat,2024.2.4,MacIntel,90.90909091,,,,,,,,3,"[0.5,0.5]","[0.383,0.924]",s,"[0.70988949976262,0.70988949976262]","[0.29011050023738005,0.29011050023738005]",298.307,300.687,1,s,1,0.851,,0.090124435,0.328467333,0.238342898,300.689,300.689,0,105,105,105,1,0.296873408,0.296873408,shape_difference2,1,,TRUE,,intensity,0.1,0.05,0.7,0.3,0.82,20,400,1E-11,3.5,0.01,0.5,0.1,,,,,,,,,,,,,,,,,,,,,,,,,,,,,,,,,,,,,,,,,,,,,,,,,,,,,,,,,,,,,,,,,,,,,,,,,,,,,,,,,
,,,,,249109,001,2025-03-17_10h37.42.839,Utility_discrimination_2024_2cat,2024.2.4,MacIntel,90.90909091,,,,,,,,1,"[0.5,0.5]","[0.924,0.383]",s,"[0.5764398370267863,0.6844136015998706]","[0.4235601629732138,0.31558639840012936]",300.69,303.282,1,d,1,1.072,,-0.04974678,0.189494112,0.239240892,303.284,303.284,0,106,106,106,1,0.19958182,0.19958182,shape_difference3,1,,TRUE,,intensity,0.1,0.05,0.7,0.3,0.82,20,400,1E-11,3.5,0.01,0.5,0.1,,,,,,,,,,,,,,,,,,,,,,,,,,,,,,,,,,,,,,,,,,,,,,,,,,,,,,,,,,,,,,,,,,,,,,,,,,,,,,,,,
,,,,,249109,001,2025-03-17_10h37.42.839,Utility_discrimination_2024_2cat,2024.2.4,MacIntel,90.90909091,,,,,,,,0,"[0.5,0.5]","[1,0]",d,"[0.5681998988461674,0.528269005690565]","[0.4318001011538326,0.47173099430943494]",303.285,305.465,1,s,1,0.657,,0.004600094,0.250476845,0.245876751,305.467,305.467,0,107,107,107,1,0.073809414,0.073809414,shape_difference1,1,,TRUE,,intensity,0.1,0.05,0.7,0.3,0.82,20,400,1E-11,3.5,0.01,0.5,0.1,,,,,,,,,,,,,,,,,,,,,,,,,,,,,,,,,,,,,,,,,,,,,,,,,,,,,,,,,,,,,,,,,,,,,,,,,,,,,,,,,
,,,,,249109,001,2025-03-17_10h37.42.839,Utility_discrimination_2024_2cat,2024.2.4,MacIntel,90.90909091,,,,,,,,4,"[0.5,0.5]","[0,1]",s,"[0.6011326729946902,0.5]","[0.39886732700530986,0.5]",305.468,307.862,0,s,0,0.87,,0.615110666,0.878224416,0.26311375,307.863,307.864,0,108,108,108,1,0.101132673,0.101132673,shape_difference0,1,,TRUE,,intensity,0.1,0.05,0.7,0.3,0.82,20,400,1E-11,3.5,0.01,0.5,0.1,,,,,,,,,,,,,,,,,,,,,,,,,,,,,,,,,,,,,,,,,,,,,,,,,,,,,,,,,,,,,,,,,,,,,,,,,,,,,,,,,
,,,,,249109,001,2025-03-17_10h37.42.839,Utility_discrimination_2024_2cat,2024.2.4,MacIntel,90.90909091,,,,,,,,2,"[0.5,0.5]","[0.707,0.707]",d,"[0.5,1.2507384905885346]","[0.5,-0.2507384905885346]",307.864,310.695,1,s,1,1.303,,0.153766386,0.447413478,0.293647093,310.697,310.697,0,109,109,109,1,0.750738491,0.750738491,shape_difference4,1,,TRUE,,intensity,0.1,0.05,0.7,0.3,0.82,20,400,1E-11,3.5,0.01,0.5,0.1,,,,,,,,,,,,,,,,,,,,,,,,,,,,,,,,,,,,,,,,,,,,,,,,,,,,,,,,,,,,,,,,,,,,,,,,,,,,,,,,,
,,,,,249109,001,2025-03-17_10h37.42.839,Utility_discrimination_2024_2cat,2024.2.4,MacIntel,90.90909091,,,,,,,,0,"[0.5,0.5]","[1,0]",s,"[0.7030756839579886,0.7030756839579886]","[0.29692431604201136,0.29692431604201136]",310.698,312.987,1,s,1,0.769,,0.010712992,0.288644297,0.277931305,312.989,312.989,0,110,110,110,1,0.287235762,0.287235762,shape_difference2,1,,TRUE,,intensity,0.1,0.05,0.7,0.3,0.82,20,400,1E-11,3.5,0.01,0.5,0.1,,,,,,,,,,,,,,,,,,,,,,,,,,,,,,,,,,,,,,,,,,,,,,,,,,,,,,,,,,,,,,,,,,,,,,,,,,,,,,,,,
,,,,,249109,001,2025-03-17_10h37.42.839,Utility_discrimination_2024_2cat,2024.2.4,MacIntel,90.90909091,,,,,,,,3,"[0.5,0.5]","[0.383,0.924]",s,"[0.6383179278451181,0.5]","[0.3616820721548819,0.5]",312.99,315.757,0,s,0,1.239,,0.071776365,0.299934859,0.228158494,315.76,315.76,0,111,111,111,1,0.138317928,0.138317928,shape_difference0,1,,TRUE,,intensity,0.1,0.05,0.7,0.3,0.82,20,400,1E-11,3.5,0.01,0.5,0.1,,,,,,,,,,,,,,,,,,,,,,,,,,,,,,,,,,,,,,,,,,,,,,,,,,,,,,,,,,,,,,,,,,,,,,,,,,,,,,,,,
,,,,,249109,001,2025-03-17_10h37.42.839,Utility_discrimination_2024_2cat,2024.2.4,MacIntel,90.90909091,,,,,,,,4,"[0.5,0.5]","[0,1]",d,"[0.5729977052599058,0.6761093463711565]","[0.4270022947400942,0.3238906536288435]",315.762,318.236,1,s,1,0.959,,0.613246002,0.865979944,0.252733942,318.238,318.238,0,112,112,112,1,0.190594531,0.190594531,shape_difference3,1,,TRUE,,intensity,0.1,0.05,0.7,0.3,0.82,20,400,1E-11,3.5,0.01,0.5,0.1,,,,,,,,,,,,,,,,,,,,,,,,,,,,,,,,,,,,,,,,,,,,,,,,,,,,,,,,,,,,,,,,,,,,,,,,,,,,,,,,,
,,,,,249109,001,2025-03-17_10h37.42.839,Utility_discrimination_2024_2cat,2024.2.4,MacIntel,90.90909091,,,,,,,,1,"[0.5,0.5]","[0.924,0.383]",s,"[0.5,1.2440780122985742]","[0.5,-0.2440780122985743]",318.239,320.869,1,s,1,1.113,,-0.057780825,0.183502512,0.241283337,320.871,320.871,0,113,113,113,1,0.744078012,0.744078012,shape_difference4,1,,TRUE,,intensity,0.1,0.05,0.7,0.3,0.82,20,400,1E-11,3.5,0.01,0.5,0.1,,,,,,,,,,,,,,,,,,,,,,,,,,,,,,,,,,,,,,,,,,,,,,,,,,,,,,,,,,,,,,,,,,,,,,,,,,,,,,,,,
,,,,,249109,001,2025-03-17_10h37.42.839,Utility_discrimination_2024_2cat,2024.2.4,MacIntel,90.90909091,,,,,,,,4,"[0.5,0.5]","[0,1]",s,"[0.5638378402419039,0.5264609229574125]","[0.4361621597580961,0.47353907704258746]",320.873,323.346,0,s,0,0.941,,0.611414696,0.853431186,0.24201649,323.348,323.348,0,114,114,114,1,0.069088572,0.069088572,shape_difference1,1,,TRUE,,intensity,0.1,0.05,0.7,0.3,0.82,20,400,1E-11,3.5,0.01,0.5,0.1,,,,,,,,,,,,,,,,,,,,,,,,,,,,,,,,,,,,,,,,,,,,,,,,,,,,,,,,,,,,,,,,,,,,,,,,,,,,,,,,,
,,,,,249109,001,2025-03-17_10h37.42.839,Utility_discrimination_2024_2cat,2024.2.4,MacIntel,90.90909091,,,,,,,,2,"[0.5,0.5]","[0.707,0.707]",d,"[0.5,1.236643150938633]","[0.5,-0.2366431509386332]",323.35,325.805,1,s,1,0.938,,0.144118583,0.416020357,0.271901775,325.808,325.808,0,115,115,115,1,0.736643151,0.736643151,shape_difference4,1,,TRUE,,intensity,0.1,0.05,0.7,0.3,0.82,20,400,1E-11,3.5,0.01,0.5,0.1,,,,,,,,,,,,,,,,,,,,,,,,,,,,,,,,,,,,,,,,,,,,,,,,,,,,,,,,,,,,,,,,,,,,,,,,,,,,,,,,,
,,,,,249109,001,2025-03-17_10h37.42.839,Utility_discrimination_2024_2cat,2024.2.4,MacIntel,90.90909091,,,,,,,,3,"[0.5,0.5]","[0.383,0.924]",s,"[0.6975154184169128,0.6975154184169128]","[0.3024845815830872,0.3024845815830872]",325.81,328.08,1,d,1,0.746,,0.057731647,0.295365771,0.237634124,328.083,328.083,0,116,116,116,1,0.279371172,0.279371172,shape_difference2,1,,TRUE,,intensity,0.1,0.05,0.7,0.3,0.82,20,400,1E-11,3.5,0.01,0.5,0.1,,,,,,,,,,,,,,,,,,,,,,,,,,,,,,,,,,,,,,,,,,,,,,,,,,,,,,,,,,,,,,,,,,,,,,,,,,,,,,,,,
,,,,,249109,001,2025-03-17_10h37.42.839,Utility_discrimination_2024_2cat,2024.2.4,MacIntel,90.90909091,,,,,,,,0,"[0.5,0.5]","[1,0]",d,"[0.5701456836898047,0.6692287512516437]","[0.4298543163101953,0.3307712487483563]",328.084,332.078,0,s,0,2.462,,0.01784255,0.338583093,0.320740543,332.079,332.08,0,117,117,117,1,0.183147999,0.183147999,shape_difference3,1,,TRUE,,intensity,0.1,0.05,0.7,0.3,0.82,20,400,1E-11,3.5,0.01,0.5,0.1,,,,,,,,,,,,,,,,,,,,,,,,,,,,,,,,,,,,,,,,,,,,,,,,,,,,,,,,,,,,,,,,,,,,,,,,,,,,,,,,,
,,,,,249109,001,2025-03-17_10h37.42.839,Utility_discrimination_2024_2cat,2024.2.4,MacIntel,90.90909091,,,,,,,,1,"[0.5,0.5]","[0.924,0.383]",d,"[0.6622381622934157,0.5]","[0.3377618377065843,0.5]",332.08,335.078,0,d,0,1.471,,0.002878544,0.198017906,0.195139362,335.081,335.081,0,118,118,118,1,0.162238162,0.162238162,shape_difference0,1,,TRUE,,intensity,0.1,0.05,0.7,0.3,0.82,20,400,1E-11,3.5,0.01,0.5,0.1,,,,,,,,,,,,,,,,,,,,,,,,,,,,,,,,,,,,,,,,,,,,,,,,,,,,,,,,,,,,,,,,,,,,,,,,,,,,,,,,,
,,,,,249109,001,2025-03-17_10h37.42.839,Utility_discrimination_2024_2cat,2024.2.4,MacIntel,90.90909091,,,,,,,,0,"[0.5,0.5]","[1,0]",s,"[0.5814131856994448,0.5337459416914365]","[0.4185868143005553,0.4662540583085635]",335.081,338.236,1,d,1,1.643,,0.062757117,0.441206766,0.378449649,338.238,338.238,0,119,119,119,1,0.088109508,0.088109508,shape_difference1,1,,TRUE,,intensity,0.1,0.05,0.7,0.3,0.82,20,400,1E-11,3.5,0.01,0.5,0.1,,,,,,,,,,,,,,,,,,,,,,,,,,,,,,,,,,,,,,,,,,,,,,,,,,,,,,,,,,,,,,,,,,,,,,,,,,,,,,,,,
,,,,,249109,001,2025-03-17_10h37.42.839,Utility_discrimination_2024_2cat,2024.2.4,MacIntel,90.90909091,,,,,,,,3,"[0.5,0.5]","[0.383,0.924]",d,"[0.7046794058463235,0.5]","[0.29532059415367656,0.5]",338.239,340.303,1,d,1,0.544,,0.105933673,0.33734616,0.231412487,340.306,340.306,0,120,120,120,1,0.204679406,0.204679406,shape_difference0,1,,TRUE,,intensity,0.1,0.05,0.7,0.3,0.82,20,400,1E-11,3.5,0.01,0.5,0.1,,,,,,,,,,,,,,,,,,,,,,,,,,,,,,,,,,,,,,,,,,,,,,,,,,,,,,,,,,,,,,,,,,,,,,,,,,,,,,,,,
,,,,,249109,001,2025-03-17_10h37.42.839,Utility_discrimination_2024_2cat,2024.2.4,MacIntel,90.90909091,,,,,,,,1,"[0.5,0.5]","[0.924,0.383]",d,"[0.5824361904111723,0.6988799998431418]","[0.4175638095888276,0.30112000015685825]",340.307,342.331,0,s,0,0.51,,0.001662924,0.193508753,0.191845829,342.333,342.333,0,121,121,121,1,0.215238095,0.215238095,shape_difference3,1,,TRUE,,intensity,0.1,0.05,0.7,0.3,0.82,20,400,1E-11,3.5,0.01,0.5,0.1,,,,,,,,,,,,,,,,,,,,,,,,,,,,,,,,,,,,,,,,,,,,,,,,,,,,,,,,,,,,,,,,,,,,,,,,,,,,,,,,,
,,,,,249109,001,2025-03-17_10h37.42.839,Utility_discrimination_2024_2cat,2024.2.4,MacIntel,90.90909091,,,,,,,,4,"[0.5,0.5]","[0,1]",d,"[0.5758683356835104,0.5314475893579919]","[0.4241316643164896,0.46855241064200814]",342.334,344.481,1,d,1,0.632,,0.609903692,0.837680195,0.227776503,344.483,344.483,0,122,122,122,1,0.082108588,0.082108588,shape_difference1,1,,TRUE,,intensity,0.1,0.05,0.7,0.3,0.82,20,400,1E-11,3.5,0.01,0.5,0.1,,,,,,,,,,,,,,,,,,,,,,,,,,,,,,,,,,,,,,,,,,,,,,,,,,,,,,,,,,,,,,,,,,,,,,,,,,,,,,,,,
,,,,,249109,001,2025-03-17_10h37.42.839,Utility_discrimination_2024_2cat,2024.2.4,MacIntel,90.90909091,,,,,,,,2,"[0.5,0.5]","[0.707,0.707]",d,"[0.5,1.2283623048396364]","[0.5,-0.2283623048396365]",344.484,346.613,0,d,0,0.612,,0.136736784,0.395797441,0.259060657,346.615,346.615,0,123,123,123,1,0.728362305,0.728362305,shape_difference4,1,,TRUE,,intensity,0.1,0.05,0.7,0.3,0.82,20,400,1E-11,3.5,0.01,0.5,0.1,,,,,,,,,,,,,,,,,,,,,,,,,,,,,,,,,,,,,,,,,,,,,,,,,,,,,,,,,,,,,,,,,,,,,,,,,,,,,,,,,
,,,,,249109,001,2025-03-17_10h37.42.839,Utility_discrimination_2024_2cat,2024.2.4,MacIntel,90.90909091,,,,,,,,2,"[0.5,0.5]","[0.707,0.707]",s,"[0.692868491053627,0.692868491053627]","[0.307131508946373,0.307131508946373]",346.616,348.852,1,d,1,0.726,,0.130996804,0.388320118,0.257323314,348.854,348.854,0,124,124,124,1,0.272798431,0.272798431,shape_difference2,1,,TRUE,,intensity,0.1,0.05,0.7,0.3,0.82,20,400,1E-11,3.5,0.01,0.5,0.1,,,,,,,,,,,,,,,,,,,,,,,,,,,,,,,,,,,,,,,,,,,,,,,,,,,,,,,,,,,,,,,,,,,,,,,,,,,,,,,,,
,,,,,249109,001,2025-03-17_10h37.42.839,Utility_discrimination_2024_2cat,2024.2.4,MacIntel,90.90909091,,,,,,,,4,"[0.5,0.5]","[0,1]",d,"[0.6888783306726866,0.6888783306726866]","[0.31112166932731344,0.31112166932731344]",348.855,351.097,0,d,0,0.722,,0.615713117,0.867008403,0.251295285,351.1,351.1,0,125,125,125,1,0.26715464,0.26715464,shape_difference2,1,,TRUE,,intensity,0.1,0.05,0.7,0.3,0.82,20,400,1E-11,3.5,0.01,0.5,0.1,,,,,,,,,,,,,,,,,,,,,,,,,,,,,,,,,,,,,,,,,,,,,,,,,,,,,,,,,,,,,,,,,,,,,,,,,,,,,,,,,
,,,,,249109,001,2025-03-17_10h37.42.839,Utility_discrimination_2024_2cat,2024.2.4,MacIntel,90.90909091,,,,,,,,1,"[0.5,0.5]","[0.924,0.383]",s,"[0.5,1.2487752070763962]","[0.5,-0.2487752070763961]",351.102,353.818,1,s,1,1.201,,0.000426961,0.188816135,0.188389174,353.82,353.82,0,126,126,126,1,0.748775207,0.748775207,shape_difference4,1,,TRUE,,intensity,0.1,0.05,0.7,0.3,0.82,20,400,1E-11,3.5,0.01,0.5,0.1,,,,,,,,,,,,,,,,,,,,,,,,,,,,,,,,,,,,,,,,,,,,,,,,,,,,,,,,,,,,,,,,,,,,,,,,,,,,,,,,,
,,,,,249109,001,2025-03-17_10h37.42.839,Utility_discrimination_2024_2cat,2024.2.4,MacIntel,90.90909091,,,,,,,,3,"[0.5,0.5]","[0.383,0.924]",s,"[0.5712882116821073,0.529549118045722]","[0.4287117883178927,0.47045088195427803]",353.821,355.847,0,d,0,0.498,,0.11246371,0.37215453,0.259690821,355.849,355.849,0,127,127,127,1,0.077151744,0.077151744,shape_difference1,1,,TRUE,,intensity,0.1,0.05,0.7,0.3,0.82,20,400,1E-11,3.5,0.01,0.5,0.1,,,,,,,,,,,,,,,,,,,,,,,,,,,,,,,,,,,,,,,,,,,,,,,,,,,,,,,,,,,,,,,,,,,,,,,,,,,,,,,,,
,,,,,249109,001,2025-03-17_10h37.42.839,Utility_discrimination_2024_2cat,2024.2.4,MacIntel,90.90909091,,,,,,,,0,"[0.5,0.5]","[1,0]",s,"[0.5930905581399943,0.724584009716331]","[0.40690944186000566,0.275415990283669]",355.85,358.852,1,s,1,1.481,,0.050010922,0.393571629,0.343560707,358.854,358.854,0,128,128,128,1,0.243056288,0.243056288,shape_difference3,1,,TRUE,,intensity,0.1,0.05,0.7,0.3,0.82,20,400,1E-11,3.5,0.01,0.5,0.1,,,,,,,,,,,,,,,,,,,,,,,,,,,,,,,,,,,,,,,,,,,,,,,,,,,,,,,,,,,,,,,,,,,,,,,,,,,,,,,,,
,,,,,249109,001,2025-03-17_10h37.42.839,Utility_discrimination_2024_2cat,2024.2.4,MacIntel,90.90909091,,,,,,,,1,"[0.5,0.5]","[0.924,0.383]",s,"[0.6905427821654314,0.5]","[0.3094572178345686,0.5]",358.855,361.237,1,d,1,0.85,,0.006354908,0.199773363,0.193418455,361.24,361.24,0,129,129,129,1,0.190542782,0.190542782,shape_difference0,1,,TRUE,,intensity,0.1,0.05,0.7,0.3,0.82,20,400,1E-11,3.5,0.01,0.5,0.1,,,,,,,,,,,,,,,,,,,,,,,,,,,,,,,,,,,,,,,,,,,,,,,,,,,,,,,,,,,,,,,,,,,,,,,,,,,,,,,,,
,,,,,249109,001,2025-03-17_10h37.42.839,Utility_discrimination_2024_2cat,2024.2.4,MacIntel,90.90909091,,,,,,,,2,"[0.5,0.5]","[0.707,0.707]",d,"[0.5888542699859033,0.5368302872344166]","[0.4111457300140967,0.4631697127655834]",361.241,364.953,1,s,1,2.198,,0.20091377,0.432779033,0.231865263,364.956,364.956,0,130,130,130,1,0.09616263,0.09616263,shape_difference1,1,,TRUE,,intensity,0.1,0.05,0.7,0.3,0.82,20,400,1E-11,3.5,0.01,0.5,0.1,,,,,,,,,,,,,,,,,,,,,,,,,,,,,,,,,,,,,,,,,,,,,,,,,,,,,,,,,,,,,,,,,,,,,,,,,,,,,,,,,
,,,,,249109,001,2025-03-17_10h37.42.839,Utility_discrimination_2024_2cat,2024.2.4,MacIntel,90.90909091,,,,,,,,0,"[0.5,0.5]","[1,0]",s,"[0.7050695178787292,0.7050695178787292]","[0.2949304821212708,0.2949304821212708]",364.957,367.737,1,d,1,1.264,,0.040696313,0.365934513,0.3252382,367.739,367.739,0,131,131,131,1,0.290055895,0.290055895,shape_difference2,1,,TRUE,,intensity,0.1,0.05,0.7,0.3,0.82,20,400,1E-11,3.5,0.01,0.5,0.1,,,,,,,,,,,,,,,,,,,,,,,,,,,,,,,,,,,,,,,,,,,,,,,,,,,,,,,,,,,,,,,,,,,,,,,,,,,,,,,,,
,,,,,249109,001,2025-03-17_10h37.42.839,Utility_discrimination_2024_2cat,2024.2.4,MacIntel,90.90909091,,,,,,,,3,"[0.5,0.5]","[0.383,0.924]",d,"[0.6810832847548027,0.5]","[0.3189167152451972,0.5]",367.74,369.881,0,d,0,0.613,,0.110673647,0.359011797,0.24833815,369.884,369.884,0,132,132,132,1,0.181083285,0.181083285,shape_difference0,1,,TRUE,,intensity,0.1,0.05,0.7,0.3,0.82,20,400,1E-11,3.5,0.01,0.5,0.1,,,,,,,,,,,,,,,,,,,,,,,,,,,,,,,,,,,,,,,,,,,,,,,,,,,,,,,,,,,,,,,,,,,,,,,,,,,,,,,,,
,,,,,249109,001,2025-03-17_10h37.42.839,Utility_discrimination_2024_2cat,2024.2.4,MacIntel,90.90909091,,,,,,,,4,"[0.5,0.5]","[0,1]",s,"[0.5899599497594876,0.7170313148244557]","[0.4100400502405124,0.2829686851755443]",369.884,372.763,0,s,0,1.346,,0.613600681,0.855566894,0.241966213,372.765,372.765,0,133,133,133,1,0.234882375,0.234882375,shape_difference3,1,,TRUE,,intensity,0.1,0.05,0.7,0.3,0.82,20,400,1E-11,3.5,0.01,0.5,0.1,,,,,,,,,,,,,,,,,,,,,,,,,,,,,,,,,,,,,,,,,,,,,,,,,,,,,,,,,,,,,,,,,,,,,,,,,,,,,,,,,
,,,,,249109,001,2025-03-17_10h37.42.839,Utility_discrimination_2024_2cat,2024.2.4,MacIntel,90.90909091,,,,,,,,1,"[0.5,0.5]","[0.924,0.383]",d,"[0.5,1.2424931796309382]","[0.5,-0.24249317963093808]",372.766,375.114,1,s,1,0.819,,0.005483026,0.195908204,0.190425178,375.117,375.117,0,134,134,134,1,0.74249318,0.74249318,shape_difference4,1,,TRUE,,intensity,0.1,0.05,0.7,0.3,0.82,20,400,1E-11,3.5,0.01,0.5,0.1,,,,,,,,,,,,,,,,,,,,,,,,,,,,,,,,,,,,,,,,,,,,,,,,,,,,,,,,,,,,,,,,,,,,,,,,,,,,,,,,,
,,,,,249109,001,2025-03-17_10h37.42.839,Utility_discrimination_2024_2cat,2024.2.4,MacIntel,90.90909091,,,,,,,,4,"[0.5,0.5]","[0,1]",s,"[0.5823667705939753,0.5341412046942561]","[0.4176332294060246,0.465858795305744]",375.118,377.328,1,s,1,0.692,,0.611889681,0.841345585,0.229455904,377.331,377.331,0,135,135,135,1,0.089141527,0.089141527,shape_difference1,1,,TRUE,,intensity,0.1,0.05,0.7,0.3,0.82,20,400,1E-11,3.5,0.01,0.5,0.1,,,,,,,,,,,,,,,,,,,,,,,,,,,,,,,,,,,,,,,,,,,,,,,,,,,,,,,,,,,,,,,,,,,,,,,,,,,,,,,,,
,,,,,249109,001,2025-03-17_10h37.42.839,Utility_discrimination_2024_2cat,2024.2.4,MacIntel,90.90909091,,,,,,,,3,"[0.5,0.5]","[0.383,0.924]",s,"[0.5,1.235575340771021]","[0.5,-0.23557534077102116]",377.333,379.405,1,s,1,0.556,,0.117483165,0.382830095,0.26534693,379.408,379.408,0,136,136,136,1,0.735575341,0.735575341,shape_difference4,1,,TRUE,,intensity,0.1,0.05,0.7,0.3,0.82,20,400,1E-11,3.5,0.01,0.5,0.1,,,,,,,,,,,,,,,,,,,,,,,,,,,,,,,,,,,,,,,,,,,,,,,,,,,,,,,,,,,,,,,,,,,,,,,,,,,,,,,,,
,,,,,249109,001,2025-03-17_10h37.42.839,Utility_discrimination_2024_2cat,2024.2.4,MacIntel,90.90909091,,,,,,,,0,"[0.5,0.5]","[1,0]",s,"[0.5975061044101253,0.7352366592035399]","[0.4024938955898747,0.26476334079646013]",379.41,381.43,1,s,1,0.503,,0.104127597,0.4477484,0.343620803,381.432,381.432,0,137,137,137,1,0.254585129,0.254585129,shape_difference3,1,,TRUE,,intensity,0.1,0.05,0.7,0.3,0.82,20,400,1E-11,3.5,0.01,0.5,0.1,,,,,,,,,,,,,,,,,,,,,,,,,,,,,,,,,,,,,,,,,,,,,,,,,,,,,,,,,,,,,,,,,,,,,,,,,,,,,,,,,
,,,,,249109,001,2025-03-17_10h37.42.839,Utility_discrimination_2024_2cat,2024.2.4,MacIntel,90.90909091,,,,,,,,2,"[0.5,0.5]","[0.707,0.707]",s,"[0.7248771906306999,0.5]","[0.2751228093693001,0.5]",381.433,383.702,1,d,1,0.753,,0.191610811,0.40038294,0.208772129,383.704,383.704,0,138,138,138,1,0.224877191,0.224877191,shape_difference0,1,,TRUE,,intensity,0.1,0.05,0.7,0.3,0.82,20,400,1E-11,3.5,0.01,0.5,0.1,,,,,,,,,,,,,,,,,,,,,,,,,,,,,,,,,,,,,,,,,,,,,,,,,,,,,,,,,,,,,,,,,,,,,,,,,,,,,,,,,
,,,,,249109,001,2025-03-17_10h37.42.839,Utility_discrimination_2024_2cat,2024.2.4,MacIntel,90.90909091,,,,,,,,0,"[0.5,0.5]","[1,0]",d,"[0.7001521400639155,0.7001521400639155]","[0.2998478599360845,0.2998478599360845]",383.705,386.107,1,d,1,0.872,,0.102113483,0.398979834,0.296866351,386.11,386.11,0,139,139,139,1,0.283100622,0.283100622,shape_difference2,1,,TRUE,,intensity,0.1,0.05,0.7,0.3,0.82,20,400,1E-11,3.5,0.01,0.5,0.1,,,,,,,,,,,,,,,,,,,,,,,,,,,,,,,,,,,,,,,,,,,,,,,,,,,,,,,,,,,,,,,,,,,,,,,,,,,,,,,,,
,,,,,249109,001,2025-03-17_10h37.42.839,Utility_discrimination_2024_2cat,2024.2.4,MacIntel,90.90909091,,,,,,,,2,"[0.5,0.5]","[0.707,0.707]",d,"[0.705490806006668,0.5]","[0.29450919399333203,0.5]",386.112,388.669,1,s,1,1.034,,0.175570554,0.39421308,0.218642526,388.671,388.671,0,140,140,140,1,0.205490806,0.205490806,shape_difference0,1,,TRUE,,intensity,0.1,0.05,0.7,0.3,0.82,20,400,1E-11,3.5,0.01,0.5,0.1,,,,,,,,,,,,,,,,,,,,,,,,,,,,,,,,,,,,,,,,,,,,,,,,,,,,,,,,,,,,,,,,,,,,,,,,,,,,,,,,,
,,,,,249109,001,2025-03-17_10h37.42.839,Utility_discrimination_2024_2cat,2024.2.4,MacIntel,90.90909091,,,,,,,,3,"[0.5,0.5]","[0.383,0.924]",s,"[0.6961235812574655,0.6961235812574655]","[0.3038764187425345,0.3038764187425345]",388.673,390.895,1,d,1,0.702,,0.115300039,0.370565603,0.255265564,390.897,390.897,0,141,141,141,1,0.277402519,0.277402519,shape_difference2,1,,TRUE,,intensity,0.1,0.05,0.7,0.3,0.82,20,400,1E-11,3.5,0.01,0.5,0.1,,,,,,,,,,,,,,,,,,,,,,,,,,,,,,,,,,,,,,,,,,,,,,,,,,,,,,,,,,,,,,,,,,,,,,,,,,,,,,,,,
,,,,,249109,001,2025-03-17_10h37.42.839,Utility_discrimination_2024_2cat,2024.2.4,MacIntel,90.90909091,,,,,,,,1,"[0.5,0.5]","[0.924,0.383]",d,"[0.5951395144074952,0.7295271835836177]","[0.4048604855925048,0.2704728164163823]",390.898,393.07,1,d,1,0.652,,0.004678702,0.191975211,0.187296509,393.073,393.073,0,142,142,142,1,0.248406043,0.248406043,shape_difference3,1,,TRUE,,intensity,0.1,0.05,0.7,0.3,0.82,20,400,1E-11,3.5,0.01,0.5,0.1,,,,,,,,,,,,,,,,,,,,,,,,,,,,,,,,,,,,,,,,,,,,,,,,,,,,,,,,,,,,,,,,,,,,,,,,,,,,,,,,,
,,,,,249109,001,2025-03-17_10h37.42.839,Utility_discrimination_2024_2cat,2024.2.4,MacIntel,90.90909091,,,,,,,,4,"[0.5,0.5]","[0,1]",d,"[0.5770798044269863,0.5319497457743894]","[0.42292019557301375,0.46805025422561064]",393.075,395.901,1,d,1,1.313,,0.610491432,0.82336324,0.212871808,395.903,395.903,0,143,143,143,1,0.083419702,0.083419702,shape_difference1,1,,TRUE,,intensity,0.1,0.05,0.7,0.3,0.82,20,400,1E-11,3.5,0.01,0.5,0.1,,,,,,,,,,,,,,,,,,,,,,,,,,,,,,,,,,,,,,,,,,,,,,,,,,,,,,,,,,,,,,,,,,,,,,,,,,,,,,,,,
,,,,,249109,001,2025-03-17_10h37.42.839,Utility_discrimination_2024_2cat,2024.2.4,MacIntel,90.90909091,,,,,,,,0,"[0.5,0.5]","[1,0]",d,"[0.5,1.2277984869067722]","[0.5,-0.2277984869067723]",395.904,398.064,1,d,1,0.641,,0.100221302,0.37685948,0.276638178,398.067,398.067,0,144,144,144,1,0.727798487,0.727798487,shape_difference4,1,,TRUE,,intensity,0.1,0.05,0.7,0.3,0.82,20,400,1E-11,3.5,0.01,0.5,0.1,,,,,,,,,,,,,,,,,,,,,,,,,,,,,,,,,,,,,,,,,,,,,,,,,,,,,,,,,,,,,,,,,,,,,,,,,,,,,,,,,
,,,,,249109,001,2025-03-17_10h37.42.839,Utility_discrimination_2024_2cat,2024.2.4,MacIntel,90.90909091,,,,,,,,1,"[0.5,0.5]","[0.924,0.383]",d,"[0.6927089298289161,0.5]","[0.3072910701710839,0.5]",398.068,400.202,1,d,1,0.619,,0.003912216,0.187844118,0.183931901,400.204,400.204,0,145,145,145,1,0.19270893,0.19270893,shape_difference0,1,,TRUE,,intensity,0.1,0.05,0.7,0.3,0.82,20,400,1E-11,3.5,0.01,0.5,0.1,,,,,,,,,,,,,,,,,,,,,,,,,,,,,,,,,,,,,,,,,,,,,,,,,,,,,,,,,,,,,,,,,,,,,,,,,,,,,,,,,
,,,,,249109,001,2025-03-17_10h37.42.839,Utility_discrimination_2024_2cat,2024.2.4,MacIntel,90.90909091,,,,,,,,4,"[0.5,0.5]","[0,1]",d,"[0.5727408749653948,0.5301512501209374]","[0.42725912503460517,0.46984874987906255]",400.205,403.252,1,d,1,1.533,,0.609337387,0.800288805,0.190951417,403.254,403.254,0,146,146,146,1,0.078723891,0.078723891,shape_difference1,1,,TRUE,,intensity,0.1,0.05,0.7,0.3,0.82,20,400,1E-11,3.5,0.01,0.5,0.1,,,,,,,,,,,,,,,,,,,,,,,,,,,,,,,,,,,,,,,,,,,,,,,,,,,,,,,,,,,,,,,,,,,,,,,,,,,,,,,,,
,,,,,249109,001,2025-03-17_10h37.42.839,Utility_discrimination_2024_2cat,2024.2.4,MacIntel,90.90909091,,,,,,,,2,"[0.5,0.5]","[0.707,0.707]",d,"[0.5,1.2189093484841367]","[0.5,-0.21890934848413657]",403.254,405.654,1,s,1,0.878,,0.163042182,0.388159508,0.225117325,405.656,405.656,0,147,147,147,1,0.718909348,0.718909348,shape_difference4,1,,TRUE,,intensity,0.1,0.05,0.7,0.3,0.82,20,400,1E-11,3.5,0.01,0.5,0.1,,,,,,,,,,,,,,,,,,,,,,,,,,,,,,,,,,,,,,,,,,,,,,,,,,,,,,,,,,,,,,,,,,,,,,,,,,,,,,,,,
,,,,,249109,001,2025-03-17_10h37.42.839,Utility_discrimination_2024_2cat,2024.2.4,MacIntel,90.90909091,,,,,,,,3,"[0.5,0.5]","[0.383,0.924]",s,"[0.6927659245809389,0.6927659245809389]","[0.3072340754190611,0.3072340754190611]",405.658,408.063,1,s,1,0.892,,0.113232035,0.358622741,0.245390706,408.065,408.065,0,148,148,148,1,0.272653359,0.272653359,shape_difference2,1,,TRUE,,intensity,0.1,0.05,0.7,0.3,0.82,20,400,1E-11,3.5,0.01,0.5,0.1,,,,,,,,,,,,,,,,,,,,,,,,,,,,,,,,,,,,,,,,,,,,,,,,,,,,,,,,,,,,,,,,,,,,,,,,,,,,,,,,,
,,,,,249109,001,2025-03-17_10h37.42.839,Utility_discrimination_2024_2cat,2024.2.4,MacIntel,90.90909091,,,,,,,,1,"[0.5,0.5]","[0.924,0.383]",s,"[0.592613665355069,0.7234334903083126]","[0.40738633464493107,0.27656650969168745]",408.066,410.293,1,s,1,0.705,,0.003157914,0.183375601,0.180217687,410.295,410.295,0,149,149,149,1,0.241811137,0.241811137,shape_difference3,1,,TRUE,,intensity,0.1,0.05,0.7,0.3,0.82,20,400,1E-11,3.5,0.01,0.5,0.1,,,,,,,,,,,,,,,,,,,,,,,,,,,,,,,,,,,,,,,,,,,,,,,,,,,,,,,,,,,,,,,,,,,,,,,,,,,,,,,,,
,,,,,249109,001,2025-03-17_10h37.42.839,Utility_discrimination_2024_2cat,2024.2.4,MacIntel,90.90909091,,,,,,,,2,"[0.5,0.5]","[0.707,0.707]",s,"[0.5691528245144847,0.5286639954426923]","[0.4308471754855153,0.47133600455730773]",410.296,412.454,1,s,1,0.635,,0.153124711,0.381657955,0.228533243,412.456,412.456,0,150,150,150,1,0.074840719,0.074840719,shape_difference1,1,,TRUE,,intensity,0.1,0.05,0.7,0.3,0.82,20,400,1E-11,3.5,0.01,0.5,0.1,,,,,,,,,,,,,,,,,,,,,,,,,,,,,,,,,,,,,,,,,,,,,,,,,,,,,,,,,,,,,,,,,,,,,,,,,,,,,,,,,
,,,,,249109,001,2025-03-17_10h37.42.839,Utility_discrimination_2024_2cat,2024.2.4,MacIntel,90.90909091,,,,,,,,0,"[0.5,0.5]","[1,0]",s,"[0.6899117569920279,0.6899117569920279]","[0.3100882430079721,0.3100882430079721]",412.458,414.753,1,d,1,0.78,,0.082963862,0.349441023,0.266477161,414.755,414.755,0,151,151,151,1,0.268616347,0.268616347,shape_difference2,1,,TRUE,,intensity,0.1,0.05,0.7,0.3,0.82,20,400,1E-11,3.5,0.01,0.5,0.1,,,,,,,,,,,,,,,,,,,,,,,,,,,,,,,,,,,,,,,,,,,,,,,,,,,,,,,,,,,,,,,,,,,,,,,,,,,,,,,,,
,,,,,249109,001,2025-03-17_10h37.42.839,Utility_discrimination_2024_2cat,2024.2.4,MacIntel,90.90909091,,,,,,,,4,"[0.5,0.5]","[0,1]",d,"[0.6846164725679984,0.5]","[0.3153835274320016,0.5]",414.756,417.085,1,s,1,0.811,,0.608374001,0.797376077,0.189002076,417.087,417.087,0,152,152,152,1,0.184616473,0.184616473,shape_difference0,1,,TRUE,,intensity,0.1,0.05,0.7,0.3,0.82,20,400,1E-11,3.5,0.01,0.5,0.1,,,,,,,,,,,,,,,,,,,,,,,,,,,,,,,,,,,,,,,,,,,,,,,,,,,,,,,,,,,,,,,,,,,,,,,,,,,,,,,,,
,,,,,249109,001,2025-03-17_10h37.42.839,Utility_discrimination_2024_2cat,2024.2.4,MacIntel,90.90909091,,,,,,,,3,"[0.5,0.5]","[0.383,0.924]",s,"[0.5,1.2086157152126333]","[0.5,-0.20861571521263333]",417.088,419.301,1,s,1,0.693,,0.111557671,0.343892234,0.232334563,419.304,419.304,0,153,153,153,1,0.708615715,0.708615715,shape_difference4,1,,TRUE,,intensity,0.1,0.05,0.7,0.3,0.82,20,400,1E-11,3.5,0.01,0.5,0.1,,,,,,,,,,,,,,,,,,,,,,,,,,,,,,,,,,,,,,,,,,,,,,,,,,,,,,,,,,,,,,,,,,,,,,,,,,,,,,,,,
,,,,,249109,001,2025-03-17_10h37.42.839,Utility_discrimination_2024_2cat,2024.2.4,MacIntel,90.90909091,,,,,,,,4,"[0.5,0.5]","[0,1]",s,"[0.589838906603177,0.7167392942593616]","[0.41016109339682305,0.28326070574063844]",419.305,421.597,1,d,1,0.773,,0.607558962,0.794712595,0.187153633,421.6,421.6,0,154,154,154,1,0.234566336,0.234566336,shape_difference3,1,,TRUE,,intensity,0.1,0.05,0.7,0.3,0.82,20,400,1E-11,3.5,0.01,0.5,0.1,,,,,,,,,,,,,,,,,,,,,,,,,,,,,,,,,,,,,,,,,,,,,,,,,,,,,,,,,,,,,,,,,,,,,,,,,,,,,,,,,
,,,,,249109,001,2025-03-17_10h37.42.839,Utility_discrimination_2024_2cat,2024.2.4,MacIntel,90.90909091,,,,,,,,1,"[0.5,0.5]","[0.924,0.383]",d,"[0.5,1.197896798859618]","[0.5,-0.1978967988596182]",421.602,424.003,1,s,1,0.882,,0.002392799,0.178415434,0.176022635,424.006,424.006,0,155,155,155,1,0.697896799,0.697896799,shape_difference4,1,,TRUE,,intensity,0.1,0.05,0.7,0.3,0.82,20,400,1E-11,3.5,0.01,0.5,0.1,,,,,,,,,,,,,,,,,,,,,,,,,,,,,,,,,,,,,,,,,,,,,,,,,,,,,,,,,,,,,,,,,,,,,,,,,,,,,,,,,
,,,,,249109,001,2025-03-17_10h37.42.839,Utility_discrimination_2024_2cat,2024.2.4,MacIntel,90.90909091,,,,,,,,0,"[0.5,0.5]","[1,0]",s,"[0.5661601602656389,0.5274235296339174]","[0.4338398397343612,0.47257647036608263]",424.007,426.327,1,s,1,0.792,,0.068082617,0.314288433,0.246205816,426.328,426.328,0,156,156,156,1,0.071601905,0.071601905,shape_difference1,1,,TRUE,,intensity,0.1,0.05,0.7,0.3,0.82,20,400,1E-11,3.5,0.01,0.5,0.1,,,,,,,,,,,,,,,,,,,,,,,,,,,,,,,,,,,,,,,,,,,,,,,,,,,,,,,,,,,,,,,,,,,,,,,,,,,,,,,,,
,,,,,249109,001,2025-03-17_10h37.42.839,Utility_discrimination_2024_2cat,2024.2.4,MacIntel,90.90909091,,,,,,,,3,"[0.5,0.5]","[0.383,0.924]",s,"[0.678136640321803,0.5]","[0.321863359678197,0.5]",426.329,428.644,1,s,1,0.785,,0.110188119,0.325363038,0.215174918,428.645,428.645,0,157,157,157,1,0.17813664,0.17813664,shape_difference0,1,,TRUE,,intensity,0.1,0.05,0.7,0.3,0.82,20,400,1E-11,3.5,0.01,0.5,0.1,,,,,,,,,,,,,,,,,,,,,,,,,,,,,,,,,,,,,,,,,,,,,,,,,,,,,,,,,,,,,,,,,,,,,,,,,,,,,,,,,
,,,,,249109,001,2025-03-17_10h37.42.839,Utility_discrimination_2024_2cat,2024.2.4,MacIntel,90.90909091,,,,,,,,2,"[0.5,0.5]","[0.707,0.707]",s,"[0.5867243488347242,0.7092253219929117]","[0.4132756511652758,0.2907746780070884]",428.645,430.81,1,d,1,0.636,,0.145177975,0.374437883,0.229259907,430.811,430.811,0,158,158,158,1,0.226434331,0.226434331,shape_difference3,1,,TRUE,,intensity,0.1,0.05,0.7,0.3,0.82,20,400,1E-11,3.5,0.01,0.5,0.1,,,,,,,,,,,,,,,,,,,,,,,,,,,,,,,,,,,,,,,,,,,,,,,,,,,,,,,,,,,,,,,,,,,,,,,,,,,,,,,,,
,,,,,249109,001,2025-03-17_10h37.42.839,Utility_discrimination_2024_2cat,2024.2.4,MacIntel,90.90909091,,,,,,,,2,"[0.5,0.5]","[0.707,0.707]",d,"[0.6874301056837062,0.6874301056837062]","[0.31256989431629384,0.31256989431629384]",430.811,433.477,1,d,1,1.136,,0.138740522,0.366183661,0.227443139,433.478,433.478,0,159,159,159,1,0.265106232,0.265106232,shape_difference2,1,,TRUE,,intensity,0.1,0.05,0.7,0.3,0.82,20,400,1E-11,3.5,0.01,0.5,0.1,,,,,,,,,,,,,,,,,,,,,,,,,,,,,,,,,,,,,,,,,,,,,,,,,,,,,,,,,,,,,,,,,,,,,,,,,,,,,,,,,
,,,,,249109,001,2025-03-17_10h37.42.839,Utility_discrimination_2024_2cat,2024.2.4,MacIntel,90.90909091,,,,,,,,3,"[0.5,0.5]","[0.383,0.924]",d,"[0.6852163450302479,0.6852163450302479]","[0.31478365496975214,0.31478365496975214]",433.479,436.477,1,d,1,1.469,,0.109055041,0.301665001,0.192609959,436.478,436.478,0,160,160,160,1,0.261975028,0.261975028,shape_difference2,1,,TRUE,,intensity,0.1,0.05,0.7,0.3,0.82,20,400,1E-11,3.5,0.01,0.5,0.1,,,,,,,,,,,,,,,,,,,,,,,,,,,,,,,,,,,,,,,,,,,,,,,,,,,,,,,,,,,,,,,,,,,,,,,,,,,,,,,,,
,,,,,249109,001,2025-03-17_10h37.42.839,Utility_discrimination_2024_2cat,2024.2.4,MacIntel,90.90909091,,,,,,,,0,"[0.5,0.5]","[1,0]",d,"[0.5831673814993424,0.7006440222072909]","[0.41683261850065756,0.29935597779270906]",436.479,438.893,1,d,1,0.885,,0.056625673,0.294840352,0.238214679,438.894,438.894,0,161,161,161,1,0.21714721,0.21714721,shape_difference3,1,,TRUE,,intensity,0.1,0.05,0.7,0.3,0.82,20,400,1E-11,3.5,0.01,0.5,0.1,,,,,,,,,,,,,,,,,,,,,,,,,,,,,,,,,,,,,,,,,,,,,,,,,,,,,,,,,,,,,,,,,,,,,,,,,,,,,,,,,
,,,,,249109,001,2025-03-17_10h37.42.839,Utility_discrimination_2024_2cat,2024.2.4,MacIntel,90.90909091,,,,,,,,1,"[0.5,0.5]","[0.924,0.383]",d,"[0.6728363541800277,0.5]","[0.32716364581997226,0.5]",438.895,441.227,1,s,1,0.801,,0.00159543,0.172787855,0.171192426,441.228,441.228,0,162,162,162,1,0.172836354,0.172836354,shape_difference0,1,,TRUE,,intensity,0.1,0.05,0.7,0.3,0.82,20,400,1E-11,3.5,0.01,0.5,0.1,,,,,,,,,,,,,,,,,,,,,,,,,,,,,,,,,,,,,,,,,,,,,,,,,,,,,,,,,,,,,,,,,,,,,,,,,,,,,,,,,
,,,,,249109,001,2025-03-17_10h37.42.839,Utility_discrimination_2024_2cat,2024.2.4,MacIntel,90.90909091,,,,,,,,4,"[0.5,0.5]","[0,1]",s,"[0.5636389755972341,0.526378493131754]","[0.4363610244027659,0.47362150686824606]",441.229,443.377,0,s,0,0.623,,0.606858407,0.791959431,0.185101024,443.378,443.378,0,163,163,163,1,0.06887335,0.06887335,shape_difference1,1,,TRUE,,intensity,0.1,0.05,0.7,0.3,0.82,20,400,1E-11,3.5,0.01,0.5,0.1,,,,,,,,,,,,,,,,,,,,,,,,,,,,,,,,,,,,,,,,,,,,,,,,,,,,,,,,,,,,,,,,,,,,,,,,,,,,,,,,,
,,,,,249109,001,2025-03-17_10h37.42.839,Utility_discrimination_2024_2cat,2024.2.4,MacIntel,90.90909091,,,,,,,,2,"[0.5,0.5]","[0.707,0.707]",d,"[0.5,1.1909773408407702]","[0.5,-0.19097734084077023]",443.379,445.576,1,d,1,0.669,,0.133474945,0.356515026,0.223040081,445.578,445.578,0,164,164,164,1,0.690977341,0.690977341,shape_difference4,1,,TRUE,,intensity,0.1,0.05,0.7,0.3,0.82,20,400,1E-11,3.5,0.01,0.5,0.1,,,,,,,,,,,,,,,,,,,,,,,,,,,,,,,,,,,,,,,,,,,,,,,,,,,,,,,,,,,,,,,,,,,,,,,,,,,,,,,,,
,,,,,249109,001,2025-03-17_10h37.42.839,Utility_discrimination_2024_2cat,2024.2.4,MacIntel,90.90909091,,,,,,,,4,"[0.5,0.5]","[0,1]",d,"[0.6831848549374616,0.6831848549374616]","[0.3168151450625384,0.3168151450625384]",445.578,447.793,0,d,0,0.687,,0.606244835,0.789032569,0.182787735,447.795,447.795,0,165,165,165,1,0.259101634,0.259101634,shape_difference2,1,,TRUE,,intensity,0.1,0.05,0.7,0.3,0.82,20,400,1E-11,3.5,0.01,0.5,0.1,,,,,,,,,,,,,,,,,,,,,,,,,,,,,,,,,,,,,,,,,,,,,,,,,,,,,,,,,,,,,,,,,,,,,,,,,,,,,,,,,
,,,,,249109,001,2025-03-17_10h37.42.839,Utility_discrimination_2024_2cat,2024.2.4,MacIntel,90.90909091,,,,,,,,1,"[0.5,0.5]","[0.924,0.383]",s,"[0.5,1.1852908365461063]","[0.5,-0.18529083654610623]",447.795,450.509,0,d,0,1.19,,0.005494667,0.186900765,0.181406098,450.511,450.511,0,166,166,166,1,0.685290837,0.685290837,shape_difference4,1,,TRUE,,intensity,0.1,0.05,0.7,0.3,0.82,20,400,1E-11,3.5,0.01,0.5,0.1,,,,,,,,,,,,,,,,,,,,,,,,,,,,,,,,,,,,,,,,,,,,,,,,,,,,,,,,,,,,,,,,,,,,,,,,,,,,,,,,,
,,,,,249109,001,2025-03-17_10h37.42.839,Utility_discrimination_2024_2cat,2024.2.4,MacIntel,90.90909091,,,,,,,,0,"[0.5,0.5]","[1,0]",s,"[0.5734948913681874,0.5304637915519651]","[0.4265051086318125,0.46953620844803484]",450.511,452.96,0,s,0,0.92,,0.047656852,0.28682964,0.239172788,452.961,452.961,0,167,167,167,1,0.079539926,0.079539926,shape_difference1,1,,TRUE,,intensity,0.1,0.05,0.7,0.3,0.82,20,400,1E-11,3.5,0.01,0.5,0.1,,,,,,,,,,,,,,,,,,,,,,,,,,,,,,,,,,,,,,,,,,,,,,,,,,,,,,,,,,,,,,,,,,,,,,,,,,,,,,,,,
,,,,,249109,001,2025-03-17_10h37.42.839,Utility_discrimination_2024_2cat,2024.2.4,MacIntel,90.90909091,,,,,,,,3,"[0.5,0.5]","[0.383,0.924]",d,"[0.6683955773924339,0.5]","[0.3316044226075661,0.5]",452.962,455.293,1,s,1,0.802,,0.108105229,0.297394267,0.189289038,455.294,455.294,0,168,168,168,1,0.168395577,0.168395577,shape_difference0,1,,TRUE,,intensity,0.1,0.05,0.7,0.3,0.82,20,400,1E-11,3.5,0.01,0.5,0.1,,,,,,,,,,,,,,,,,,,,,,,,,,,,,,,,,,,,,,,,,,,,,,,,,,,,,,,,,,,,,,,,,,,,,,,,,,,,,,,,,
,,,,,249109,001,2025-03-17_10h37.42.839,Utility_discrimination_2024_2cat,2024.2.4,MacIntel,90.90909091,,,,,,,,3,"[0.5,0.5]","[0.383,0.924]",s,"[0.5790499878251919,0.6907106755887138]","[0.42095001217480804,0.30928932441128626]",455.295,458.026,1,d,1,1.203,,0.107296711,0.294610927,0.187314216,458.027,458.027,0,169,169,169,1,0.206396835,0.206396835,shape_difference3,1,,TRUE,,intensity,0.1,0.05,0.7,0.3,0.82,20,400,1E-11,3.5,0.01,0.5,0.1,,,,,,,,,,,,,,,,,,,,,,,,,,,,,,,,,,,,,,,,,,,,,,,,,,,,,,,,,,,,,,,,,,,,,,,,,,,,,,,,,
,,,,,249109,001,2025-03-17_10h37.42.839,Utility_discrimination_2024_2cat,2024.2.4,MacIntel,90.90909091,,,,,,,,1,"[0.5,0.5]","[0.924,0.383]",d,"[0.5752051334285269,0.6814348388719551]","[0.4247948665714732,0.31856516112804495]",458.028,460.626,1,d,1,1.068,,0.007839861,0.195750588,0.187910727,460.627,460.627,0,170,170,170,1,0.196358051,0.196358051,shape_difference3,1,,TRUE,,intensity,0.1,0.05,0.7,0.3,0.82,20,400,1E-11,3.5,0.01,0.5,0.1,,,,,,,,,,,,,,,,,,,,,,,,,,,,,,,,,,,,,,,,,,,,,,,,,,,,,,,,,,,,,,,,,,,,,,,,,,,,,,,,,
,,,,,249109,001,2025-03-17_10h37.42.839,Utility_discrimination_2024_2cat,2024.2.4,MacIntel,90.90909091,,,,,,,,0,"[0.5,0.5]","[1,0]",d,"[0.5894530029683489,0.5370784633515991]","[0.4105469970316511,0.46292153664840086]",460.628,463.342,1,d,1,1.189,,0.040530729,0.278276372,0.237745643,463.344,463.344,0,171,171,171,1,0.096810609,0.096810609,shape_difference1,1,,TRUE,,intensity,0.1,0.05,0.7,0.3,0.82,20,400,1E-11,3.5,0.01,0.5,0.1,,,,,,,,,,,,,,,,,,,,,,,,,,,,,,,,,,,,,,,,,,,,,,,,,,,,,,,,,,,,,,,,,,,,,,,,,,,,,,,,,
,,,,,249109,001,2025-03-17_10h37.42.839,Utility_discrimination_2024_2cat,2024.2.4,MacIntel,90.90909091,,,,,,,,4,"[0.5,0.5]","[0,1]",d,"[0.6645730770544815,0.5]","[0.3354269229455184,0.5]",463.345,466.162,1,d,1,1.294,,0.608763465,0.795962835,0.187199371,466.165,466.165,0,172,172,172,1,0.164573077,0.164573077,shape_difference0,1,,TRUE,,intensity,0.1,0.05,0.7,0.3,0.82,20,400,1E-11,3.5,0.01,0.5,0.1,,,,,,,,,,,,,,,,,,,,,,,,,,,,,,,,,,,,,,,,,,,,,,,,,,,,,,,,,,,,,,,,,,,,,,,,,,,,,,,,,
,,,,,249109,001,2025-03-17_10h37.42.839,Utility_discrimination_2024_2cat,2024.2.4,MacIntel,90.90909091,,,,,,,,2,"[0.5,0.5]","[0.707,0.707]",d,"[0.5,1.2090281141362824]","[0.5,-0.20902811413628242]",466.166,468.993,1,s,1,1.302,,0.200681603,0.381598224,0.180916622,468.994,468.994,0,173,173,173,1,0.709028114,0.709028114,shape_difference4,1,,TRUE,,intensity,0.1,0.05,0.7,0.3,0.82,20,400,1E-11,3.5,0.01,0.5,0.1,,,,,,,,,,,,,,,,,,,,,,,,,,,,,,,,,,,,,,,,,,,,,,,,,,,,,,,,,,,,,,,,,,,,,,,,,,,,,,,,,
,,,,,249109,001,2025-03-17_10h37.42.839,Utility_discrimination_2024_2cat,2024.2.4,MacIntel,90.90909091,,,,,,,,1,"[0.5,0.5]","[0.924,0.383]",s,"[0.6919941155728084,0.6919941155728084]","[0.3080058844271916,0.3080058844271916]",468.995,471.409,1,d,1,0.886,,0.00721213,0.192710206,0.185498075,471.411,471.411,0,174,174,174,1,0.271561691,0.271561691,shape_difference2,1,,TRUE,,intensity,0.1,0.05,0.7,0.3,0.82,20,400,1E-11,3.5,0.01,0.5,0.1,,,,,,,,,,,,,,,,,,,,,,,,,,,,,,,,,,,,,,,,,,,,,,,,,,,,,,,,,,,,,,,,,,,,,,,,,,,,,,,,,
,,,,,249109,001,2025-03-17_10h37.42.839,Utility_discrimination_2024_2cat,2024.2.4,MacIntel,90.90909091,,,,,,,,2,"[0.5,0.5]","[0.707,0.707]",d,"[0.5832273663465702,0.534497923496468]","[0.4167726336534297,0.46550207650353204]",471.411,473.893,1,d,1,0.948,,0.194050531,0.375420443,0.181369912,473.894,473.894,0,175,175,175,1,0.090072907,0.090072907,shape_difference1,1,,TRUE,,intensity,0.1,0.05,0.7,0.3,0.82,20,400,1E-11,3.5,0.01,0.5,0.1,,,,,,,,,,,,,,,,,,,,,,,,,,,,,,,,,,,,,,,,,,,,,,,,,,,,,,,,,,,,,,,,,,,,,,,,,,,,,,,,,
,,,,,249109,001,2025-03-17_10h37.42.839,Utility_discrimination_2024_2cat,2024.2.4,MacIntel,90.90909091,,,,,,,,3,"[0.5,0.5]","[0.383,0.924]",d,"[0.6898542466377957,0.6898542466377957]","[0.3101457533622043,0.3101457533622043]",473.895,476.326,0,s,0,0.902,,0.10659589,0.29173708,0.18514119,476.327,476.327,0,176,176,176,1,0.268535002,0.268535002,shape_difference2,1,,TRUE,,intensity,0.1,0.05,0.7,0.3,0.82,20,400,1E-11,3.5,0.01,0.5,0.1,,,,,,,,,,,,,,,,,,,,,,,,,,,,,,,,,,,,,,,,,,,,,,,,,,,,,,,,,,,,,,,,,,,,,,,,,,,,,,,,,
,,,,,249109,001,2025-03-17_10h37.42.839,Utility_discrimination_2024_2cat,2024.2.4,MacIntel,90.90909091,,,,,,,,4,"[0.5,0.5]","[0,1]",d,"[0.5726454533553792,0.6752595271550141]","[0.4273545466446208,0.3247404728449859]",476.328,479.694,0,d,0,1.845,,0.608007198,0.793567797,0.185560599,479.697,479.697,0,177,177,177,1,0.189674813,0.189674813,shape_difference3,1,,TRUE,,intensity,0.1,0.05,0.7,0.3,0.82,20,400,1E-11,3.5,0.01,0.5,0.1,,,,,,,,,,,,,,,,,,,,,,,,,,,,,,,,,,,,,,,,,,,,,,,,,,,,,,,,,,,,,,,,,,,,,,,,,,,,,,,,,
,,,,,249109,001,2025-03-17_10h37.42.839,Utility_discrimination_2024_2cat,2024.2.4,MacIntel,90.90909091,,,,,,,,0,"[0.5,0.5]","[1,0]",s,"[0.5,1.198399177068603]","[0.5,-0.19839917706860322]",479.699,482.092,1,d,1,0.869,,0.034794235,0.268793985,0.23399975,482.094,482.094,0,178,178,178,1,0.698399177,0.698399177,shape_difference4,1,,TRUE,,intensity,0.1,0.05,0.7,0.3,0.82,20,400,1E-11,3.5,0.01,0.5,0.1,,,,,,,,,,,,,,,,,,,,,,,,,,,,,,,,,,,,,,,,,,,,,,,,,,,,,,,,,,,,,,,,,,,,,,,,,,,,,,,,,
,,,,,249109,001,2025-03-17_10h37.42.839,Utility_discrimination_2024_2cat,2024.2.4,MacIntel,90.90909091,,,,,,,,0,"[0.5,0.5]","[1,0]",d,"[0.6611827417505267,0.5]","[0.33881725824947323,0.5]",482.094,484.559,1,d,1,0.932,,0.030123583,0.257933597,0.227810014,484.56,484.561,0,179,179,179,1,0.161182742,0.161182742,shape_difference0,1,,TRUE,,intensity,0.1,0.05,0.7,0.3,0.82,20,400,1E-11,3.5,0.01,0.5,0.1,,,,,,,,,,,,,,,,,,,,,,,,,,,,,,,,,,,,,,,,,,,,,,,,,,,,,,,,,,,,,,,,,,,,,,,,,,,,,,,,,
,,,,,249109,001,2025-03-17_10h37.42.839,Utility_discrimination_2024_2cat,2024.2.4,MacIntel,90.90909091,,,,,,,,2,"[0.5,0.5]","[0.707,0.707]",d,"[0.6580770034769727,0.5]","[0.3419229965230272,0.5]",484.561,487.959,0,d,0,1.873,,0.20499041,0.39064604,0.18565563,487.96,487.96,0,180,180,180,1,0.158077003,0.158077003,shape_difference0,1,,TRUE,,intensity,0.1,0.05,0.7,0.3,0.82,20,400,1E-11,3.5,0.01,0.5,0.1,,,,,,,,,,,,,,,,,,,,,,,,,,,,,,,,,,,,,,,,,,,,,,,,,,,,,,,,,,,,,,,,,,,,,,,,,,,,,,,,,
,,,,,249109,001,2025-03-17_10h37.42.839,Utility_discrimination_2024_2cat,2024.2.4,MacIntel,90.90909091,,,,,,,,1,"[0.5,0.5]","[0.924,0.383]",s,"[0.6982653291331408,0.6982653291331408]","[0.30173467086685923,0.30173467086685923]",487.961,490.746,1,s,1,1.261,,0.006679759,0.189524056,0.182844297,490.748,490.748,0,181,181,181,1,0.280431866,0.280431866,shape_difference2,1,,TRUE,,intensity,0.1,0.05,0.7,0.3,0.82,20,400,1E-11,3.5,0.01,0.5,0.1,,,,,,,,,,,,,,,,,,,,,,,,,,,,,,,,,,,,,,,,,,,,,,,,,,,,,,,,,,,,,,,,,,,,,,,,,,,,,,,,,
,,,,,249109,001,2025-03-17_10h37.42.839,Utility_discrimination_2024_2cat,2024.2.4,MacIntel,90.90909091,,,,,,,,3,"[0.5,0.5]","[0.383,0.924]",s,"[0.578135941480393,0.5323875168690374]","[0.42186405851960695,0.4676124831309626]",490.749,493.784,0,d,0,1.517,,0.109440826,0.298367364,0.188926538,493.787,493.787,0,182,182,182,1,0.084562707,0.084562707,shape_difference1,1,,TRUE,,intensity,0.1,0.05,0.7,0.3,0.82,20,400,1E-11,3.5,0.01,0.5,0.1,,,,,,,,,,,,,,,,,,,,,,,,,,,,,,,,,,,,,,,,,,,,,,,,,,,,,,,,,,,,,,,,,,,,,,,,,,,,,,,,,
,,,,,249109,001,2025-03-17_10h37.42.839,Utility_discrimination_2024_2cat,2024.2.4,MacIntel,90.90909091,,,,,,,,4,"[0.5,0.5]","[0,1]",s,"[0.583168781557234,0.700647399892648]","[0.41683121844276605,0.299352600107352]",493.788,496.741,1,s,1,1.431,,0.607371676,0.791058087,0.18368641,496.745,496.745,0,183,183,183,1,0.217150866,0.217150866,shape_difference3,1,,TRUE,,intensity,0.1,0.05,0.7,0.3,0.82,20,400,1E-11,3.5,0.01,0.5,0.1,,,,,,,,,,,,,,,,,,,,,,,,,,,,,,,,,,,,,,,,,,,,,,,,,,,,,,,,,,,,,,,,,,,,,,,,,,,,,,,,,
,,,,,249109,001,2025-03-17_10h37.42.839,Utility_discrimination_2024_2cat,2024.2.4,MacIntel,90.90909091,,,,,,,,1,"[0.5,0.5]","[0.924,0.383]",s,"[0.5,1.191510270583977]","[0.5,-0.19151027058397718]",496.746,499.082,1,d,1,0.815,,0.008782643,0.196974703,0.18819206,499.084,499.084,0,184,184,184,1,0.691510271,0.691510271,shape_difference4,1,,TRUE,,intensity,0.1,0.05,0.7,0.3,0.82,20,400,1E-11,3.5,0.01,0.5,0.1,,,,,,,,,,,,,,,,,,,,,,,,,,,,,,,,,,,,,,,,,,,,,,,,,,,,,,,,,,,,,,,,,,,,,,,,,,,,,,,,,
,,,,,249109,001,2025-03-17_10h37.42.839,Utility_discrimination_2024_2cat,2024.2.4,MacIntel,90.90909091,,,,,,,,4,"[0.5,0.5]","[0,1]",d,"[0.599208712594137,0.541122226107743]","[0.400791287405863,0.4588777738922571]",499.084,505.699,0,d,0,5.086,,0.606831702,0.788357781,0.181526079,505.7,505.7,0,185,185,185,1,0.107368737,0.107368737,shape_difference1,1,,TRUE,,intensity,0.1,0.05,0.7,0.3,0.82,20,400,1E-11,3.5,0.01,0.5,0.1,,,,,,,,,,,,,,,,,,,,,,,,,,,,,,,,,,,,,,,,,,,,,,,,,,,,,,,,,,,,,,,,,,,,,,,,,,,,,,,,,
,,,,,249109,001,2025-03-17_10h37.42.839,Utility_discrimination_2024_2cat,2024.2.4,MacIntel,90.90909091,,,,,,,,0,"[0.5,0.5]","[1,0]",s,"[0.5,1.1858419566121157]","[0.5,-0.18584195661211567]",505.701,508.575,1,s,1,1.329,,0.099178373,0.285680502,0.186502129,508.576,508.576,0,186,186,186,1,0.685841957,0.685841957,shape_difference4,1,,TRUE,,intensity,0.1,0.05,0.7,0.3,0.82,20,400,1E-11,3.5,0.01,0.5,0.1,,,,,,,,,,,,,,,,,,,,,,,,,,,,,,,,,,,,,,,,,,,,,,,,,,,,,,,,,,,,,,,,,,,,,,,,,,,,,,,,,
,,,,,249109,001,2025-03-17_10h37.42.839,Utility_discrimination_2024_2cat,2024.2.4,MacIntel,90.90909091,,,,,,,,3,"[0.5,0.5]","[0.383,0.924]",s,"[0.6715662343299471,0.5]","[0.32843376567005295,0.5]",508.577,510.991,1,d,1,0.891,,0.10855596,0.295914589,0.187358628,510.992,510.992,0,187,187,187,1,0.171566234,0.171566234,shape_difference0,1,,TRUE,,intensity,0.1,0.05,0.7,0.3,0.82,20,400,1E-11,3.5,0.01,0.5,0.1,,,,,,,,,,,,,,,,,,,,,,,,,,,,,,,,,,,,,,,,,,,,,,,,,,,,,,,,,,,,,,,,,,,,,,,,,,,,,,,,,
,,,,,249109,001,2025-03-17_10h37.42.839,Utility_discrimination_2024_2cat,2024.2.4,MacIntel,90.90909091,,,,,,,,2,"[0.5,0.5]","[0.707,0.707]",d,"[0.5792270477237952,0.6911378383728113]","[0.4207729522762048,0.3088621616271887]",510.993,513.741,1,d,1,1.224,,0.204361654,0.386045356,0.181683702,513.742,513.742,0,188,188,188,1,0.206859132,0.206859132,shape_difference3,1,,TRUE,,intensity,0.1,0.05,0.7,0.3,0.82,20,400,1E-11,3.5,0.01,0.5,0.1,,,,,,,,,,,,,,,,,,,,,,,,,,,,,,,,,,,,,,,,,,,,,,,,,,,,,,,,,,,,,,,,,,,,,,,,,,,,,,,,,
,,,,,249109,001,2025-03-17_10h37.42.839,Utility_discrimination_2024_2cat,2024.2.4,MacIntel,90.90909091,,,,,,,,0,"[0.5,0.5]","[1,0]",d,"[0.6953685875669133,0.6953685875669133]","[0.30463141243308667,0.30463141243308667]",513.743,516.233,1,d,1,0.967,,0.083539698,0.278526174,0.194986475,516.235,516.235,0,189,189,189,1,0.276334636,0.276334636,shape_difference2,1,,TRUE,,intensity,0.1,0.05,0.7,0.3,0.82,20,400,1E-11,3.5,0.01,0.5,0.1,,,,,,,,,,,,,,,,,,,,,,,,,,,,,,,,,,,,,,,,,,,,,,,,,,,,,,,,,,,,,,,,,,,,,,,,,,,,,,,,,
,,,,,249109,001,2025-03-17_10h37.42.839,Utility_discrimination_2024_2cat,2024.2.4,MacIntel,90.90909091,,,,,,,,1,"[0.5,0.5]","[0.924,0.383]",d,"[0.6683434678337562,0.5]","[0.3316565321662438,0.5]",516.236,518.732,1,s,1,0.978,,0.012065409,0.225461177,0.213395769,518.736,518.736,0,190,190,190,1,0.168343468,0.168343468,shape_difference0,1,,TRUE,,intensity,0.1,0.05,0.7,0.3,0.82,20,400,1E-11,3.5,0.01,0.5,0.1,,,,,,,,,,,,,,,,,,,,,,,,,,,,,,,,,,,,,,,,,,,,,,,,,,,,,,,,,,,,,,,,,,,,,,,,,,,,,,,,,
,,,,,249109,001,2025-03-17_10h37.42.839,Utility_discrimination_2024_2cat,2024.2.4,MacIntel,90.90909091,,,,,,,,4,"[0.5,0.5]","[0,1]",s,"[0.6236564745720159,0.5512558763648074]","[0.37634352542798416,0.44874412363519256]",518.737,521.639,1,s,1,1.389,,0.606366738,0.785383487,0.179016749,521.643,521.643,0,191,191,191,1,0.133827353,0.133827353,shape_difference1,1,,TRUE,,intensity,0.1,0.05,0.7,0.3,0.82,20,400,1E-11,3.5,0.01,0.5,0.1,,,,,,,,,,,,,,,,,,,,,,,,,,,,,,,,,,,,,,,,,,,,,,,,,,,,,,,,,,,,,,,,,,,,,,,,,,,,,,,,,
,,,,,249109,001,2025-03-17_10h37.42.839,Utility_discrimination_2024_2cat,2024.2.4,MacIntel,90.90909091,,,,,,,,3,"[0.5,0.5]","[0.383,0.924]",s,"[0.5,1.181166370113057]","[0.5,-0.18116637011305703]",521.645,524.431,1,d,1,1.275,,0.107817039,0.293419268,0.185602229,524.434,524.434,0,192,192,192,1,0.68116637,0.68116637,shape_difference4,1,,TRUE,,intensity,0.1,0.05,0.7,0.3,0.82,20,400,1E-11,3.5,0.01,0.5,0.1,,,,,,,,,,,,,,,,,,,,,,,,,,,,,,,,,,,,,,,,,,,,,,,,,,,,,,,,,,,,,,,,,,,,,,,,,,,,,,,,,
