Consent.started,Consent.stopped,key_resp.keys,key_resp.rt,key_resp.duration,participant,session,date,expName,psychopyVersion,OS,frameRate,SetupExperiment.started,SetupExperiment.stopped,DiscrimInstructions_Pre.started,DiscrimInstructions_Pre.stopped,KeyboardResponse.keys,KeyboardResponse.rt,KeyboardResponse.duration,feature_index,feature_center,feature_vector,correct_answer,coord1,coord2,DiscriminationTrial.started,DiscriminationTrial.stopped,PreTest.response,Resp_s_or_d.keys,Resp_s_or_d.corr,Resp_s_or_d.rt,Resp_s_or_d.duration,PreTest.CI_lower,PreTest.CI_upper,PreTest.CI_width,CrashPretest_2.started,CrashPretest_2.stopped,PreTest.thisRepN,PreTest.thisTrialN,PreTest.thisN,PreTest.thisIndex,PreTest.ran,PreTest.intensity,intensity,PreTest.label,PreTest.nReps,PreTest.method,PreTest.autoLog,PreTest.seed,PreTest.varName,PreTest.startVal,PreTest.minVal,PreTest.maxVal,PreTest.startValSd,PreTest.pThreshold,PreTest.nTrials,PreTest.maxTrials,PreTest.stopInterval,PreTest.beta,PreTest.delta,PreTest.gamma,PreTest.grain,WelcomeToCategorizationTask.started,WelcomeToCategorizationTask.stopped,PressAnyKey3.keys,PressAnyKey3.rt,PressAnyKey3.duration,shape_coordinates,category_center,category_sigma,subspace_center,subspace_vector1,subspace_vector2,CategorizationTrial.started,CategorizationTrial.stopped,Respond_1or2.keys,Respond_1or2.rt,Respond_1or2.duration,Feedback.started,Feedback.stopped,xcoord,ycoord,shape_coord,numeric_response_minus1,correctness,truecategory,mixture_index,respAifA,respBifA,respAifB,respBifB,trial_number,D,muAx,muAy,muBx,muBy,sigmaA,sigmaB,priorA,priorB,TrialLoop.thisRepN,TrialLoop.thisTrialN,TrialLoop.thisN,TrialLoop.thisIndex,TrialLoop.ran,DiscriminationInstructions_Post.started,DiscriminationInstructions_Post.stopped,key_resp_2.keys,key_resp_2.rt,key_resp_2.duration,PostTest.response,PostTest.CI_lower,PostTest.CI_upper,PostTest.CI_width,CrashPosttest.started,CrashPosttest.stopped,PostTest.thisRepN,PostTest.thisTrialN,PostTest.thisN,PostTest.thisIndex,PostTest.ran,PostTest.intensity,PostTest.label,PostTest.nReps,PostTest.method,PostTest.autoLog,PostTest.seed,PostTest.varName,PostTest.startVal,PostTest.minVal,PostTest.maxVal,PostTest.startValSd,PostTest.pThreshold,PostTest.nTrials,PostTest.maxTrials,PostTest.stopInterval,PostTest.beta,PostTest.delta,PostTest.gamma,PostTest.grain,Thanks.started,Thanks.stopped
1E-04,12.1639,y,12.1326,,485127,001,2025-03-17_23h23.40.430,Utility_discrimination_2024_2cat,2024.2.4,MacIntel,60.24096386,,,,,,,,,,,,,,,,,,,,,,,,,,,,,,,,,,,,,,,,,,,,,,,,,,,,,,,,,,,,,,,,,,,,,,,,,,,,,,,,,,,,,,,,,,,,,,,,,,,,,,,,,,,,,,,,,,,,,,,,,,,,,,,,,,,
,,,,,485127,001,2025-03-17_23h23.40.430,Utility_discrimination_2024_2cat,2024.2.4,MacIntel,60.24096386,12.1643,12.1644,,,,,,,,,,,,,,,,,,,,,,,,,,,,,,,,,,,,,,,,,,,,,,,,,,,,,,,,,,,,,,,,,,,,,,,,,,,,,,,,,,,,,,,,,,,,,,,,,,,,,,,,,,,,,,,,,,,,,,,,,,,,,,,,,
,,,,,485127,001,2025-03-17_23h23.40.430,Utility_discrimination_2024_2cat,2024.2.4,MacIntel,60.24096386,,,12.1644,28.1977,space,15.997,,,,,,,,,,,,,,,,,,,,,,,,,,,,,,,,,,,,,,,,,,,,,,,,,,,,,,,,,,,,,,,,,,,,,,,,,,,,,,,,,,,,,,,,,,,,,,,,,,,,,,,,,,,,,,,,,,,,,,,,,,,,,
,,,,,485127,001,2025-03-17_23h23.40.430,Utility_discrimination_2024_2cat,2024.2.4,MacIntel,60.24096386,,,,,,,,3,"[0.5,0.5]","[0.383,0.924]",,"[0.6185239449756466,0.5]","[0.3814760550243534,0.5]",28.2282,30.4148,0,s,0,0.6768,,-0.447967632,0.547967632,0.995935263,30.42,30.4201,0,0,0,0,1,0.118523945,0.118523945,shape_difference0,1,,TRUE,,intensity,0.1,0.05,0.7,0.3,0.82,20,400,1E-11,3.5,0.01,0.5,0.1,,,,,,,,,,,,,,,,,,,,,,,,,,,,,,,,,,,,,,,,,,,,,,,,,,,,,,,,,,,,,,,,,,,,,,,,,,,,,,,,,
,,,,,485127,001,2025-03-17_23h23.40.430,Utility_discrimination_2024_2cat,2024.2.4,MacIntel,60.24096386,,,,,,,,4,"[0.5,0.5]","[0,1]",d,"[0.5453946709256726,0.6095161251574974]","[0.4546053290743273,0.3904838748425025]",30.4214,32.847,1,d,1,0.901,,-0.447967632,0.547967632,0.995935263,32.8496,32.8497,0,1,1,1,1,0.118523945,0.118523945,shape_difference3,1,,TRUE,,intensity,0.1,0.05,0.7,0.3,0.82,20,400,1E-11,3.5,0.01,0.5,0.1,,,,,,,,,,,,,,,,,,,,,,,,,,,,,,,,,,,,,,,,,,,,,,,,,,,,,,,,,,,,,,,,,,,,,,,,,,,,,,,,,
,,,,,485127,001,2025-03-17_23h23.40.430,Utility_discrimination_2024_2cat,2024.2.4,MacIntel,60.24096386,,,,,,,,2,"[0.5,0.5]","[0.707,0.707]",d,"[0.5,0.6185239449756466]","[0.5,0.3814760550243534]",32.8508,35.1302,1,s,1,0.7508,,-0.447967632,0.547967632,0.995935263,35.1338,35.1338,0,2,2,2,1,0.118523945,0.118523945,shape_difference4,1,,TRUE,,intensity,0.1,0.05,0.7,0.3,0.82,20,400,1E-11,3.5,0.01,0.5,0.1,,,,,,,,,,,,,,,,,,,,,,,,,,,,,,,,,,,,,,,,,,,,,,,,,,,,,,,,,,,,,,,,,,,,,,,,,,,,,,,,,
,,,,,485127,001,2025-03-17_23h23.40.430,Utility_discrimination_2024_2cat,2024.2.4,MacIntel,60.24096386,,,,,,,,1,"[0.5,0.5]","[0.924,0.383]",s,"[0.5837964290977822,0.5837964290977822]","[0.4162035709022178,0.4162035709022178]",35.1347,37.4635,1,d,1,0.8084,,-0.447967632,0.547967632,0.995935263,37.4676,37.4676,0,3,3,3,1,0.118523945,0.118523945,shape_difference2,1,,TRUE,,intensity,0.1,0.05,0.7,0.3,0.82,20,400,1E-11,3.5,0.01,0.5,0.1,,,,,,,,,,,,,,,,,,,,,,,,,,,,,,,,,,,,,,,,,,,,,,,,,,,,,,,,,,,,,,,,,,,,,,,,,,,,,,,,,
,,,,,485127,001,2025-03-17_23h23.40.430,Utility_discrimination_2024_2cat,2024.2.4,MacIntel,60.24096386,,,,,,,,0,"[0.5,0.5]","[1,0]",d,"[0.6095161251574974,0.5453946709256726]","[0.3904838748425025,0.4546053290743273]",37.4686,39.7135,1,s,1,0.7161,,0.008797352,0.664308158,0.655510806,39.7161,39.7162,0,4,4,4,1,0.118523945,0.118523945,shape_difference1,1,,TRUE,,intensity,0.1,0.05,0.7,0.3,0.82,20,400,1E-11,3.5,0.01,0.5,0.1,,,,,,,,,,,,,,,,,,,,,,,,,,,,,,,,,,,,,,,,,,,,,,,,,,,,,,,,,,,,,,,,,,,,,,,,,,,,,,,,,
,,,,,485127,001,2025-03-17_23h23.40.430,Utility_discrimination_2024_2cat,2024.2.4,MacIntel,60.24096386,,,,,,,,4,"[0.5,0.5]","[0,1]",s,"[0.8247185585179694,0.5]","[0.17528144148203062,0.5]",39.7177,41.7803,0,d,0,0.5328,,-0.479157219,0.478510979,0.957668197,41.7831,41.7832,0,5,5,5,1,0.324718559,0.324718559,shape_difference0,1,,TRUE,,intensity,0.1,0.05,0.7,0.3,0.82,20,400,1E-11,3.5,0.01,0.5,0.1,,,,,,,,,,,,,,,,,,,,,,,,,,,,,,,,,,,,,,,,,,,,,,,,,,,,,,,,,,,,,,,,,,,,,,,,,,,,,,,,,
,,,,,485127,001,2025-03-17_23h23.40.430,Utility_discrimination_2024_2cat,2024.2.4,MacIntel,60.24096386,,,,,,,,2,"[0.5,0.5]","[0.707,0.707]",s,"[0.5,0.5370015867235566]","[0.5,0.4629984132764434]",41.784,44.0803,1,s,1,0.7769,,-0.479157219,0.478510979,0.957668197,44.0834,44.0834,0,6,6,6,1,0.037001587,0.037001587,shape_difference4,1,,TRUE,,intensity,0.1,0.05,0.7,0.3,0.82,20,400,1E-11,3.5,0.01,0.5,0.1,,,,,,,,,,,,,,,,,,,,,,,,,,,,,,,,,,,,,,,,,,,,,,,,,,,,,,,,,,,,,,,,,,,,,,,,,,,,,,,,,
,,,,,485127,001,2025-03-17_23h23.40.430,Utility_discrimination_2024_2cat,2024.2.4,MacIntel,60.24096386,,,,,,,,3,"[0.5,0.5]","[0.383,0.924]",s,"[0.5261601218135545,0.5261601218135545]","[0.4738398781864455,0.4738398781864455]",44.0842,46.6969,0,s,0,1.083,,-0.479157219,0.478510979,0.957668197,46.7,46.7,0,7,7,7,1,0.037001587,0.037001587,shape_difference2,1,,TRUE,,intensity,0.1,0.05,0.7,0.3,0.82,20,400,1E-11,3.5,0.01,0.5,0.1,,,,,,,,,,,,,,,,,,,,,,,,,,,,,,,,,,,,,,,,,,,,,,,,,,,,,,,,,,,,,,,,,,,,,,,,,,,,,,,,,
,,,,,485127,001,2025-03-17_23h23.40.430,Utility_discrimination_2024_2cat,2024.2.4,MacIntel,60.24096386,,,,,,,,1,"[0.5,0.5]","[0.924,0.383]",d,"[0.5141716077151222,0.5341894661325662]","[0.48582839228487784,0.46581053386743376]",46.7009,49.197,0,s,0,0.9689,,-0.479157219,0.478510979,0.957668197,49.1994,49.1995,0,8,8,8,1,0.037001587,0.037001587,shape_difference3,1,,TRUE,,intensity,0.1,0.05,0.7,0.3,0.82,20,400,1E-11,3.5,0.01,0.5,0.1,,,,,,,,,,,,,,,,,,,,,,,,,,,,,,,,,,,,,,,,,,,,,,,,,,,,,,,,,,,,,,,,,,,,,,,,,,,,,,,,,
,,,,,485127,001,2025-03-17_23h23.40.430,Utility_discrimination_2024_2cat,2024.2.4,MacIntel,60.24096386,,,,,,,,0,"[0.5,0.5]","[1,0]",d,"[0.5341894661325662,0.5141716077151222]","[0.46581053386743376,0.48582839228487784]",49.2004,51.497,0,s,0,0.766,,0.200901354,0.758241115,0.557339761,51.5,51.5,0,9,9,9,1,0.037001587,0.037001587,shape_difference1,1,,TRUE,,intensity,0.1,0.05,0.7,0.3,0.82,20,400,1E-11,3.5,0.01,0.5,0.1,,,,,,,,,,,,,,,,,,,,,,,,,,,,,,,,,,,,,,,,,,,,,,,,,,,,,,,,,,,,,,,,,,,,,,,,,,,,,,,,,
,,,,,485127,001,2025-03-17_23h23.40.430,Utility_discrimination_2024_2cat,2024.2.4,MacIntel,60.24096386,,,,,,,,3,"[0.5,0.5]","[0.383,0.924]",d,"[0.9604328418247562,0.5]","[0.03956715817524381,0.5]",51.5009,53.7792,1,s,1,0.7497,,-0.090065158,0.591798206,0.681863364,53.7819,53.7819,0,10,10,10,1,0.460432842,0.460432842,shape_difference0,1,,TRUE,,intensity,0.1,0.05,0.7,0.3,0.82,20,400,1E-11,3.5,0.01,0.5,0.1,,,,,,,,,,,,,,,,,,,,,,,,,,,,,,,,,,,,,,,,,,,,,,,,,,,,,,,,,,,,,,,,,,,,,,,,,,,,,,,,,
,,,,,485127,001,2025-03-17_23h23.40.430,Utility_discrimination_2024_2cat,2024.2.4,MacIntel,60.24096386,,,,,,,,1,"[0.5,0.5]","[0.924,0.383]",s,"[0.586428612097727,0.7085118474629236]","[0.413571387902273,0.2914881525370764]",53.7828,56.1135,1,s,1,0.8075,,-0.090065158,0.591798206,0.681863364,56.116,56.116,0,11,11,11,1,0.225662173,0.225662173,shape_difference3,1,,TRUE,,intensity,0.1,0.05,0.7,0.3,0.82,20,400,1E-11,3.5,0.01,0.5,0.1,,,,,,,,,,,,,,,,,,,,,,,,,,,,,,,,,,,,,,,,,,,,,,,,,,,,,,,,,,,,,,,,,,,,,,,,,,,,,,,,,
,,,,,485127,001,2025-03-17_23h23.40.430,Utility_discrimination_2024_2cat,2024.2.4,MacIntel,60.24096386,,,,,,,,4,"[0.5,0.5]","[0,1]",s,"[0.7085118474629236,0.586428612097727]","[0.2914881525370764,0.413571387902273]",56.1167,58.5469,1,s,1,0.9021,,-0.510435314,0.404710629,0.915145943,58.5491,58.5491,0,12,12,12,1,0.225662173,0.225662173,shape_difference1,1,,TRUE,,intensity,0.1,0.05,0.7,0.3,0.82,20,400,1E-11,3.5,0.01,0.5,0.1,,,,,,,,,,,,,,,,,,,,,,,,,,,,,,,,,,,,,,,,,,,,,,,,,,,,,,,,,,,,,,,,,,,,,,,,,,,,,,,,,
,,,,,485127,001,2025-03-17_23h23.40.430,Utility_discrimination_2024_2cat,2024.2.4,MacIntel,60.24096386,,,,,,,,2,"[0.5,0.5]","[0.707,0.707]",s,"[0.5,0.4627317496680746]","[0.5,0.5372682503319254]",58.5499,60.897,1,s,1,0.8271,,-0.090065158,0.591798206,0.681863364,60.8999,60.8999,0,13,13,13,1,-0.03726825,-0.03726825,shape_difference4,1,,TRUE,,intensity,0.1,0.05,0.7,0.3,0.82,20,400,1E-11,3.5,0.01,0.5,0.1,,,,,,,,,,,,,,,,,,,,,,,,,,,,,,,,,,,,,,,,,,,,,,,,,,,,,,,,,,,,,,,,,,,,,,,,,,,,,,,,,
,,,,,485127,001,2025-03-17_23h23.40.430,Utility_discrimination_2024_2cat,2024.2.4,MacIntel,60.24096386,,,,,,,,3,"[0.5,0.5]","[0.383,0.924]",s,"[0.6595431560132976,0.6595431560132976]","[0.3404568439867024,0.3404568439867024]",60.9007,63.2468,1,s,1,0.8164,,-0.09936101,0.537490534,0.636851544,63.2494,63.2494,0,14,14,14,1,0.225662173,0.225662173,shape_difference2,1,,TRUE,,intensity,0.1,0.05,0.7,0.3,0.82,20,400,1E-11,3.5,0.01,0.5,0.1,,,,,,,,,,,,,,,,,,,,,,,,,,,,,,,,,,,,,,,,,,,,,,,,,,,,,,,,,,,,,,,,,,,,,,,,,,,,,,,,,
,,,,,485127,001,2025-03-17_23h23.40.430,Utility_discrimination_2024_2cat,2024.2.4,MacIntel,60.24096386,,,,,,,,0,"[0.5,0.5]","[1,0]",s,"[0.5657699535565752,0.658672159494192]","[0.4342300464434248,0.341327840505808]",63.2503,65.3802,1,d,1,0.5998,,0.183787094,0.698673471,0.514886377,65.3837,65.3838,0,15,15,15,1,0.171723116,0.171723116,shape_difference3,1,,TRUE,,intensity,0.1,0.05,0.7,0.3,0.82,20,400,1E-11,3.5,0.01,0.5,0.1,,,,,,,,,,,,,,,,,,,,,,,,,,,,,,,,,,,,,,,,,,,,,,,,,,,,,,,,,,,,,,,,,,,,,,,,,,,,,,,,,
,,,,,485127,001,2025-03-17_23h23.40.430,Utility_discrimination_2024_2cat,2024.2.4,MacIntel,60.24096386,,,,,,,,2,"[0.5,0.5]","[0.707,0.707]",d,"[0.925032215409972,0.5]","[0.07496778459002795,0.5]",65.3845,67.6303,1,s,1,0.7252,,-0.09936101,0.537490534,0.636851544,67.6325,67.6325,0,16,16,16,1,0.425032215,0.425032215,shape_difference0,1,,TRUE,,intensity,0.1,0.05,0.7,0.3,0.82,20,400,1E-11,3.5,0.01,0.5,0.1,,,,,,,,,,,,,,,,,,,,,,,,,,,,,,,,,,,,,,,,,,,,,,,,,,,,,,,,,,,,,,,,,,,,,,,,,,,,,,,,,
,,,,,485127,001,2025-03-17_23h23.40.430,Utility_discrimination_2024_2cat,2024.2.4,MacIntel,60.24096386,,,,,,,,1,"[0.5,0.5]","[0.924,0.383]",s,"[0.6214082432493439,0.6214082432493439]","[0.37859175675065615,0.37859175675065615]",67.6335,69.7471,1,d,1,0.5944,,-0.09936101,0.537490534,0.636851544,69.7498,69.7498,0,17,17,17,1,0.171723116,0.171723116,shape_difference2,1,,TRUE,,intensity,0.1,0.05,0.7,0.3,0.82,20,400,1E-11,3.5,0.01,0.5,0.1,,,,,,,,,,,,,,,,,,,,,,,,,,,,,,,,,,,,,,,,,,,,,,,,,,,,,,,,,,,,,,,,,,,,,,,,,,,,,,,,,
,,,,,485127,001,2025-03-17_23h23.40.430,Utility_discrimination_2024_2cat,2024.2.4,MacIntel,60.24096386,,,,,,,,4,"[0.5,0.5]","[0,1]",d,"[0.658672159494192,0.5657699535565752]","[0.341327840505808,0.4342300464434248]",69.7503,71.8303,1,s,1,0.5496,,-0.540713527,0.322166073,0.862879599,71.834,71.834,0,18,18,18,1,0.171723116,0.171723116,shape_difference1,1,,TRUE,,intensity,0.1,0.05,0.7,0.3,0.82,20,400,1E-11,3.5,0.01,0.5,0.1,,,,,,,,,,,,,,,,,,,,,,,,,,,,,,,,,,,,,,,,,,,,,,,,,,,,,,,,,,,,,,,,,,,,,,,,,,,,,,,,,
,,,,,485127,001,2025-03-17_23h23.40.430,Utility_discrimination_2024_2cat,2024.2.4,MacIntel,60.24096386,,,,,,,,3,"[0.5,0.5]","[0.383,0.924]",s,"[0.5,0.40339734014384304]","[0.5,0.5966026598561569]",71.8351,73.9301,1,s,1,0.5744,,-0.120490743,0.470685176,0.591175919,73.9333,73.9333,0,19,19,19,1,-0.09660266,-0.09660266,shape_difference4,1,,TRUE,,intensity,0.1,0.05,0.7,0.3,0.82,20,400,1E-11,3.5,0.01,0.5,0.1,,,,,,,,,,,,,,,,,,,,,,,,,,,,,,,,,,,,,,,,,,,,,,,,,,,,,,,,,,,,,,,,,,,,,,,,,,,,,,,,,
,,,,,485127,001,2025-03-17_23h23.40.430,Utility_discrimination_2024_2cat,2024.2.4,MacIntel,60.24096386,,,,,,,,1,"[0.5,0.5]","[0.924,0.383]",s,"[0.550024248918245,0.6206851331604658]","[0.44997575108175497,0.3793148668395342]",73.9343,76.2135,1,d,1,0.7497,,-0.120490743,0.470685176,0.591175919,76.2168,76.2169,0,20,20,20,1,0.130611616,0.130611616,shape_difference3,1,,TRUE,,intensity,0.1,0.05,0.7,0.3,0.82,20,400,1E-11,3.5,0.01,0.5,0.1,,,,,,,,,,,,,,,,,,,,,,,,,,,,,,,,,,,,,,,,,,,,,,,,,,,,,,,,,,,,,,,,,,,,,,,,,,,,,,,,,
,,,,,485127,001,2025-03-17_23h23.40.430,Utility_discrimination_2024_2cat,2024.2.4,MacIntel,60.24096386,,,,,,,,2,"[0.5,0.5]","[0.707,0.707]",d,"[0.6206851331604658,0.550024248918245]","[0.3793148668395342,0.44997575108175497]",76.2177,78.5304,1,s,1,0.7939,,-0.120490743,0.470685176,0.591175919,78.5338,78.5338,0,21,21,21,1,0.130611616,0.130611616,shape_difference1,1,,TRUE,,intensity,0.1,0.05,0.7,0.3,0.82,20,400,1E-11,3.5,0.01,0.5,0.1,,,,,,,,,,,,,,,,,,,,,,,,,,,,,,,,,,,,,,,,,,,,,,,,,,,,,,,,,,,,,,,,,,,,,,,,,,,,,,,,,
,,,,,485127,001,2025-03-17_23h23.40.430,Utility_discrimination_2024_2cat,2024.2.4,MacIntel,60.24096386,,,,,,,,4,"[0.5,0.5]","[0,1]",s,"[0.5923424124939928,0.5923424124939928]","[0.4076575875060072,0.4076575875060072]",78.5347,80.8136,1,s,1,0.7604,,-0.569624043,0.240042019,0.809666061,80.816,80.816,0,22,22,22,1,0.130611616,0.130611616,shape_difference2,1,,TRUE,,intensity,0.1,0.05,0.7,0.3,0.82,20,400,1E-11,3.5,0.01,0.5,0.1,,,,,,,,,,,,,,,,,,,,,,,,,,,,,,,,,,,,,,,,,,,,,,,,,,,,,,,,,,,,,,,,,,,,,,,,,,,,,,,,,
,,,,,485127,001,2025-03-17_23h23.40.430,Utility_discrimination_2024_2cat,2024.2.4,MacIntel,60.24096386,,,,,,,,0,"[0.5,0.5]","[1,0]",s,"[0.5,0.35243994249424015]","[0.5,0.6475600575057598]",80.8169,83.1303,1,s,1,0.7856,,0.161915205,0.663473103,0.501557898,83.1335,83.1336,0,23,23,23,1,-0.147560058,-0.147560058,shape_difference4,1,,TRUE,,intensity,0.1,0.05,0.7,0.3,0.82,20,400,1E-11,3.5,0.01,0.5,0.1,,,,,,,,,,,,,,,,,,,,,,,,,,,,,,,,,,,,,,,,,,,,,,,,,,,,,,,,,,,,,,,,,,,,,,,,,,,,,,,,,
,,,,,485127,001,2025-03-17_23h23.40.430,Utility_discrimination_2024_2cat,2024.2.4,MacIntel,60.24096386,,,,,,,,3,"[0.5,0.5]","[0.383,0.924]",s,"[0.8898988171215777,0.5]","[0.1101011828784223,0.5]",83.1346,85.4136,1,s,1,0.75,,-0.144584963,0.406347617,0.550932581,85.416,85.416,0,24,24,24,1,0.389898817,0.389898817,shape_difference0,1,,TRUE,,intensity,0.1,0.05,0.7,0.3,0.82,20,400,1E-11,3.5,0.01,0.5,0.1,,,,,,,,,,,,,,,,,,,,,,,,,,,,,,,,,,,,,,,,,,,,,,,,,,,,,,,,,,,,,,,,,,,,,,,,,,,,,,,,,
,,,,,485127,001,2025-03-17_23h23.40.430,Utility_discrimination_2024_2cat,2024.2.4,MacIntel,60.24096386,,,,,,,,4,"[0.5,0.5]","[0,1]",s,"[0.5351372241639378,0.5847697000717454]","[0.4648627758360622,0.41523029992825455]",85.4169,87.597,1,d,1,0.6495,,-0.588261172,0.151848651,0.740109824,87.6003,87.6004,0,25,25,25,1,0.0917421,0.0917421,shape_difference3,1,,TRUE,,intensity,0.1,0.05,0.7,0.3,0.82,20,400,1E-11,3.5,0.01,0.5,0.1,,,,,,,,,,,,,,,,,,,,,,,,,,,,,,,,,,,,,,,,,,,,,,,,,,,,,,,,,,,,,,,,,,,,,,,,,,,,,,,,,
,,,,,485127,001,2025-03-17_23h23.40.430,Utility_discrimination_2024_2cat,2024.2.4,MacIntel,60.24096386,,,,,,,,0,"[0.5,0.5]","[1,0]",d,"[0.5,0.3089903613102919]","[0.5,0.6910096386897081]",87.6014,89.8969,1,d,1,0.7684,,0.147194284,0.610247014,0.46305273,89.8992,89.8993,0,26,26,26,1,-0.191009639,-0.191009639,shape_difference4,1,,TRUE,,intensity,0.1,0.05,0.7,0.3,0.82,20,400,1E-11,3.5,0.01,0.5,0.1,,,,,,,,,,,,,,,,,,,,,,,,,,,,,,,,,,,,,,,,,,,,,,,,,,,,,,,,,,,,,,,,,,,,,,,,,,,,,,,,,
,,,,,485127,001,2025-03-17_23h23.40.430,Utility_discrimination_2024_2cat,2024.2.4,MacIntel,60.24096386,,,,,,,,1,"[0.5,0.5]","[0.924,0.383]",d,"[0.865168384109164,0.5]","[0.13483161589083603,0.5]",89.9008,92.4137,1,d,1,0.9859,,-0.144584963,0.406347617,0.550932581,92.4173,92.4173,0,27,27,27,1,0.365168384,0.365168384,shape_difference0,1,,TRUE,,intensity,0.1,0.05,0.7,0.3,0.82,20,400,1E-11,3.5,0.01,0.5,0.1,,,,,,,,,,,,,,,,,,,,,,,,,,,,,,,,,,,,,,,,,,,,,,,,,,,,,,,,,,,,,,,,,,,,,,,,,,,,,,,,,
,,,,,485127,001,2025-03-17_23h23.40.430,Utility_discrimination_2024_2cat,2024.2.4,MacIntel,60.24096386,,,,,,,,2,"[0.5,0.5]","[0.707,0.707]",d,"[0.5847697000717454,0.5351372241639378]","[0.41523029992825455,0.4648627758360622]",92.4181,94.847,1,d,1,0.8998,,-0.144584963,0.406347617,0.550932581,94.8499,94.8499,0,28,28,28,1,0.0917421,0.0917421,shape_difference1,1,,TRUE,,intensity,0.1,0.05,0.7,0.3,0.82,20,400,1E-11,3.5,0.01,0.5,0.1,,,,,,,,,,,,,,,,,,,,,,,,,,,,,,,,,,,,,,,,,,,,,,,,,,,,,,,,,,,,,,,,,,,,,,,,,,,,,,,,,
,,,,,485127,001,2025-03-17_23h23.40.430,Utility_discrimination_2024_2cat,2024.2.4,MacIntel,60.24096386,,,,,,,,0,"[0.5,0.5]","[1,0]",d,"[0.5648616644488356,0.5648616644488356]","[0.4351383355511645,0.4351383355511645]",94.8508,97.2303,1,d,1,0.85,,0.136982262,0.571891466,0.434909205,97.2333,97.2334,0,29,29,29,1,0.0917421,0.0917421,shape_difference2,1,,TRUE,,intensity,0.1,0.05,0.7,0.3,0.82,20,400,1E-11,3.5,0.01,0.5,0.1,,,,,,,,,,,,,,,,,,,,,,,,,,,,,,,,,,,,,,,,,,,,,,,,,,,,,,,,,,,,,,,,,,,,,,,,,,,,,,,,,
,,,,,485127,001,2025-03-17_23h23.40.430,Utility_discrimination_2024_2cat,2024.2.4,MacIntel,60.24096386,,,,,,,,3,"[0.5,0.5]","[0.383,0.924]",d,"[0.8437280330702521,0.5]","[0.15627196692974787,0.5]",97.2343,99.5137,1,d,1,0.7498,,-0.160589475,0.350306654,0.510896129,99.5168,99.5168,0,30,30,30,1,0.343728033,0.343728033,shape_difference0,1,,TRUE,,intensity,0.1,0.05,0.7,0.3,0.82,20,400,1E-11,3.5,0.01,0.5,0.1,,,,,,,,,,,,,,,,,,,,,,,,,,,,,,,,,,,,,,,,,,,,,,,,,,,,,,,,,,,,,,,,,,,,,,,,,,,,,,,,,
,,,,,485127,001,2025-03-17_23h23.40.430,Utility_discrimination_2024_2cat,2024.2.4,MacIntel,60.24096386,,,,,,,,2,"[0.5,0.5]","[0.707,0.707]",d,"[0.5253378217319599,0.5611283218807595]","[0.4746621782680402,0.4388716781192405]",99.5177,101.6636,1,d,1,0.6159,,-0.160589475,0.350306654,0.510896129,101.6662,101.6663,0,31,31,31,1,0.066156193,0.066156193,shape_difference3,1,,TRUE,,intensity,0.1,0.05,0.7,0.3,0.82,20,400,1E-11,3.5,0.01,0.5,0.1,,,,,,,,,,,,,,,,,,,,,,,,,,,,,,,,,,,,,,,,,,,,,,,,,,,,,,,,,,,,,,,,,,,,,,,,,,,,,,,,,
,,,,,485127,001,2025-03-17_23h23.40.430,Utility_discrimination_2024_2cat,2024.2.4,MacIntel,60.24096386,,,,,,,,1,"[0.5,0.5]","[0.924,0.383]",d,"[0.5467724281057327,0.5467724281057327]","[0.4532275718942674,0.4532275718942674]",101.6676,104.0136,0,d,0,0.8184,,-0.160589475,0.350306654,0.510896129,104.016,104.016,0,32,32,32,1,0.066156193,0.066156193,shape_difference2,1,,TRUE,,intensity,0.1,0.05,0.7,0.3,0.82,20,400,1E-11,3.5,0.01,0.5,0.1,,,,,,,,,,,,,,,,,,,,,,,,,,,,,,,,,,,,,,,,,,,,,,,,,,,,,,,,,,,,,,,,,,,,,,,,,,,,,,,,,
,,,,,485127,001,2025-03-17_23h23.40.430,Utility_discrimination_2024_2cat,2024.2.4,MacIntel,60.24096386,,,,,,,,4,"[0.5,0.5]","[0,1]",s,"[0.5611283218807595,0.5253378217319599]","[0.4388716781192405,0.4746621782680402]",104.0175,106.4302,1,d,1,0.8918,,-0.616056949,0.077962516,0.694019466,106.4328,106.4328,0,33,33,33,1,0.066156193,0.066156193,shape_difference1,1,,TRUE,,intensity,0.1,0.05,0.7,0.3,0.82,20,400,1E-11,3.5,0.01,0.5,0.1,,,,,,,,,,,,,,,,,,,,,,,,,,,,,,,,,,,,,,,,,,,,,,,,,,,,,,,,,,,,,,,,,,,,,,,,,,,,,,,,,
,,,,,485127,001,2025-03-17_23h23.40.430,Utility_discrimination_2024_2cat,2024.2.4,MacIntel,60.24096386,,,,,,,,2,"[0.5,0.5]","[0.707,0.707]",d,"[0.5,0.2663877560171044]","[0.5,0.7336122439828956]",106.4335,108.8305,1,d,1,0.8777,,-0.042952876,0.488607625,0.531560501,108.8333,108.8333,0,34,34,34,1,-0.233612244,-0.233612244,shape_difference4,1,,TRUE,,intensity,0.1,0.05,0.7,0.3,0.82,20,400,1E-11,3.5,0.01,0.5,0.1,,,,,,,,,,,,,,,,,,,,,,,,,,,,,,,,,,,,,,,,,,,,,,,,,,,,,,,,,,,,,,,,,,,,,,,,,,,,,,,,,
,,,,,485127,001,2025-03-17_23h23.40.430,Utility_discrimination_2024_2cat,2024.2.4,MacIntel,60.24096386,,,,,,,,1,"[0.5,0.5]","[0.924,0.383]",d,"[0.6208191045858198,0.6208191045858198]","[0.37918089541418015,0.37918089541418015]",108.8342,111.3802,1,d,1,1.0162,,-0.171576622,0.286796614,0.458373237,111.3837,111.3837,0,35,35,35,1,0.170889823,0.170889823,shape_difference2,1,,TRUE,,intensity,0.1,0.05,0.7,0.3,0.82,20,400,1E-11,3.5,0.01,0.5,0.1,,,,,,,,,,,,,,,,,,,,,,,,,,,,,,,,,,,,,,,,,,,,,,,,,,,,,,,,,,,,,,,,,,,,,,,,,,,,,,,,,
,,,,,485127,001,2025-03-17_23h23.40.430,Utility_discrimination_2024_2cat,2024.2.4,MacIntel,60.24096386,,,,,,,,3,"[0.5,0.5]","[0.383,0.924]",d,"[0.5409320487875866,0.5169664228199629]","[0.4590679512124134,0.48303357718003714]",111.3846,113.8137,1,d,1,0.9103,,-0.171576622,0.286796614,0.458373237,113.8159,113.8159,0,36,36,36,1,0.044298754,0.044298754,shape_difference1,1,,TRUE,,intensity,0.1,0.05,0.7,0.3,0.82,20,400,1E-11,3.5,0.01,0.5,0.1,,,,,,,,,,,,,,,,,,,,,,,,,,,,,,,,,,,,,,,,,,,,,,,,,,,,,,,,,,,,,,,,,,,,,,,,,,,,,,,,,
,,,,,485127,001,2025-03-17_23h23.40.430,Utility_discrimination_2024_2cat,2024.2.4,MacIntel,60.24096386,,,,,,,,4,"[0.5,0.5]","[0,1]",d,"[0.5169664228199629,0.5409320487875866]","[0.48303357718003714,0.4590679512124134]",113.8167,116.1469,1,d,1,0.8115,,-0.642600146,0.003859163,0.64645931,116.1501,116.1501,0,37,37,37,1,0.044298754,0.044298754,shape_difference3,1,,TRUE,,intensity,0.1,0.05,0.7,0.3,0.82,20,400,1E-11,3.5,0.01,0.5,0.1,,,,,,,,,,,,,,,,,,,,,,,,,,,,,,,,,,,,,,,,,,,,,,,,,,,,,,,,,,,,,,,,,,,,,,,,,,,,,,,,,
,,,,,485127,001,2025-03-17_23h23.40.430,Utility_discrimination_2024_2cat,2024.2.4,MacIntel,60.24096386,,,,,,,,0,"[0.5,0.5]","[1,0]",d,"[0.5,0.23037327588610024]","[0.5,0.7696267241138998]",116.1509,118.4303,1,s,1,0.7514,,0.125741821,0.536407465,0.410665644,118.4332,118.4332,0,38,38,38,1,-0.269626724,-0.269626724,shape_difference4,1,,TRUE,,intensity,0.1,0.05,0.7,0.3,0.82,20,400,1E-11,3.5,0.01,0.5,0.1,,,,,,,,,,,,,,,,,,,,,,,,,,,,,,,,,,,,,,,,,,,,,,,,,,,,,,,,,,,,,,,,,,,,,,,,,,,,,,,,,
,,,,,485127,001,2025-03-17_23h23.40.430,Utility_discrimination_2024_2cat,2024.2.4,MacIntel,60.24096386,,,,,,,,3,"[0.5,0.5]","[0.383,0.924]",s,"[0.8216331462480938,0.5]","[0.1783668537519062,0.5]",118.434,120.7294,1,s,1,0.7681,,-0.18394784,0.248316998,0.432264838,120.733,120.7331,0,39,39,39,1,0.321633146,0.321633146,shape_difference0,1,,TRUE,,intensity,0.1,0.05,0.7,0.3,0.82,20,400,1E-11,3.5,0.01,0.5,0.1,,,,,,,,,,,,,,,,,,,,,,,,,,,,,,,,,,,,,,,,,,,,,,,,,,,,,,,,,,,,,,,,,,,,,,,,,,,,,,,,,
,,,,,485127,001,2025-03-17_23h23.40.430,Utility_discrimination_2024_2cat,2024.2.4,MacIntel,60.24096386,,,,,,,,0,"[0.5,0.5]","[1,0]",s,"[0.5084307107333221,0.5203393647978842]","[0.49156928926667787,0.4796606352021158]",120.7339,123.0627,0,s,0,0.8009,,0.117698606,0.495278996,0.377580391,123.0648,123.0649,0,40,40,40,1,0.0220123,0.0220123,shape_difference3,1,,TRUE,,intensity,0.1,0.05,0.7,0.3,0.82,20,400,1E-11,3.5,0.01,0.5,0.1,,,,,,,,,,,,,,,,,,,,,,,,,,,,,,,,,,,,,,,,,,,,,,,,,,,,,,,,,,,,,,,,,,,,,,,,,,,,,,,,,
,,,,,485127,001,2025-03-17_23h23.40.430,Utility_discrimination_2024_2cat,2024.2.4,MacIntel,60.24096386,,,,,,,,2,"[0.5,0.5]","[0.707,0.707]",d,"[0.7979279192381541,0.5]","[0.20207208076184596,0.5]",123.0655,125.3625,1,d,1,0.7738,,-0.05445428,0.427311378,0.481765657,125.3648,125.3648,0,41,41,41,1,0.297927919,0.297927919,shape_difference0,1,,TRUE,,intensity,0.1,0.05,0.7,0.3,0.82,20,400,1E-11,3.5,0.01,0.5,0.1,,,,,,,,,,,,,,,,,,,,,,,,,,,,,,,,,,,,,,,,,,,,,,,,,,,,,,,,,,,,,,,,,,,,,,,,,,,,,,,,,
,,,,,485127,001,2025-03-17_23h23.40.430,Utility_discrimination_2024_2cat,2024.2.4,MacIntel,60.24096386,,,,,,,,1,"[0.5,0.5]","[0.924,0.383]",d,"[0.6024638905760343,0.6024638905760343]","[0.39753610942396567,0.39753610942396567]",125.3655,127.6137,1,s,1,0.7267,,-0.18394784,0.248316998,0.432264838,127.6154,127.6154,0,42,42,42,1,0.144927709,0.144927709,shape_difference2,1,,TRUE,,intensity,0.1,0.05,0.7,0.3,0.82,20,400,1E-11,3.5,0.01,0.5,0.1,,,,,,,,,,,,,,,,,,,,,,,,,,,,,,,,,,,,,,,,,,,,,,,,,,,,,,,,,,,,,,,,,,,,,,,,,,,,,,,,,
,,,,,485127,001,2025-03-17_23h23.40.430,Utility_discrimination_2024_2cat,2024.2.4,MacIntel,60.24096386,,,,,,,,4,"[0.5,0.5]","[0,1]",s,"[0.5203393647978842,0.5084307107333221]","[0.4796606352021158,0.49156928926667787]",127.6163,130.0303,1,s,1,0.8828,,-0.67113939,-0.036541485,0.634597904,130.0338,130.0338,0,43,43,43,1,0.0220123,0.0220123,shape_difference1,1,,TRUE,,intensity,0.1,0.05,0.7,0.3,0.82,20,400,1E-11,3.5,0.01,0.5,0.1,,,,,,,,,,,,,,,,,,,,,,,,,,,,,,,,,,,,,,,,,,,,,,,,,,,,,,,,,,,,,,,,,,,,,,,,,,,,,,,,,
,,,,,485127,001,2025-03-17_23h23.40.430,Utility_discrimination_2024_2cat,2024.2.4,MacIntel,60.24096386,,,,,,,,2,"[0.5,0.5]","[0.707,0.707]",s,"[0.5,0.1898285633172705]","[0.5,0.8101714366827295]",130.0346,132.3472,1,d,1,0.7941,,-0.066218085,0.379325718,0.445543803,132.3494,132.3494,0,44,44,44,1,-0.310171437,-0.310171437,shape_difference4,1,,TRUE,,intensity,0.1,0.05,0.7,0.3,0.82,20,400,1E-11,3.5,0.01,0.5,0.1,,,,,,,,,,,,,,,,,,,,,,,,,,,,,,,,,,,,,,,,,,,,,,,,,,,,,,,,,,,,,,,,,,,,,,,,,,,,,,,,,
,,,,,485127,001,2025-03-17_23h23.40.430,Utility_discrimination_2024_2cat,2024.2.4,MacIntel,60.24096386,,,,,,,,0,"[0.5,0.5]","[1,0]",d,"[0.5848644963302466,0.5848644963302466]","[0.4151355036697534,0.4151355036697534]",132.3503,134.8137,1,d,1,0.9449,,0.111774189,0.473508891,0.361734701,134.8163,134.8163,0,45,45,45,1,0.120034648,0.120034648,shape_difference2,1,,TRUE,,intensity,0.1,0.05,0.7,0.3,0.82,20,400,1E-11,3.5,0.01,0.5,0.1,,,,,,,,,,,,,,,,,,,,,,,,,,,,,,,,,,,,,,,,,,,,,,,,,,,,,,,,,,,,,,,,,,,,,,,,,,,,,,,,,
,,,,,485127,001,2025-03-17_23h23.40.430,Utility_discrimination_2024_2cat,2024.2.4,MacIntel,60.24096386,,,,,,,,3,"[0.5,0.5]","[0.383,0.924]",d,"[0.7825928777597824,0.5]","[0.21740712224021763,0.5]",134.8172,137.0803,1,s,1,0.742,,-0.092039802,0.333413881,0.425453683,137.0838,137.0838,0,46,46,46,1,0.282592878,0.282592878,shape_difference0,1,,TRUE,,intensity,0.1,0.05,0.7,0.3,0.82,20,400,1E-11,3.5,0.01,0.5,0.1,,,,,,,,,,,,,,,,,,,,,,,,,,,,,,,,,,,,,,,,,,,,,,,,,,,,,,,,,,,,,,,,,,,,,,,,,,,,,,,,,
,,,,,485127,001,2025-03-17_23h23.40.430,Utility_discrimination_2024_2cat,2024.2.4,MacIntel,60.24096386,,,,,,,,1,"[0.5,0.5]","[0.924,0.383]",s,"[0.5292870874348441,0.5706560542814517]","[0.47071291256515585,0.42934394571854834]",137.0849,139.3127,1,s,1,0.6989,,-0.192940399,0.197833049,0.390773448,139.3165,139.3165,0,47,47,47,1,0.076467591,0.076467591,shape_difference3,1,,TRUE,,intensity,0.1,0.05,0.7,0.3,0.82,20,400,1E-11,3.5,0.01,0.5,0.1,,,,,,,,,,,,,,,,,,,,,,,,,,,,,,,,,,,,,,,,,,,,,,,,,,,,,,,,,,,,,,,,,,,,,,,,,,,,,,,,,
,,,,,485127,001,2025-03-17_23h23.40.430,Utility_discrimination_2024_2cat,2024.2.4,MacIntel,60.24096386,,,,,,,,4,"[0.5,0.5]","[0,1]",s,"[0.49811285185520415,0.49921777300924586]","[0.5018871481447958,0.5007822269907541]",139.3176,141.7969,1,s,1,0.9501,,-0.689998991,-0.095065821,0.594933171,141.8001,141.8002,0,48,48,48,1,-0.002042368,-0.002042368,shape_difference1,1,,TRUE,,intensity,0.1,0.05,0.7,0.3,0.82,20,400,1E-11,3.5,0.01,0.5,0.1,,,,,,,,,,,,,,,,,,,,,,,,,,,,,,,,,,,,,,,,,,,,,,,,,,,,,,,,,,,,,,,,,,,,,,,,,,,,,,,,,
,,,,,485127,001,2025-03-17_23h23.40.430,Utility_discrimination_2024_2cat,2024.2.4,MacIntel,60.24096386,,,,,,,,1,"[0.5,0.5]","[0.924,0.383]",s,"[0.5,0.1555533146123892]","[0.5,0.8444466853876108]",141.8011,144.1304,1,s,1,0.7996,,-0.199712991,0.174544142,0.374257133,144.1338,144.1338,0,49,49,49,1,-0.344446685,-0.344446685,shape_difference4,1,,TRUE,,intensity,0.1,0.05,0.7,0.3,0.82,20,400,1E-11,3.5,0.01,0.5,0.1,,,,,,,,,,,,,,,,,,,,,,,,,,,,,,,,,,,,,,,,,,,,,,,,,,,,,,,,,,,,,,,,,,,,,,,,,,,,,,,,,
,,,,,485127,001,2025-03-17_23h23.40.430,Utility_discrimination_2024_2cat,2024.2.4,MacIntel,60.24096386,,,,,,,,0,"[0.5,0.5]","[1,0]",s,"[0.48330724917645124,0.49308081865214376]","[0.5166927508235488,0.5069191813478563]",144.1347,146.2969,0,s,0,0.6436,,0.107276347,0.444834502,0.337558155,146.2994,146.2996,0,50,50,50,1,-0.018065748,-0.018065748,shape_difference1,1,,TRUE,,intensity,0.1,0.05,0.7,0.3,0.82,20,400,1E-11,3.5,0.01,0.5,0.1,,,,,,,,,,,,,,,,,,,,,,,,,,,,,,,,,,,,,,,,,,,,,,,,,,,,,,,,,,,,,,,,,,,,,,,,,,,,,,,,,
,,,,,485127,001,2025-03-17_23h23.40.430,Utility_discrimination_2024_2cat,2024.2.4,MacIntel,60.24096386,,,,,,,,3,"[0.5,0.5]","[0.383,0.924]",d,"[0.7696455961925267,0.5]","[0.2303544038074733,0.5]",146.301,148.697,1,s,1,0.8779,,-0.09540835,0.280926442,0.376334792,148.7002,148.7002,0,51,51,51,1,0.269645596,0.269645596,shape_difference0,1,,TRUE,,intensity,0.1,0.05,0.7,0.3,0.82,20,400,1E-11,3.5,0.01,0.5,0.1,,,,,,,,,,,,,,,,,,,,,,,,,,,,,,,,,,,,,,,,,,,,,,,,,,,,,,,,,,,,,,,,,,,,,,,,,,,,,,,,,
,,,,,485127,001,2025-03-17_23h23.40.430,Utility_discrimination_2024_2cat,2024.2.4,MacIntel,60.24096386,,,,,,,,2,"[0.5,0.5]","[0.707,0.707]",s,"[0.523002251670615,0.5554936828815881]","[0.476997748329385,0.4445063171184119]",148.7011,151.1636,1,d,1,0.9416,,-0.074460067,0.331265688,0.405725754,151.1657,151.1657,0,52,52,52,1,0.060058098,0.060058098,shape_difference3,1,,TRUE,,intensity,0.1,0.05,0.7,0.3,0.82,20,400,1E-11,3.5,0.01,0.5,0.1,,,,,,,,,,,,,,,,,,,,,,,,,,,,,,,,,,,,,,,,,,,,,,,,,,,,,,,,,,,,,,,,,,,,,,,,,,,,,,,,,
,,,,,485127,001,2025-03-17_23h23.40.430,Utility_discrimination_2024_2cat,2024.2.4,MacIntel,60.24096386,,,,,,,,4,"[0.5,0.5]","[0,1]",d,"[0.5677752741626305,0.5677752741626305]","[0.43222472583736954,0.43222472583736954]",151.1672,153.7302,1,s,1,1.0336,,-0.706498112,-0.130139369,0.576358744,153.7325,153.7325,0,53,53,53,1,0.095863188,0.095863188,shape_difference2,1,,TRUE,,intensity,0.1,0.05,0.7,0.3,0.82,20,400,1E-11,3.5,0.01,0.5,0.1,,,,,,,,,,,,,,,,,,,,,,,,,,,,,,,,,,,,,,,,,,,,,,,,,,,,,,,,,,,,,,,,,,,,,,,,,,,,,,,,,
,,,,,485127,001,2025-03-17_23h23.40.430,Utility_discrimination_2024_2cat,2024.2.4,MacIntel,60.24096386,,,,,,,,2,"[0.5,0.5]","[0.707,0.707]",s,"[0.5,0.12491841427140571]","[0.5,0.8750815857285943]",153.7334,155.9971,1,s,1,0.7351,,-0.080396841,0.286611041,0.367007881,155.9996,155.9996,0,54,54,54,1,-0.375081586,-0.375081586,shape_difference4,1,,TRUE,,intensity,0.1,0.05,0.7,0.3,0.82,20,400,1E-11,3.5,0.01,0.5,0.1,,,,,,,,,,,,,,,,,,,,,,,,,,,,,,,,,,,,,,,,,,,,,,,,,,,,,,,,,,,,,,,,,,,,,,,,,,,,,,,,,
,,,,,485127,001,2025-03-17_23h23.40.430,Utility_discrimination_2024_2cat,2024.2.4,MacIntel,60.24096386,,,,,,,,1,"[0.5,0.5]","[0.924,0.383]",s,"[0.5577950870057212,0.5577950870057212]","[0.44220491299427883,0.44220491299427883]",156.0004,158.2294,1,d,1,0.6996,,-0.104534558,0.259595869,0.364130427,158.2328,158.2329,0,55,55,55,1,0.081746941,0.081746941,shape_difference2,1,,TRUE,,intensity,0.1,0.05,0.7,0.3,0.82,20,400,1E-11,3.5,0.01,0.5,0.1,,,,,,,,,,,,,,,,,,,,,,,,,,,,,,,,,,,,,,,,,,,,,,,,,,,,,,,,,,,,,,,,,,,,,,,,,,,,,,,,,
,,,,,485127,001,2025-03-17_23h23.40.430,Utility_discrimination_2024_2cat,2024.2.4,MacIntel,60.24096386,,,,,,,,4,"[0.5,0.5]","[0,1]",d,"[0.5419203473672185,0.5173760747203947]","[0.45807965263278144,0.4826239252796053]",158.2338,160.7136,0,s,0,0.9496,,-0.740475113,-0.170023005,0.570452108,160.7165,160.7165,0,56,56,56,1,0.045368341,0.045368341,shape_difference1,1,,TRUE,,intensity,0.1,0.05,0.7,0.3,0.82,20,400,1E-11,3.5,0.01,0.5,0.1,,,,,,,,,,,,,,,,,,,,,,,,,,,,,,,,,,,,,,,,,,,,,,,,,,,,,,,,,,,,,,,,,,,,,,,,,,,,,,,,,
,,,,,485127,001,2025-03-17_23h23.40.430,Utility_discrimination_2024_2cat,2024.2.4,MacIntel,60.24096386,,,,,,,,3,"[0.5,0.5]","[0.383,0.924]",d,"[0.5,0.08949394097392083]","[0.5,0.9105060590260792]",160.7174,163.0637,1,d,1,0.8184,,-0.098003257,0.236818979,0.334822235,163.0669,163.0669,0,57,57,57,1,-0.410506059,-0.410506059,shape_difference4,1,,TRUE,,intensity,0.1,0.05,0.7,0.3,0.82,20,400,1E-11,3.5,0.01,0.5,0.1,,,,,,,,,,,,,,,,,,,,,,,,,,,,,,,,,,,,,,,,,,,,,,,,,,,,,,,,,,,,,,,,,,,,,,,,,,,,,,,,,
,,,,,485127,001,2025-03-17_23h23.40.430,Utility_discrimination_2024_2cat,2024.2.4,MacIntel,60.24096386,,,,,,,,0,"[0.5,0.5]","[1,0]",d,"[0.5174934275201918,0.5422034648267813]","[0.4825065724798082,0.4577965351732188]",163.0679,165.5637,1,d,1,0.9755,,0.103753998,0.405588436,0.301834438,165.5658,165.5658,0,58,58,58,1,0.045674745,0.045674745,shape_difference3,1,,TRUE,,intensity,0.1,0.05,0.7,0.3,0.82,20,400,1E-11,3.5,0.01,0.5,0.1,,,,,,,,,,,,,,,,,,,,,,,,,,,,,,,,,,,,,,,,,,,,,,,,,,,,,,,,,,,,,,,,,,,,,,,,,,,,,,,,,
,,,,,485127,001,2025-03-17_23h23.40.430,Utility_discrimination_2024_2cat,2024.2.4,MacIntel,60.24096386,,,,,,,,2,"[0.5,0.5]","[0.707,0.707]",d,"[0.7582640861945947,0.5]","[0.24173591380540527,0.5]",165.5667,167.997,0,s,0,0.8994,,-0.084794693,0.254518884,0.339313577,168,168.0001,0,59,59,59,1,0.258264086,0.258264086,shape_difference0,1,,TRUE,,intensity,0.1,0.05,0.7,0.3,0.82,20,400,1E-11,3.5,0.01,0.5,0.1,,,,,,,,,,,,,,,,,,,,,,,,,,,,,,,,,,,,,,,,,,,,,,,,,,,,,,,,,,,,,,,,,,,,,,,,,,,,,,,,,
,,,,,485127,001,2025-03-17_23h23.40.430,Utility_discrimination_2024_2cat,2024.2.4,MacIntel,60.24096386,,,,,,,,3,"[0.5,0.5]","[0.383,0.924]",d,"[0.5495341679383113,0.5495341679383113]","[0.4504658320616886,0.4504658320616886]",168.0009,171.6627,0,d,0,2.1334,,-0.110763991,0.197407413,0.308171403,171.6661,171.6661,0,60,60,60,1,0.070062472,0.070062472,shape_difference2,1,,TRUE,,intensity,0.1,0.05,0.7,0.3,0.82,20,400,1E-11,3.5,0.01,0.5,0.1,,,,,,,,,,,,,,,,,,,,,,,,,,,,,,,,,,,,,,,,,,,,,,,,,,,,,,,,,,,,,,,,,,,,,,,,,,,,,,,,,
,,,,,485127,001,2025-03-17_23h23.40.430,Utility_discrimination_2024_2cat,2024.2.4,MacIntel,60.24096386,,,,,,,,0,"[0.5,0.5]","[1,0]",s,"[0.51199759231162,0.5289445830181121]","[0.48800240768837994,0.4710554169818879]",171.6669,173.747,1,s,1,0.5497,,0.154921141,0.486318645,0.331397503,173.7503,173.7503,0,61,61,61,1,0.031325306,0.031325306,shape_difference3,1,,TRUE,,intensity,0.1,0.05,0.7,0.3,0.82,20,400,1E-11,3.5,0.01,0.5,0.1,,,,,,,,,,,,,,,,,,,,,,,,,,,,,,,,,,,,,,,,,,,,,,,,,,,,,,,,,,,,,,,,,,,,,,,,,,,,,,,,,
,,,,,485127,001,2025-03-17_23h23.40.430,Utility_discrimination_2024_2cat,2024.2.4,MacIntel,60.24096386,,,,,,,,4,"[0.5,0.5]","[0,1]",s,"[0.8093143904958694,0.5]","[0.1906856095041306,0.5]",173.7512,175.847,1,s,1,0.5682,,-0.763304889,-0.210959736,0.552345154,175.8493,175.8494,0,62,62,62,1,0.30931439,0.30931439,shape_difference0,1,,TRUE,,intensity,0.1,0.05,0.7,0.3,0.82,20,400,1E-11,3.5,0.01,0.5,0.1,,,,,,,,,,,,,,,,,,,,,,,,,,,,,,,,,,,,,,,,,,,,,,,,,,,,,,,,,,,,,,,,,,,,,,,,,,,,,,,,,
,,,,,485127,001,2025-03-17_23h23.40.430,Utility_discrimination_2024_2cat,2024.2.4,MacIntel,60.24096386,,,,,,,,1,"[0.5,0.5]","[0.924,0.383]",s,"[0.5,0.05999979575992709]","[0.5,0.9400002042400729]",175.8503,177.9971,1,d,1,0.6161,,-0.083413541,0.324945584,0.408359125,178.0005,178.0005,0,63,63,63,1,-0.440000204,-0.440000204,shape_difference4,1,,TRUE,,intensity,0.1,0.05,0.7,0.3,0.82,20,400,1E-11,3.5,0.01,0.5,0.1,,,,,,,,,,,,,,,,,,,,,,,,,,,,,,,,,,,,,,,,,,,,,,,,,,,,,,,,,,,,,,,,,,,,,,,,,,,,,,,,,
,,,,,485127,001,2025-03-17_23h23.40.430,Utility_discrimination_2024_2cat,2024.2.4,MacIntel,60.24096386,,,,,,,,0,"[0.5,0.5]","[1,0]",d,"[0.5746601063131817,0.5309467756687755]","[0.42533989368681835,0.4690532243312245]",178.0012,180.1804,1,d,1,0.6484,,0.143521495,0.466808409,0.323286914,180.1837,180.1837,0,64,64,64,1,0.080800981,0.080800981,shape_difference1,1,,TRUE,,intensity,0.1,0.05,0.7,0.3,0.82,20,400,1E-11,3.5,0.01,0.5,0.1,,,,,,,,,,,,,,,,,,,,,,,,,,,,,,,,,,,,,,,,,,,,,,,,,,,,,,,,,,,,,,,,,,,,,,,,,,,,,,,,,
,,,,,485127,001,2025-03-17_23h23.40.430,Utility_discrimination_2024_2cat,2024.2.4,MacIntel,60.24096386,,,,,,,,2,"[0.5,0.5]","[0.707,0.707]",d,"[0.7936844637193247,0.5]","[0.20631553628067534,0.5]",180.1846,182.2794,1,d,1,0.5672,,-0.024562478,0.347532985,0.372095463,182.2814,182.2814,0,65,65,65,1,0.293684464,0.293684464,shape_difference0,1,,TRUE,,intensity,0.1,0.05,0.7,0.3,0.82,20,400,1E-11,3.5,0.01,0.5,0.1,,,,,,,,,,,,,,,,,,,,,,,,,,,,,,,,,,,,,,,,,,,,,,,,,,,,,,,,,,,,,,,,,,,,,,,,,,,,,,,,,
,,,,,485127,001,2025-03-17_23h23.40.430,Utility_discrimination_2024_2cat,2024.2.4,MacIntel,60.24096386,,,,,,,,3,"[0.5,0.5]","[0.383,0.924]",d,"[0.587345498904564,0.587345498904564]","[0.41265450109543594,0.41265450109543594]",182.2822,184.5137,1,d,1,0.6981,,-0.131150676,0.181827025,0.312977701,184.5165,184.5165,0,66,66,66,1,0.123543846,0.123543846,shape_difference2,1,,TRUE,,intensity,0.1,0.05,0.7,0.3,0.82,20,400,1E-11,3.5,0.01,0.5,0.1,,,,,,,,,,,,,,,,,,,,,,,,,,,,,,,,,,,,,,,,,,,,,,,,,,,,,,,,,,,,,,,,,,,,,,,,,,,,,,,,,
,,,,,485127,001,2025-03-17_23h23.40.430,Utility_discrimination_2024_2cat,2024.2.4,MacIntel,60.24096386,,,,,,,,1,"[0.5,0.5]","[0.924,0.383]",d,"[0.5059825726303051,0.5144331517242869]","[0.49401742736969495,0.4855668482757131]",184.5174,186.8805,1,s,1,0.8332,,-0.086967906,0.278349441,0.365317346,186.8839,186.8839,0,67,67,67,1,0.015620294,0.015620294,shape_difference3,1,,TRUE,,intensity,0.1,0.05,0.7,0.3,0.82,20,400,1E-11,3.5,0.01,0.5,0.1,,,,,,,,,,,,,,,,,,,,,,,,,,,,,,,,,,,,,,,,,,,,,,,,,,,,,,,,,,,,,,,,,,,,,,,,,,,,,,,,,
,,,,,485127,001,2025-03-17_23h23.40.430,Utility_discrimination_2024_2cat,2024.2.4,MacIntel,60.24096386,,,,,,,,4,"[0.5,0.5]","[0,1]",s,"[0.5614686975940423,0.5254789082018595]","[0.4385313024059577,0.4745210917981405]",186.8847,189.1638,1,s,1,0.7485,,-0.779061589,-0.241211791,0.537849798,189.1664,189.1665,0,68,68,68,1,0.066524564,0.066524564,shape_difference1,1,,TRUE,,intensity,0.1,0.05,0.7,0.3,0.82,20,400,1E-11,3.5,0.01,0.5,0.1,,,,,,,,,,,,,,,,,,,,,,,,,,,,,,,,,,,,,,,,,,,,,,,,,,,,,,,,,,,,,,,,,,,,,,,,,,,,,,,,,
,,,,,485127,001,2025-03-17_23h23.40.430,Utility_discrimination_2024_2cat,2024.2.4,MacIntel,60.24096386,,,,,,,,4,"[0.5,0.5]","[0,1]",s,"[0.5,0.0335558258797376]","[0.5,0.9664441741202624]",189.1672,191.2137,1,d,1,0.5166,,-0.797573468,-0.278899126,0.518674342,191.2166,191.2166,0,69,69,69,1,-0.466444174,-0.466444174,shape_difference4,1,,TRUE,,intensity,0.1,0.05,0.7,0.3,0.82,20,400,1E-11,3.5,0.01,0.5,0.1,,,,,,,,,,,,,,,,,,,,,,,,,,,,,,,,,,,,,,,,,,,,,,,,,,,,,,,,,,,,,,,,,,,,,,,,,,,,,,,,,
,,,,,485127,001,2025-03-17_23h23.40.430,Utility_discrimination_2024_2cat,2024.2.4,MacIntel,60.24096386,,,,,,,,2,"[0.5,0.5]","[0.707,0.707]",d,"[0.5,0.0017110158371279605]","[0.5,0.998288984162872]",191.2174,193.5804,1,s,1,0.8324,,-0.041008573,0.297912266,0.338920839,193.5838,193.5838,0,70,70,70,1,-0.498288984,-0.498288984,shape_difference4,1,,TRUE,,intensity,0.1,0.05,0.7,0.3,0.82,20,400,1E-11,3.5,0.01,0.5,0.1,,,,,,,,,,,,,,,,,,,,,,,,,,,,,,,,,,,,,,,,,,,,,,,,,,,,,,,,,,,,,,,,,,,,,,,,,,,,,,,,,
,,,,,485127,001,2025-03-17_23h23.40.430,Utility_discrimination_2024_2cat,2024.2.4,MacIntel,60.24096386,,,,,,,,1,"[0.5,0.5]","[0.924,0.383]",s,"[0.572716322996838,0.572716322996838]","[0.42728367700316205,0.42728367700316205]",193.5846,195.7471,1,s,1,0.6434,,-0.089621303,0.236526423,0.326147726,195.7493,195.7494,0,71,71,71,1,0.102851942,0.102851942,shape_difference2,1,,TRUE,,intensity,0.1,0.05,0.7,0.3,0.82,20,400,1E-11,3.5,0.01,0.5,0.1,,,,,,,,,,,,,,,,,,,,,,,,,,,,,,,,,,,,,,,,,,,,,,,,,,,,,,,,,,,,,,,,,,,,,,,,,,,,,,,,,
,,,,,485127,001,2025-03-17_23h23.40.430,Utility_discrimination_2024_2cat,2024.2.4,MacIntel,60.24096386,,,,,,,,0,"[0.5,0.5]","[1,0]",s,"[0.5501121864904425,0.5207716097682246]","[0.44988781350955753,0.47922839023177544]",195.7502,197.8303,1,s,1,0.5583,,0.135075815,0.44169355,0.306617735,197.8332,197.8333,0,72,72,72,1,0.054233968,0.054233968,shape_difference1,1,,TRUE,,intensity,0.1,0.05,0.7,0.3,0.82,20,400,1E-11,3.5,0.01,0.5,0.1,,,,,,,,,,,,,,,,,,,,,,,,,,,,,,,,,,,,,,,,,,,,,,,,,,,,,,,,,,,,,,,,,,,,,,,,,,,,,,,,,
,,,,,485127,001,2025-03-17_23h23.40.430,Utility_discrimination_2024_2cat,2024.2.4,MacIntel,60.24096386,,,,,,,,3,"[0.5,0.5]","[0.383,0.924]",s,"[0.7835542731384436,0.5]","[0.2164457268615564,0.5]",197.8341,200.0639,1,s,1,0.7094,,-0.14599577,0.162588105,0.308583876,200.0669,200.067,0,73,73,73,1,0.283554273,0.283554273,shape_difference0,1,,TRUE,,intensity,0.1,0.05,0.7,0.3,0.82,20,400,1E-11,3.5,0.01,0.5,0.1,,,,,,,,,,,,,,,,,,,,,,,,,,,,,,,,,,,,,,,,,,,,,,,,,,,,,,,,,,,,,,,,,,,,,,,,,,,,,,,,,
,,,,,485127,001,2025-03-17_23h23.40.430,Utility_discrimination_2024_2cat,2024.2.4,MacIntel,60.24096386,,,,,,,,0,"[0.5,0.5]","[1,0]",s,"[0.4994924439886062,0.49877550455736847]","[0.5005075560113939,0.5012244954426315]",200.0678,202.2462,0,s,0,0.6499,,0.128697907,0.408331185,0.279633278,202.2486,202.2486,0,74,74,74,1,-0.001325212,-0.001325212,shape_difference3,1,,TRUE,,intensity,0.1,0.05,0.7,0.3,0.82,20,400,1E-11,3.5,0.01,0.5,0.1,,,,,,,,,,,,,,,,,,,,,,,,,,,,,,,,,,,,,,,,,,,,,,,,,,,,,,,,,,,,,,,,,,,,,,,,,,,,,,,,,
,,,,,485127,001,2025-03-17_23h23.40.430,Utility_discrimination_2024_2cat,2024.2.4,MacIntel,60.24096386,,,,,,,,1,"[0.5,0.5]","[0.924,0.383]",d,"[0.7751060915041961,0.5]","[0.22489390849580387,0.5]",202.2494,204.2972,1,d,1,0.5152,,-0.091662597,0.195119385,0.286781982,204.2994,204.2995,0,75,75,75,1,0.275106092,0.275106092,shape_difference0,1,,TRUE,,intensity,0.1,0.05,0.7,0.3,0.82,20,400,1E-11,3.5,0.01,0.5,0.1,,,,,,,,,,,,,,,,,,,,,,,,,,,,,,,,,,,,,,,,,,,,,,,,,,,,,,,,,,,,,,,,,,,,,,,,,,,,,,,,,
,,,,,485127,001,2025-03-17_23h23.40.430,Utility_discrimination_2024_2cat,2024.2.4,MacIntel,60.24096386,,,,,,,,4,"[0.5,0.5]","[0,1]",d,"[0.5398419235878258,0.5165145635650836]","[0.4601580764121742,0.48348543643491637]",204.3005,206.7471,1,d,1,0.9194,,-0.825856923,-0.311772,0.514084923,206.7495,206.7495,0,76,76,76,1,0.043118965,0.043118965,shape_difference1,1,,TRUE,,intensity,0.1,0.05,0.7,0.3,0.82,20,400,1E-11,3.5,0.01,0.5,0.1,,,,,,,,,,,,,,,,,,,,,,,,,,,,,,,,,,,,,,,,,,,,,,,,,,,,,,,,,,,,,,,,,,,,,,,,,,,,,,,,,
,,,,,485127,001,2025-03-17_23h23.40.430,Utility_discrimination_2024_2cat,2024.2.4,MacIntel,60.24096386,,,,,,,,3,"[0.5,0.5]","[0.383,0.924]",d,"[0.5,-0.026430620101685176]","[0.5,1.026430620101685]",206.7503,209.0474,1,d,1,0.7779,,-0.092275498,0.198508575,0.290784073,209.0505,209.0506,0,77,77,77,1,-0.52643062,-0.52643062,shape_difference4,1,,TRUE,,intensity,0.1,0.05,0.7,0.3,0.82,20,400,1E-11,3.5,0.01,0.5,0.1,,,,,,,,,,,,,,,,,,,,,,,,,,,,,,,,,,,,,,,,,,,,,,,,,,,,,,,,,,,,,,,,,,,,,,,,,,,,,,,,,
,,,,,485127,001,2025-03-17_23h23.40.430,Utility_discrimination_2024_2cat,2024.2.4,MacIntel,60.24096386,,,,,,,,2,"[0.5,0.5]","[0.707,0.707]",d,"[0.516398353213073,0.5395615623208341]","[0.483601646786927,0.460438437679166]",209.0514,211.5472,1,d,1,0.9677,,-0.052906442,0.275003314,0.327909757,211.5495,211.5495,0,78,78,78,1,0.042815544,0.042815544,shape_difference3,1,,TRUE,,intensity,0.1,0.05,0.7,0.3,0.82,20,400,1E-11,3.5,0.01,0.5,0.1,,,,,,,,,,,,,,,,,,,,,,,,,,,,,,,,,,,,,,,,,,,,,,,,,,,,,,,,,,,,,,,,,,,,,,,,,,,,,,,,,
,,,,,485127,001,2025-03-17_23h23.40.430,Utility_discrimination_2024_2cat,2024.2.4,MacIntel,60.24096386,,,,,,,,0,"[0.5,0.5]","[1,0]",d,"[0.5637427830172747,0.5637427830172747]","[0.4362572169827254,0.4362572169827254]",211.5503,213.7466,1,s,1,0.6698,,0.123792503,0.393906216,0.270113714,213.7492,213.7493,0,79,79,79,1,0.090159523,0.090159523,shape_difference2,1,,TRUE,,intensity,0.1,0.05,0.7,0.3,0.82,20,400,1E-11,3.5,0.01,0.5,0.1,,,,,,,,,,,,,,,,,,,,,,,,,,,,,,,,,,,,,,,,,,,,,,,,,,,,,,,,,,,,,,,,,,,,,,,,,,,,,,,,,
,,,,,485127,001,2025-03-17_23h23.40.430,Utility_discrimination_2024_2cat,2024.2.4,MacIntel,60.24096386,,,,,,,,2,"[0.5,0.5]","[0.707,0.707]",s,"[0.7678516127582129,0.5]","[0.23214838724178716,0.5]",213.75,215.8304,1,d,1,0.552,,-0.061701722,0.246130143,0.307831865,215.8329,215.833,0,80,80,80,1,0.267851613,0.267851613,shape_difference0,1,,TRUE,,intensity,0.1,0.05,0.7,0.3,0.82,20,400,1E-11,3.5,0.01,0.5,0.1,,,,,,,,,,,,,,,,,,,,,,,,,,,,,,,,,,,,,,,,,,,,,,,,,,,,,,,,,,,,,,,,,,,,,,,,,,,,,,,,,
,,,,,485127,001,2025-03-17_23h23.40.430,Utility_discrimination_2024_2cat,2024.2.4,MacIntel,60.24096386,,,,,,,,3,"[0.5,0.5]","[0.383,0.924]",d,"[0.5572135792437309,0.5572135792437309]","[0.44278642075626906,0.44278642075626906]",215.8342,217.9137,1,d,1,0.5498,,-0.094566992,0.185361415,0.279928407,217.9164,217.9164,0,81,81,81,1,0.08092444,0.08092444,shape_difference2,1,,TRUE,,intensity,0.1,0.05,0.7,0.3,0.82,20,400,1E-11,3.5,0.01,0.5,0.1,,,,,,,,,,,,,,,,,,,,,,,,,,,,,,,,,,,,,,,,,,,,,,,,,,,,,,,,,,,,,,,,,,,,,,,,,,,,,,,,,
,,,,,485127,001,2025-03-17_23h23.40.430,Utility_discrimination_2024_2cat,2024.2.4,MacIntel,60.24096386,,,,,,,,1,"[0.5,0.5]","[0.924,0.383]",d,"[0.5117656839717066,0.528385096579261]","[0.4882343160282933,0.471614903420739]",217.9173,219.9139,1,s,1,0.4659,,-0.093903864,0.182225584,0.276129448,219.917,219.917,0,82,82,82,1,0.030719801,0.030719801,shape_difference3,1,,TRUE,,intensity,0.1,0.05,0.7,0.3,0.82,20,400,1E-11,3.5,0.01,0.5,0.1,,,,,,,,,,,,,,,,,,,,,,,,,,,,,,,,,,,,,,,,,,,,,,,,,,,,,,,,,,,,,,,,,,,,,,,,,,,,,,,,,
,,,,,485127,001,2025-03-17_23h23.40.430,Utility_discrimination_2024_2cat,2024.2.4,MacIntel,60.24096386,,,,,,,,4,"[0.5,0.5]","[0,1]",s,"[0.5292491309929495,0.5121238281063849]","[0.47075086900705054,0.4878761718936151]",219.9181,222.0138,1,s,1,0.5682,,-0.848016174,-0.337659314,0.51035686,222.0163,222.0163,0,83,83,83,1,0.031654904,0.031654904,shape_difference1,1,,TRUE,,intensity,0.1,0.05,0.7,0.3,0.82,20,400,1E-11,3.5,0.01,0.5,0.1,,,,,,,,,,,,,,,,,,,,,,,,,,,,,,,,,,,,,,,,,,,,,,,,,,,,,,,,,,,,,,,,,,,,,,,,,,,,,,,,,
,,,,,485127,001,2025-03-17_23h23.40.430,Utility_discrimination_2024_2cat,2024.2.4,MacIntel,60.24096386,,,,,,,,2,"[0.5,0.5]","[0.707,0.707]",s,"[0.5,-0.05098213323522749]","[0.5,1.0509821332352276]",222.0172,223.9969,1,s,1,0.45,,-0.068337912,0.208384939,0.27672285,224.0002,224.0002,0,84,84,84,1,-0.550982133,-0.550982133,shape_difference4,1,,TRUE,,intensity,0.1,0.05,0.7,0.3,0.82,20,400,1E-11,3.5,0.01,0.5,0.1,,,,,,,,,,,,,,,,,,,,,,,,,,,,,,,,,,,,,,,,,,,,,,,,,,,,,,,,,,,,,,,,,,,,,,,,,,,,,,,,,
,,,,,485127,001,2025-03-17_23h23.40.430,Utility_discrimination_2024_2cat,2024.2.4,MacIntel,60.24096386,,,,,,,,1,"[0.5,0.5]","[0.924,0.383]",s,"[0.5518171700822017,0.5518171700822017]","[0.44818282991779834,0.44818282991779834]",224.0011,226.0972,1,d,1,0.5668,,-0.095904664,0.166655548,0.262560212,226.0997,226.0997,0,85,85,85,1,0.073291613,0.073291613,shape_difference2,1,,TRUE,,intensity,0.1,0.05,0.7,0.3,0.82,20,400,1E-11,3.5,0.01,0.5,0.1,,,,,,,,,,,,,,,,,,,,,,,,,,,,,,,,,,,,,,,,,,,,,,,,,,,,,,,,,,,,,,,,,,,,,,,,,,,,,,,,,
,,,,,485127,001,2025-03-17_23h23.40.430,Utility_discrimination_2024_2cat,2024.2.4,MacIntel,60.24096386,,,,,,,,4,"[0.5,0.5]","[0,1]",d,"[0.5176311577612098,0.5073081530547006]","[0.48236884223879023,0.4926918469452994]",226.1006,228.3306,1,d,1,0.6989,,-0.873461133,-0.368757096,0.504704037,228.3341,228.3342,0,86,86,86,1,0.01908134,0.01908134,shape_difference1,1,,TRUE,,intensity,0.1,0.05,0.7,0.3,0.82,20,400,1E-11,3.5,0.01,0.5,0.1,,,,,,,,,,,,,,,,,,,,,,,,,,,,,,,,,,,,,,,,,,,,,,,,,,,,,,,,,,,,,,,,,,,,,,,,,,,,,,,,,
,,,,,485127,001,2025-03-17_23h23.40.430,Utility_discrimination_2024_2cat,2024.2.4,MacIntel,60.24096386,,,,,,,,0,"[0.5,0.5]","[1,0]",d,"[0.5,-0.07834298263666717]","[0.5,1.0783429826366673]",228.3351,230.4471,1,d,1,0.5826,,0.119953614,0.385731963,0.265778349,230.4493,230.4494,0,87,87,87,1,-0.578342983,-0.578342983,shape_difference4,1,,TRUE,,intensity,0.1,0.05,0.7,0.3,0.82,20,400,1E-11,3.5,0.01,0.5,0.1,,,,,,,,,,,,,,,,,,,,,,,,,,,,,,,,,,,,,,,,,,,,,,,,,,,,,,,,,,,,,,,,,,,,,,,,,,,,,,,,,
,,,,,485127,001,2025-03-17_23h23.40.430,Utility_discrimination_2024_2cat,2024.2.4,MacIntel,60.24096386,,,,,,,,3,"[0.5,0.5]","[0.383,0.924]",d,"[0.7614164410550373,0.5]","[0.2385835589449627,0.5]",230.4503,232.5139,0,s,0,0.5332,,-0.096628643,0.169562918,0.266191561,232.5169,232.5169,0,88,88,88,1,0.261416441,0.261416441,shape_difference0,1,,TRUE,,intensity,0.1,0.05,0.7,0.3,0.82,20,400,1E-11,3.5,0.01,0.5,0.1,,,,,,,,,,,,,,,,,,,,,,,,,,,,,,,,,,,,,,,,,,,,,,,,,,,,,,,,,,,,,,,,,,,,,,,,,,,,,,,,,
,,,,,485127,001,2025-03-17_23h23.40.430,Utility_discrimination_2024_2cat,2024.2.4,MacIntel,60.24096386,,,,,,,,1,"[0.5,0.5]","[0.924,0.383]",d,"[0.5066915298653472,0.5161435341921169]","[0.49330847013465284,0.48385646580788305]",232.5178,234.5806,1,s,1,0.5329,,-0.097764928,0.147234304,0.244999232,234.5837,234.5837,0,89,89,89,1,0.017471357,0.017471357,shape_difference3,1,,TRUE,,intensity,0.1,0.05,0.7,0.3,0.82,20,400,1E-11,3.5,0.01,0.5,0.1,,,,,,,,,,,,,,,,,,,,,,,,,,,,,,,,,,,,,,,,,,,,,,,,,,,,,,,,,,,,,,,,,,,,,,,,,,,,,,,,,
,,,,,485127,001,2025-03-17_23h23.40.430,Utility_discrimination_2024_2cat,2024.2.4,MacIntel,60.24096386,,,,,,,,0,"[0.5,0.5]","[1,0]",s,"[0.504534254676206,0.5018794583776914]","[0.49546574532379395,0.4981205416223085]",234.5846,236.6476,1,s,1,0.5438,,0.174862047,0.429919271,0.255057224,236.6495,236.6495,0,90,90,90,1,0.004907202,0.004907202,shape_difference1,1,,TRUE,,intensity,0.1,0.05,0.7,0.3,0.82,20,400,1E-11,3.5,0.01,0.5,0.1,,,,,,,,,,,,,,,,,,,,,,,,,,,,,,,,,,,,,,,,,,,,,,,,,,,,,,,,,,,,,,,,,,,,,,,,,,,,,,,,,
,,,,,485127,001,2025-03-17_23h23.40.430,Utility_discrimination_2024_2cat,2024.2.4,MacIntel,60.24096386,,,,,,,,2,"[0.5,0.5]","[0.707,0.707]",s,"[0.7885190040314201,0.5]","[0.21148099596858,0.5]",236.6505,238.8805,1,s,1,0.6989,,-0.073441413,0.193047936,0.266489349,238.8835,238.8836,0,91,91,91,1,0.288519004,0.288519004,shape_difference0,1,,TRUE,,intensity,0.1,0.05,0.7,0.3,0.82,20,400,1E-11,3.5,0.01,0.5,0.1,,,,,,,,,,,,,,,,,,,,,,,,,,,,,,,,,,,,,,,,,,,,,,,,,,,,,,,,,,,,,,,,,,,,,,,,,,,,,,,,,
,,,,,485127,001,2025-03-17_23h23.40.430,Utility_discrimination_2024_2cat,2024.2.4,MacIntel,60.24096386,,,,,,,,4,"[0.5,0.5]","[0,1]",s,"[0.5472169869042013,0.5472169869042013]","[0.4527830130957987,0.4527830130957987]",238.8847,241.1139,1,s,1,0.6996,,-0.890526426,-0.404878559,0.485647867,241.1164,241.1164,0,92,92,92,1,0.066784989,0.066784989,shape_difference2,1,,TRUE,,intensity,0.1,0.05,0.7,0.3,0.82,20,400,1E-11,3.5,0.01,0.5,0.1,,,,,,,,,,,,,,,,,,,,,,,,,,,,,,,,,,,,,,,,,,,,,,,,,,,,,,,,,,,,,,,,,,,,,,,,,,,,,,,,,
,,,,,485127,001,2025-03-17_23h23.40.430,Utility_discrimination_2024_2cat,2024.2.4,MacIntel,60.24096386,,,,,,,,3,"[0.5,0.5]","[0.383,0.924]",s,"[0.5,-0.10833449655479521]","[0.5,1.1083344965547952]",241.1173,243.2139,1,s,1,0.5662,,-0.098563168,0.149919648,0.248482817,243.217,243.2171,0,93,93,93,1,-0.608334497,-0.608334497,shape_difference4,1,,TRUE,,intensity,0.1,0.05,0.7,0.3,0.82,20,400,1E-11,3.5,0.01,0.5,0.1,,,,,,,,,,,,,,,,,,,,,,,,,,,,,,,,,,,,,,,,,,,,,,,,,,,,,,,,,,,,,,,,,,,,,,,,,,,,,,,,,
,,,,,485127,001,2025-03-17_23h23.40.430,Utility_discrimination_2024_2cat,2024.2.4,MacIntel,60.24096386,,,,,,,,2,"[0.5,0.5]","[0.707,0.707]",s,"[0.5009741691056352,0.5023502147613756]","[0.49902583089436486,0.4976497852386243]",243.2181,245.2306,0,s,0,0.483,,-0.077435473,0.18403724,0.261472713,245.2335,245.2335,0,94,94,94,1,0.002543522,0.002543522,shape_difference3,1,,TRUE,,intensity,0.1,0.05,0.7,0.3,0.82,20,400,1E-11,3.5,0.01,0.5,0.1,,,,,,,,,,,,,,,,,,,,,,,,,,,,,,,,,,,,,,,,,,,,,,,,,,,,,,,,,,,,,,,,,,,,,,,,,,,,,,,,,
,,,,,485127,001,2025-03-17_23h23.40.430,Utility_discrimination_2024_2cat,2024.2.4,MacIntel,60.24096386,,,,,,,,3,"[0.5,0.5]","[0.383,0.924]",d,"[0.5431596709036353,0.5431596709036353]","[0.4568403290963648,0.4568403290963648]",245.2345,247.5972,1,d,1,0.8438,,-0.08989736,0.186573182,0.276470542,247.5995,247.5995,0,95,95,95,1,0.061046211,0.061046211,shape_difference2,1,,TRUE,,intensity,0.1,0.05,0.7,0.3,0.82,20,400,1E-11,3.5,0.01,0.5,0.1,,,,,,,,,,,,,,,,,,,,,,,,,,,,,,,,,,,,,,,,,,,,,,,,,,,,,,,,,,,,,,,,,,,,,,,,,,,,,,,,,
,,,,,485127,001,2025-03-17_23h23.40.430,Utility_discrimination_2024_2cat,2024.2.4,MacIntel,60.24096386,,,,,,,,1,"[0.5,0.5]","[0.924,0.383]",d,"[0.5152878163560282,0.5368823559085378]","[0.48471218364397184,0.4631176440914621]",247.6004,249.9306,0,d,0,0.8024,,-0.099564795,0.122339002,0.221903797,249.9336,249.9336,0,96,96,96,1,0.03991597,0.03991597,shape_difference3,1,,TRUE,,intensity,0.1,0.05,0.7,0.3,0.82,20,400,1E-11,3.5,0.01,0.5,0.1,,,,,,,,,,,,,,,,,,,,,,,,,,,,,,,,,,,,,,,,,,,,,,,,,,,,,,,,,,,,,,,,,,,,,,,,,,,,,,,,,
,,,,,485127,001,2025-03-17_23h23.40.430,Utility_discrimination_2024_2cat,2024.2.4,MacIntel,60.24096386,,,,,,,,4,"[0.5,0.5]","[0,1]",s,"[0.4942737286313982,0.4976264481231878]","[0.5057262713686018,0.5023735518768122]",249.9346,252.2477,0,s,0,0.7948,,-0.906423025,-0.425211867,0.481211158,252.2502,252.2503,0,97,97,97,1,-0.006197263,-0.006197263,shape_difference1,1,,TRUE,,intensity,0.1,0.05,0.7,0.3,0.82,20,400,1E-11,3.5,0.01,0.5,0.1,,,,,,,,,,,,,,,,,,,,,,,,,,,,,,,,,,,,,,,,,,,,,,,,,,,,,,,,,,,,,,,,,,,,,,,,,,,,,,,,,
,,,,,485127,001,2025-03-17_23h23.40.430,Utility_discrimination_2024_2cat,2024.2.4,MacIntel,60.24096386,,,,,,,,0,"[0.5,0.5]","[1,0]",d,"[0.5,-0.1332477255727441]","[0.5,1.133247725572744]",252.2512,254.4639,1,d,1,0.6829,,0.161245212,0.39950439,0.238259179,254.4664,254.4664,0,98,98,98,1,-0.633247726,-0.633247726,shape_difference4,1,,TRUE,,intensity,0.1,0.05,0.7,0.3,0.82,20,400,1E-11,3.5,0.01,0.5,0.1,,,,,,,,,,,,,,,,,,,,,,,,,,,,,,,,,,,,,,,,,,,,,,,,,,,,,,,,,,,,,,,,,,,,,,,,,,,,,,,,,
,,,,,485127,001,2025-03-17_23h23.40.430,Utility_discrimination_2024_2cat,2024.2.4,MacIntel,60.24096386,,,,,,,,1,"[0.5,0.5]","[0.924,0.383]",d,"[0.7813065203282961,0.5]","[0.21869347967170394,0.5]",254.4679,256.7138,1,d,1,0.7257,,-0.09128134,0.169920107,0.261201447,256.7165,256.7165,0,99,99,99,1,0.28130652,0.28130652,shape_difference0,1,,TRUE,,intensity,0.1,0.05,0.7,0.3,0.82,20,400,1E-11,3.5,0.01,0.5,0.1,,,,,,,,,,,,,,,,,,,,,,,,,,,,,,,,,,,,,,,,,,,,,,,,,,,,,,,,,,,,,,,,,,,,,,,,,,,,,,,,,
,,,,,485127,001,2025-03-17_23h23.40.430,Utility_discrimination_2024_2cat,2024.2.4,MacIntel,60.24096386,,,,,,,,0,"[0.5,0.5]","[1,0]",d,"[0.527901427834738,0.5115652022301999]","[0.4720985721652619,0.48843479776980014]",256.7174,258.6972,1,d,1,0.4486,,0.150758483,0.393466347,0.242707863,258.6993,258.6993,0,100,100,100,1,0.03019635,0.03019635,shape_difference1,1,,TRUE,,intensity,0.1,0.05,0.7,0.3,0.82,20,400,1E-11,3.5,0.01,0.5,0.1,,,,,,,,,,,,,,,,,,,,,,,,,,,,,,,,,,,,,,,,,,,,,,,,,,,,,,,,,,,,,,,,,,,,,,,,,,,,,,,,,
,,,,,485127,001,2025-03-17_23h23.40.430,Utility_discrimination_2024_2cat,2024.2.4,MacIntel,60.24096386,,,,,,,,4,"[0.5,0.5]","[0,1]",d,"[0.7753106317713332,0.5]","[0.2246893682286668,0.5]",258.7004,260.9476,1,d,1,0.7272,,-0.929904407,-0.45344894,0.476455467,260.9505,260.9506,0,101,101,101,1,0.275310632,0.275310632,shape_difference0,1,,TRUE,,intensity,0.1,0.05,0.7,0.3,0.82,20,400,1E-11,3.5,0.01,0.5,0.1,,,,,,,,,,,,,,,,,,,,,,,,,,,,,,,,,,,,,,,,,,,,,,,,,,,,,,,,,,,,,,,,,,,,,,,,,,,,,,,,,
,,,,,485127,001,2025-03-17_23h23.40.430,Utility_discrimination_2024_2cat,2024.2.4,MacIntel,60.24096386,,,,,,,,3,"[0.5,0.5]","[0.383,0.924]",d,"[0.5,-0.15554859019755163]","[0.5,1.1555485901975517]",260.9515,263.2305,1,d,1,0.758,,-0.081756038,0.2276383,0.309394337,263.2325,263.2325,0,102,102,102,1,-0.65554859,-0.65554859,shape_difference4,1,,TRUE,,intensity,0.1,0.05,0.7,0.3,0.82,20,400,1E-11,3.5,0.01,0.5,0.1,,,,,,,,,,,,,,,,,,,,,,,,,,,,,,,,,,,,,,,,,,,,,,,,,,,,,,,,,,,,,,,,,,,,,,,,,,,,,,,,,
,,,,,485127,001,2025-03-17_23h23.40.430,Utility_discrimination_2024_2cat,2024.2.4,MacIntel,60.24096386,,,,,,,,2,"[0.5,0.5]","[0.707,0.707]",d,"[0.5241801178054822,0.5583353233740617]","[0.4758198821945177,0.4416646766259383]",263.2334,265.413,1,s,1,0.6563,,-0.080611214,0.174086275,0.254697489,265.4155,265.4155,0,103,103,103,1,0.063133467,0.063133467,shape_difference3,1,,TRUE,,intensity,0.1,0.05,0.7,0.3,0.82,20,400,1E-11,3.5,0.01,0.5,0.1,,,,,,,,,,,,,,,,,,,,,,,,,,,,,,,,,,,,,,,,,,,,,,,,,,,,,,,,,,,,,,,,,,,,,,,,,,,,,,,,,
,,,,,485127,001,2025-03-17_23h23.40.430,Utility_discrimination_2024_2cat,2024.2.4,MacIntel,60.24096386,,,,,,,,2,"[0.5,0.5]","[0.707,0.707]",s,"[0.5394489843179033,0.5394489843179033]","[0.46055101568209666,0.46055101568209666]",265.4164,267.4138,1,s,1,0.4744,,-0.083172503,0.162644498,0.245817001,267.4164,267.4164,0,104,104,104,1,0.055797715,0.055797715,shape_difference2,1,,TRUE,,intensity,0.1,0.05,0.7,0.3,0.82,20,400,1E-11,3.5,0.01,0.5,0.1,,,,,,,,,,,,,,,,,,,,,,,,,,,,,,,,,,,,,,,,,,,,,,,,,,,,,,,,,,,,,,,,,,,,,,,,,,,,,,,,,
,,,,,485127,001,2025-03-17_23h23.40.430,Utility_discrimination_2024_2cat,2024.2.4,MacIntel,60.24096386,,,,,,,,1,"[0.5,0.5]","[0.924,0.383]",s,"[0.5359276511786424,0.5359276511786424]","[0.4640723488213576,0.4640723488213576]",267.4173,269.664,1,d,1,0.716,,-0.092786646,0.15320786,0.245994506,269.6665,269.6665,0,105,105,105,1,0.050817046,0.050817046,shape_difference2,1,,TRUE,,intensity,0.1,0.05,0.7,0.3,0.82,20,400,1E-11,3.5,0.01,0.5,0.1,,,,,,,,,,,,,,,,,,,,,,,,,,,,,,,,,,,,,,,,,,,,,,,,,,,,,,,,,,,,,,,,,,,,,,,,,,,,,,,,,
,,,,,485127,001,2025-03-17_23h23.40.430,Utility_discrimination_2024_2cat,2024.2.4,MacIntel,60.24096386,,,,,,,,4,"[0.5,0.5]","[0,1]",d,"[0.5174924435433784,0.5072506557111622]","[0.4825075564566215,0.4927493442888377]",269.6673,272.2139,0,s,0,1.0164,,-0.957860854,-0.488033908,0.469826946,272.2173,272.2173,0,106,106,106,1,0.018931216,0.018931216,shape_difference1,1,,TRUE,,intensity,0.1,0.05,0.7,0.3,0.82,20,400,1E-11,3.5,0.01,0.5,0.1,,,,,,,,,,,,,,,,,,,,,,,,,,,,,,,,,,,,,,,,,,,,,,,,,,,,,,,,,,,,,,,,,,,,,,,,,,,,,,,,,
,,,,,485127,001,2025-03-17_23h23.40.430,Utility_discrimination_2024_2cat,2024.2.4,MacIntel,60.24096386,,,,,,,,3,"[0.5,0.5]","[0.383,0.924]",d,"[0.5,-0.18103348253926732]","[0.5,1.1810334825392674]",272.2183,274.3472,1,d,1,0.6,,-0.08437929,0.194287999,0.27866729,274.3492,274.3492,0,107,107,107,1,-0.681033483,-0.681033483,shape_difference4,1,,TRUE,,intensity,0.1,0.05,0.7,0.3,0.82,20,400,1E-11,3.5,0.01,0.5,0.1,,,,,,,,,,,,,,,,,,,,,,,,,,,,,,,,,,,,,,,,,,,,,,,,,,,,,,,,,,,,,,,,,,,,,,,,,,,,,,,,,
,,,,,485127,001,2025-03-17_23h23.40.430,Utility_discrimination_2024_2cat,2024.2.4,MacIntel,60.24096386,,,,,,,,0,"[0.5,0.5]","[1,0]",d,"[0.5209328678382509,0.5505012268473728]","[0.4790671321617491,0.44949877315262715]",274.3505,276.4974,1,d,1,0.6159,,0.14256361,0.387128925,0.244565316,276.5001,276.5001,0,108,108,108,1,0.054655007,0.054655007,shape_difference3,1,,TRUE,,intensity,0.1,0.05,0.7,0.3,0.82,20,400,1E-11,3.5,0.01,0.5,0.1,,,,,,,,,,,,,,,,,,,,,,,,,,,,,,,,,,,,,,,,,,,,,,,,,,,,,,,,,,,,,,,,,,,,,,,,,,,,,,,,,
,,,,,485127,001,2025-03-17_23h23.40.430,Utility_discrimination_2024_2cat,2024.2.4,MacIntel,60.24096386,,,,,,,,0,"[0.5,0.5]","[1,0]",d,"[0.7702188271244637,0.5]","[0.2297811728755363,0.5]",276.5009,278.5139,0,d,0,0.4829,,0.203015956,0.413826134,0.210810179,278.5168,278.5169,0,109,109,109,1,0.270218827,0.270218827,shape_difference0,1,,TRUE,,intensity,0.1,0.05,0.7,0.3,0.82,20,400,1E-11,3.5,0.01,0.5,0.1,,,,,,,,,,,,,,,,,,,,,,,,,,,,,,,,,,,,,,,,,,,,,,,,,,,,,,,,,,,,,,,,,,,,,,,,,,,,,,,,,
,,,,,485127,001,2025-03-17_23h23.40.430,Utility_discrimination_2024_2cat,2024.2.4,MacIntel,60.24096386,,,,,,,,2,"[0.5,0.5]","[0.707,0.707]",s,"[0.790533638673,0.5]","[0.20946636132700003,0.5]",278.5178,280.7138,1,d,1,0.6765,,-0.085264664,0.149035303,0.234299967,280.7158,280.7158,0,110,110,110,1,0.290533639,0.290533639,shape_difference0,1,,TRUE,,intensity,0.1,0.05,0.7,0.3,0.82,20,400,1E-11,3.5,0.01,0.5,0.1,,,,,,,,,,,,,,,,,,,,,,,,,,,,,,,,,,,,,,,,,,,,,,,,,,,,,,,,,,,,,,,,,,,,,,,,,,,,,,,,,
,,,,,485127,001,2025-03-17_23h23.40.430,Utility_discrimination_2024_2cat,2024.2.4,MacIntel,60.24096386,,,,,,,,3,"[0.5,0.5]","[0.383,0.924]",d,"[0.5324645070399394,0.5324645070399394]","[0.46753549296006053,0.46753549296006053]",280.7168,282.9641,1,s,1,0.727,,-0.086414948,0.181152788,0.267567736,282.9674,282.9674,0,111,111,111,1,0.04591868,0.04591868,shape_difference2,1,,TRUE,,intensity,0.1,0.05,0.7,0.3,0.82,20,400,1E-11,3.5,0.01,0.5,0.1,,,,,,,,,,,,,,,,,,,,,,,,,,,,,,,,,,,,,,,,,,,,,,,,,,,,,,,,,,,,,,,,,,,,,,,,,,,,,,,,,
,,,,,485127,001,2025-03-17_23h23.40.430,Utility_discrimination_2024_2cat,2024.2.4,MacIntel,60.24096386,,,,,,,,4,"[0.5,0.5]","[0,1]",s,"[0.5179391743924349,0.5432788437039421]","[0.48206082560756514,0.456721156296058]",282.9684,285.1304,1,d,1,0.6422,,-0.976778747,-0.511527665,0.465251083,285.1321,285.1321,0,112,112,112,1,0.046838575,0.046838575,shape_difference3,1,,TRUE,,intensity,0.1,0.05,0.7,0.3,0.82,20,400,1E-11,3.5,0.01,0.5,0.1,,,,,,,,,,,,,,,,,,,,,,,,,,,,,,,,,,,,,,,,,,,,,,,,,,,,,,,,,,,,,,,,,,,,,,,,,,,,,,,,,
,,,,,485127,001,2025-03-17_23h23.40.430,Utility_discrimination_2024_2cat,2024.2.4,MacIntel,60.24096386,,,,,,,,1,"[0.5,0.5]","[0.924,0.383]",d,"[0.5,-0.20855418853410157]","[0.5,1.2085541885341016]",285.1327,287.1971,1,d,1,0.5403,,-0.086729123,0.183923678,0.270652801,287.1989,287.1989,0,113,113,113,1,-0.708554189,-0.708554189,shape_difference4,1,,TRUE,,intensity,0.1,0.05,0.7,0.3,0.82,20,400,1E-11,3.5,0.01,0.5,0.1,,,,,,,,,,,,,,,,,,,,,,,,,,,,,,,,,,,,,,,,,,,,,,,,,,,,,,,,,,,,,,,,,,,,,,,,,,,,,,,,,
,,,,,485127,001,2025-03-17_23h23.40.430,Utility_discrimination_2024_2cat,2024.2.4,MacIntel,60.24096386,,,,,,,,0,"[0.5,0.5]","[1,0]",d,"[0.5430657203717496,0.5178508343099352]","[0.4569342796282504,0.48214916569006483]",287.1996,289.8138,1,d,1,1.0919,,0.201741016,0.397140859,0.195399844,289.8166,289.8167,0,114,114,114,1,0.046607922,0.046607922,shape_difference1,1,,TRUE,,intensity,0.1,0.05,0.7,0.3,0.82,20,400,1E-11,3.5,0.01,0.5,0.1,,,,,,,,,,,,,,,,,,,,,,,,,,,,,,,,,,,,,,,,,,,,,,,,,,,,,,,,,,,,,,,,,,,,,,,,,,,,,,,,,
,,,,,485127,001,2025-03-17_23h23.40.430,Utility_discrimination_2024_2cat,2024.2.4,MacIntel,60.24096386,,,,,,,,1,"[0.5,0.5]","[0.924,0.383]",d,"[0.7839555031472956,0.5]","[0.2160444968527045,0.5]",289.8175,292.2475,1,s,1,0.9116,,-0.088609519,0.171712435,0.260321954,292.2502,292.2502,0,115,115,115,1,0.283955503,0.283955503,shape_difference0,1,,TRUE,,intensity,0.1,0.05,0.7,0.3,0.82,20,400,1E-11,3.5,0.01,0.5,0.1,,,,,,,,,,,,,,,,,,,,,,,,,,,,,,,,,,,,,,,,,,,,,,,,,,,,,,,,,,,,,,,,,,,,,,,,,,,,,,,,,
,,,,,485127,001,2025-03-17_23h23.40.430,Utility_discrimination_2024_2cat,2024.2.4,MacIntel,60.24096386,,,,,,,,4,"[0.5,0.5]","[0,1]",s,"[0.5351866354105634,0.514584936539227]","[0.4648133645894366,0.48541506346077296]",292.2514,294.564,0,s,0,0.7845,,-0.98988212,-0.531869289,0.458012831,294.5657,294.5658,0,116,116,116,1,0.038080774,0.038080774,shape_difference1,1,,TRUE,,intensity,0.1,0.05,0.7,0.3,0.82,20,400,1E-11,3.5,0.01,0.5,0.1,,,,,,,,,,,,,,,,,,,,,,,,,,,,,,,,,,,,,,,,,,,,,,,,,,,,,,,,,,,,,,,,,,,,,,,,,,,,,,,,,
,,,,,485127,001,2025-03-17_23h23.40.430,Utility_discrimination_2024_2cat,2024.2.4,MacIntel,60.24096386,,,,,,,,2,"[0.5,0.5]","[0.707,0.707]",d,"[0.5,-0.23097758359781861]","[0.5,1.2309775835978187]",294.5667,296.6636,1,d,1,0.5728,,-0.087424271,0.13465433,0.222078602,296.6652,296.6652,0,117,117,117,1,-0.730977584,-0.730977584,shape_difference4,1,,TRUE,,intensity,0.1,0.05,0.7,0.3,0.82,20,400,1E-11,3.5,0.01,0.5,0.1,,,,,,,,,,,,,,,,,,,,,,,,,,,,,,,,,,,,,,,,,,,,,,,,,,,,,,,,,,,,,,,,,,,,,,,,,,,,,,,,,
,,,,,485127,001,2025-03-17_23h23.40.430,Utility_discrimination_2024_2cat,2024.2.4,MacIntel,60.24096386,,,,,,,,3,"[0.5,0.5]","[0.383,0.924]",d,"[0.5284526936147943,0.5284526936147943]","[0.4715473063852057,0.4715473063852057]",296.6659,298.9462,1,d,1,0.749,,-0.088318594,0.169025282,0.257343876,298.9476,298.9476,0,118,118,118,1,0.040244263,0.040244263,shape_difference2,1,,TRUE,,intensity,0.1,0.05,0.7,0.3,0.82,20,400,1E-11,3.5,0.01,0.5,0.1,,,,,,,,,,,,,,,,,,,,,,,,,,,,,,,,,,,,,,,,,,,,,,,,,,,,,,,,,,,,,,,,,,,,,,,,,,,,,,,,,
,,,,,485127,001,2025-03-17_23h23.40.430,Utility_discrimination_2024_2cat,2024.2.4,MacIntel,60.24096386,,,,,,,,1,"[0.5,0.5]","[0.924,0.383]",d,"[0.5148217440298084,0.535757941210295]","[0.4851782559701916,0.46424205878970504]",298.9481,301.2299,0,d,0,0.7513,,-0.08160099,0.193330478,0.274931467,301.2331,301.2332,0,119,119,119,1,0.038699071,0.038699071,shape_difference3,1,,TRUE,,intensity,0.1,0.05,0.7,0.3,0.82,20,400,1E-11,3.5,0.01,0.5,0.1,,,,,,,,,,,,,,,,,,,,,,,,,,,,,,,,,,,,,,,,,,,,,,,,,,,,,,,,,,,,,,,,,,,,,,,,,,,,,,,,,
,,,,,485127,001,2025-03-17_23h23.40.430,Utility_discrimination_2024_2cat,2024.2.4,MacIntel,60.24096386,,,,,,,,2,"[0.5,0.5]","[0.707,0.707]",s,"[0.5538428313646035,0.5223179701435532]","[0.44615716863539645,0.4776820298564468]",301.2342,303.6305,1,d,1,0.8759,,-0.089236736,0.116515783,0.205752519,303.6325,303.6325,0,120,120,120,1,0.058271463,0.058271463,shape_difference1,1,,TRUE,,intensity,0.1,0.05,0.7,0.3,0.82,20,400,1E-11,3.5,0.01,0.5,0.1,,,,,,,,,,,,,,,,,,,,,,,,,,,,,,,,,,,,,,,,,,,,,,,,,,,,,,,,,,,,,,,,,,,,,,,,,,,,,,,,,
,,,,,485127,001,2025-03-17_23h23.40.430,Utility_discrimination_2024_2cat,2024.2.4,MacIntel,60.24096386,,,,,,,,0,"[0.5,0.5]","[1,0]",d,"[0.5239355461012881,0.5239355461012881]","[0.4760644538987119,0.4760644538987119]",303.6333,306.3138,0,d,0,1.1626,,0.200456414,0.392087262,0.191630848,306.3165,306.3165,0,121,121,121,1,0.033855086,0.033855086,shape_difference2,1,,TRUE,,intensity,0.1,0.05,0.7,0.3,0.82,20,400,1E-11,3.5,0.01,0.5,0.1,,,,,,,,,,,,,,,,,,,,,,,,,,,,,,,,,,,,,,,,,,,,,,,,,,,,,,,,,,,,,,,,,,,,,,,,,,,,,,,,,
,,,,,485127,001,2025-03-17_23h23.40.430,Utility_discrimination_2024_2cat,2024.2.4,MacIntel,60.24096386,,,,,,,,3,"[0.5,0.5]","[0.383,0.924]",s,"[0.7785660495573069,0.5]","[0.2214339504426931,0.5]",306.3176,308.4805,1,d,1,0.6338,,-0.081227425,0.190578627,0.271806052,308.4825,308.4825,0,122,122,122,1,0.27856605,0.27856605,shape_difference0,1,,TRUE,,intensity,0.1,0.05,0.7,0.3,0.82,20,400,1E-11,3.5,0.01,0.5,0.1,,,,,,,,,,,,,,,,,,,,,,,,,,,,,,,,,,,,,,,,,,,,,,,,,,,,,,,,,,,,,,,,,,,,,,,,,,,,,,,,,
,,,,,485127,001,2025-03-17_23h23.40.430,Utility_discrimination_2024_2cat,2024.2.4,MacIntel,60.24096386,,,,,,,,4,"[0.5,0.5]","[0,1]",d,"[0.5222168439981828,0.5535988612384358]","[0.4777831560018172,0.4464011387615642]",308.4835,310.6305,1,d,1,0.6169,,-0.999178956,-0.560253648,0.438925308,310.6328,310.6328,0,123,123,123,1,0.058007426,0.058007426,shape_difference3,1,,TRUE,,intensity,0.1,0.05,0.7,0.3,0.82,20,400,1E-11,3.5,0.01,0.5,0.1,,,,,,,,,,,,,,,,,,,,,,,,,,,,,,,,,,,,,,,,,,,,,,,,,,,,,,,,,,,,,,,,,,,,,,,,,,,,,,,,,
,,,,,485127,001,2025-03-17_23h23.40.430,Utility_discrimination_2024_2cat,2024.2.4,MacIntel,60.24096386,,,,,,,,1,"[0.5,0.5]","[0.924,0.383]",d,"[0.5,-0.2510238366474369]","[0.5,1.2510238366474369]",310.6342,312.7305,1,d,1,0.5683,,-0.084009589,0.181169057,0.265178646,312.7336,312.7336,0,124,124,124,1,-0.751023837,-0.751023837,shape_difference4,1,,TRUE,,intensity,0.1,0.05,0.7,0.3,0.82,20,400,1E-11,3.5,0.01,0.5,0.1,,,,,,,,,,,,,,,,,,,,,,,,,,,,,,,,,,,,,,,,,,,,,,,,,,,,,,,,,,,,,,,,,,,,,,,,,,,,,,,,,
,,,,,485127,001,2025-03-17_23h23.40.430,Utility_discrimination_2024_2cat,2024.2.4,MacIntel,60.24096386,,,,,,,,4,"[0.5,0.5]","[0,1]",d,"[0.5474972020245102,0.5196876930469561]","[0.45250279797548976,0.48031230695304394]",312.7344,314.9638,1,s,1,0.6993,,-1.032935643,-0.59453384,0.438401803,314.966,314.966,0,125,125,125,1,0.051403898,0.051403898,shape_difference1,1,,TRUE,,intensity,0.1,0.05,0.7,0.3,0.82,20,400,1E-11,3.5,0.01,0.5,0.1,,,,,,,,,,,,,,,,,,,,,,,,,,,,,,,,,,,,,,,,,,,,,,,,,,,,,,,,,,,,,,,,,,,,,,,,,,,,,,,,,
,,,,,485127,001,2025-03-17_23h23.40.430,Utility_discrimination_2024_2cat,2024.2.4,MacIntel,60.24096386,,,,,,,,3,"[0.5,0.5]","[0.383,0.924]",s,"[0.5,-0.27335121334668455]","[0.5,1.2733512133466847]",314.9669,317.3304,0,s,0,0.8353,,-0.083666733,0.178621306,0.26228804,317.3318,317.3318,0,126,126,126,1,-0.773351213,-0.773351213,shape_difference4,1,,TRUE,,intensity,0.1,0.05,0.7,0.3,0.82,20,400,1E-11,3.5,0.01,0.5,0.1,,,,,,,,,,,,,,,,,,,,,,,,,,,,,,,,,,,,,,,,,,,,,,,,,,,,,,,,,,,,,,,,,,,,,,,,,,,,,,,,,
,,,,,485127,001,2025-03-17_23h23.40.430,Utility_discrimination_2024_2cat,2024.2.4,MacIntel,60.24096386,,,,,,,,0,"[0.5,0.5]","[1,0]",d,"[0.519721856877701,0.5475796233811898]","[0.48027814312229905,0.4524203766188102]",317.3323,319.7298,1,d,1,0.8661,,0.188768912,0.386783909,0.198014997,319.7319,319.732,0,127,127,127,1,0.051493099,0.051493099,shape_difference3,1,,TRUE,,intensity,0.1,0.05,0.7,0.3,0.82,20,400,1E-11,3.5,0.01,0.5,0.1,,,,,,,,,,,,,,,,,,,,,,,,,,,,,,,,,,,,,,,,,,,,,,,,,,,,,,,,,,,,,,,,,,,,,,,,,,,,,,,,,
,,,,,485127,001,2025-03-17_23h23.40.430,Utility_discrimination_2024_2cat,2024.2.4,MacIntel,60.24096386,,,,,,,,2,"[0.5,0.5]","[0.707,0.707]",d,"[0.7740921120393495,0.5]","[0.22590788796065053,0.5]",319.7328,322.8963,0,d,0,1.6421,,-0.082144876,0.150347482,0.232492357,322.8988,322.8988,0,128,128,128,1,0.274092112,0.274092112,shape_difference0,1,,TRUE,,intensity,0.1,0.05,0.7,0.3,0.82,20,400,1E-11,3.5,0.01,0.5,0.1,,,,,,,,,,,,,,,,,,,,,,,,,,,,,,,,,,,,,,,,,,,,,,,,,,,,,,,,,,,,,,,,,,,,,,,,,,,,,,,,,
,,,,,485127,001,2025-03-17_23h23.40.430,Utility_discrimination_2024_2cat,2024.2.4,MacIntel,60.24096386,,,,,,,,4,"[0.5,0.5]","[0,1]",s,"[0.5351698008913952,0.5351698008913952]","[0.4648301991086048,0.4648301991086048]",322.8997,325.246,1,s,1,0.818,,-0.893126905,-0.533222166,0.359904739,325.248,325.2481,0,129,129,129,1,0.049745121,0.049745121,shape_difference2,1,,TRUE,,intensity,0.1,0.05,0.7,0.3,0.82,20,400,1E-11,3.5,0.01,0.5,0.1,,,,,,,,,,,,,,,,,,,,,,,,,,,,,,,,,,,,,,,,,,,,,,,,,,,,,,,,,,,,,,,,,,,,,,,,,,,,,,,,,
,,,,,485127,001,2025-03-17_23h23.40.430,Utility_discrimination_2024_2cat,2024.2.4,MacIntel,60.24096386,,,,,,,,0,"[0.5,0.5]","[1,0]",s,"[0.5,-0.2170802019993474]","[0.5,1.2170802019993474]",325.2485,331.3305,0,d,0,4.559,,0.20564134,0.399271861,0.193630521,331.3324,331.3324,0,130,130,130,1,-0.717080202,-0.717080202,shape_difference4,1,,TRUE,,intensity,0.1,0.05,0.7,0.3,0.82,20,400,1E-11,3.5,0.01,0.5,0.1,,,,,,,,,,,,,,,,,,,,,,,,,,,,,,,,,,,,,,,,,,,,,,,,,,,,,,,,,,,,,,,,,,,,,,,,,,,,,,,,,
,,,,,485127,001,2025-03-17_23h23.40.430,Utility_discrimination_2024_2cat,2024.2.4,MacIntel,60.24096386,,,,,,,,2,"[0.5,0.5]","[0.707,0.707]",s,"[0.7913799173512772,0.5]","[0.20862008264872284,0.5]",331.3332,333.9968,1,d,1,1.1444,,-0.084610557,0.137130145,0.221740702,333.9988,333.9988,0,131,131,131,1,0.291379917,0.291379917,shape_difference0,1,,TRUE,,intensity,0.1,0.05,0.7,0.3,0.82,20,400,1E-11,3.5,0.01,0.5,0.1,,,,,,,,,,,,,,,,,,,,,,,,,,,,,,,,,,,,,,,,,,,,,,,,,,,,,,,,,,,,,,,,,,,,,,,,,,,,,,,,,
,,,,,485127,001,2025-03-17_23h23.40.430,Utility_discrimination_2024_2cat,2024.2.4,MacIntel,60.24096386,,,,,,,,1,"[0.5,0.5]","[0.924,0.383]",d,"[0.5318065479515304,0.5318065479515304]","[0.4681934520484697,0.4681934520484697]",334.0002,336.3972,1,s,1,0.8773,,-0.085915858,0.167599089,0.253514947,336.3997,336.3997,0,132,132,132,1,0.044988045,0.044988045,shape_difference2,1,,TRUE,,intensity,0.1,0.05,0.7,0.3,0.82,20,400,1E-11,3.5,0.01,0.5,0.1,,,,,,,,,,,,,,,,,,,,,,,,,,,,,,,,,,,,,,,,,,,,,,,,,,,,,,,,,,,,,,,,,,,,,,,,,,,,,,,,,
,,,,,485127,001,2025-03-17_23h23.40.430,Utility_discrimination_2024_2cat,2024.2.4,MacIntel,60.24096386,,,,,,,,3,"[0.5,0.5]","[0.383,0.924]",s,"[0.5414658427237443,0.5171876815618983]","[0.4585341572762557,0.4828123184381017]",336.4004,338.7807,1,s,1,0.8551,,-0.085605473,0.165157581,0.250763054,338.7832,338.7833,0,133,133,133,1,0.044876453,0.044876453,shape_difference1,1,,TRUE,,intensity,0.1,0.05,0.7,0.3,0.82,20,400,1E-11,3.5,0.01,0.5,0.1,,,,,,,,,,,,,,,,,,,,,,,,,,,,,,,,,,,,,,,,,,,,,,,,,,,,,,,,,,,,,,,,,,,,,,,,,,,,,,,,,
,,,,,485127,001,2025-03-17_23h23.40.430,Utility_discrimination_2024_2cat,2024.2.4,MacIntel,60.24096386,,,,,,,,0,"[0.5,0.5]","[1,0]",s,"[0.5173407840080623,0.541835207371931]","[0.4826592159919377,0.458164792628069]",338.784,341.3639,1,s,1,1.063,,0.204789044,0.394979671,0.190190628,341.3667,341.3667,0,134,134,134,1,0.045276198,0.045276198,shape_difference3,1,,TRUE,,intensity,0.1,0.05,0.7,0.3,0.82,20,400,1E-11,3.5,0.01,0.5,0.1,,,,,,,,,,,,,,,,,,,,,,,,,,,,,,,,,,,,,,,,,,,,,,,,,,,,,,,,,,,,,,,,,,,,,,,,,,,,,,,,,
,,,,,485127,001,2025-03-17_23h23.40.430,Utility_discrimination_2024_2cat,2024.2.4,MacIntel,60.24096386,,,,,,,,4,"[0.5,0.5]","[0,1]",s,"[0.7851492364486262,0.5]","[0.21485076355137378,0.5]",341.3676,343.8139,1,s,1,0.9281,,-0.817453685,-0.487788641,0.329665044,343.8162,343.8162,0,135,135,135,1,0.285149236,0.285149236,shape_difference0,1,,TRUE,,intensity,0.1,0.05,0.7,0.3,0.82,20,400,1E-11,3.5,0.01,0.5,0.1,,,,,,,,,,,,,,,,,,,,,,,,,,,,,,,,,,,,,,,,,,,,,,,,,,,,,,,,,,,,,,,,,,,,,,,,,,,,,,,,,
,,,,,485127,001,2025-03-17_23h23.40.430,Utility_discrimination_2024_2cat,2024.2.4,MacIntel,60.24096386,,,,,,,,3,"[0.5,0.5]","[0.383,0.924]",s,"[0.5,-0.15274487151996252]","[0.5,1.1527448715199626]",343.8171,345.8295,1,d,1,0.4823,,-0.087447652,0.15176999,0.239217642,345.8309,345.831,0,136,136,136,1,-0.652744872,-0.652744872,shape_difference4,1,,TRUE,,intensity,0.1,0.05,0.7,0.3,0.82,20,400,1E-11,3.5,0.01,0.5,0.1,,,,,,,,,,,,,,,,,,,,,,,,,,,,,,,,,,,,,,,,,,,,,,,,,,,,,,,,,,,,,,,,,,,,,,,,,,,,,,,,,
,,,,,485127,001,2025-03-17_23h23.40.430,Utility_discrimination_2024_2cat,2024.2.4,MacIntel,60.24096386,,,,,,,,2,"[0.5,0.5]","[0.707,0.707]",d,"[0.5147156402039257,0.5355019622674344]","[0.48528435979607426,0.4644980377325656]",345.8317,348.113,1,d,1,0.7488,,-0.086630792,0.120633312,0.207264104,348.1157,348.1157,0,137,137,137,1,0.038422037,0.038422037,shape_difference3,1,,TRUE,,intensity,0.1,0.05,0.7,0.3,0.82,20,400,1E-11,3.5,0.01,0.5,0.1,,,,,,,,,,,,,,,,,,,,,,,,,,,,,,,,,,,,,,,,,,,,,,,,,,,,,,,,,,,,,,,,,,,,,,,,,,,,,,,,,
,,,,,485127,001,2025-03-17_23h23.40.430,Utility_discrimination_2024_2cat,2024.2.4,MacIntel,60.24096386,,,,,,,,1,"[0.5,0.5]","[0.924,0.383]",d,"[0.5280635667418104,0.5280635667418104]","[0.47193643325818957,0.47193643325818957]",348.1166,350.0632,0,d,0,0.4163,,-0.087718585,0.154236272,0.241954857,350.0663,350.0663,0,138,138,138,1,0.039693871,0.039693871,shape_difference2,1,,TRUE,,intensity,0.1,0.05,0.7,0.3,0.82,20,400,1E-11,3.5,0.01,0.5,0.1,,,,,,,,,,,,,,,,,,,,,,,,,,,,,,,,,,,,,,,,,,,,,,,,,,,,,,,,,,,,,,,,,,,,,,,,,,,,,,,,,
,,,,,485127,001,2025-03-17_23h23.40.430,Utility_discrimination_2024_2cat,2024.2.4,MacIntel,60.24096386,,,,,,,,2,"[0.5,0.5]","[0.707,0.707]",s,"[0.5348521800274554,0.5144463040589994]","[0.4651478199725446,0.4855536959410006]",350.067,352.4964,1,s,1,0.9102,,-0.078980985,0.151071698,0.230052683,352.4985,352.4986,0,139,139,139,1,0.03771881,0.03771881,shape_difference1,1,,TRUE,,intensity,0.1,0.05,0.7,0.3,0.82,20,400,1E-11,3.5,0.01,0.5,0.1,,,,,,,,,,,,,,,,,,,,,,,,,,,,,,,,,,,,,,,,,,,,,,,,,,,,,,,,,,,,,,,,,,,,,,,,,,,,,,,,,
,,,,,485127,001,2025-03-17_23h23.40.430,Utility_discrimination_2024_2cat,2024.2.4,MacIntel,60.24096386,,,,,,,,4,"[0.5,0.5]","[0,1]",s,"[0.537276455621099,0.537276455621099]","[0.46272354437890095,0.46272354437890095]",352.4994,354.6475,1,d,1,0.6275,,-0.837340082,-0.507111733,0.330228349,354.6505,354.6505,0,140,140,140,1,0.052724831,0.052724831,shape_difference2,1,,TRUE,,intensity,0.1,0.05,0.7,0.3,0.82,20,400,1E-11,3.5,0.01,0.5,0.1,,,,,,,,,,,,,,,,,,,,,,,,,,,,,,,,,,,,,,,,,,,,,,,,,,,,,,,,,,,,,,,,,,,,,,,,,,,,,,,,,
,,,,,485127,001,2025-03-17_23h23.40.430,Utility_discrimination_2024_2cat,2024.2.4,MacIntel,60.24096386,,,,,,,,3,"[0.5,0.5]","[0.383,0.924]",d,"[0.5,-0.16809043206950502]","[0.5,1.168090432069505]",354.6513,356.8138,1,s,1,0.6318,,-0.0889385,0.135128791,0.224067291,356.8147,356.8148,0,141,141,141,1,-0.668090432,-0.668090432,shape_difference4,1,,TRUE,,intensity,0.1,0.05,0.7,0.3,0.82,20,400,1E-11,3.5,0.01,0.5,0.1,,,,,,,,,,,,,,,,,,,,,,,,,,,,,,,,,,,,,,,,,,,,,,,,,,,,,,,,,,,,,,,,,,,,,,,,,,,,,,,,,
,,,,,485127,001,2025-03-17_23h23.40.430,Utility_discrimination_2024_2cat,2024.2.4,MacIntel,60.24096386,,,,,,,,1,"[0.5,0.5]","[0.924,0.383]",s,"[0.5118020769972147,0.5284728959410611]","[0.4881979230027853,0.47152710405893894]",356.8154,360.5472,0,d,0,2.2099,,-0.08917658,0.137659236,0.226835816,360.5491,360.5491,0,142,142,142,1,0.030814822,0.030814822,shape_difference3,1,,TRUE,,intensity,0.1,0.05,0.7,0.3,0.82,20,400,1E-11,3.5,0.01,0.5,0.1,,,,,,,,,,,,,,,,,,,,,,,,,,,,,,,,,,,,,,,,,,,,,,,,,,,,,,,,,,,,,,,,,,,,,,,,,,,,,,,,,
,,,,,485127,001,2025-03-17_23h23.40.430,Utility_discrimination_2024_2cat,2024.2.4,MacIntel,60.24096386,,,,,,,,0,"[0.5,0.5]","[1,0]",s,"[0.5275212912844283,0.5114076348072901]","[0.47247870871557174,0.48859236519270993]",360.5497,363.0974,1,s,1,1.0182,,0.203984337,0.390582258,0.186597921,363.1005,363.1006,0,143,143,143,1,0.029784947,0.029784947,shape_difference1,1,,TRUE,,intensity,0.1,0.05,0.7,0.3,0.82,20,400,1E-11,3.5,0.01,0.5,0.1,,,,,,,,,,,,,,,,,,,,,,,,,,,,,,,,,,,,,,,,,,,,,,,,,,,,,,,,,,,,,,,,,,,,,,,,,,,,,,,,,
,,,,,485127,001,2025-03-17_23h23.40.430,Utility_discrimination_2024_2cat,2024.2.4,MacIntel,60.24096386,,,,,,,,4,"[0.5,0.5]","[0,1]",s,"[0.7800683672031838,0.5]","[0.2199316327968162,0.5]",363.1014,365.0974,1,s,1,0.4755,,-0.851522981,-0.519850869,0.331672112,365.0993,365.0993,0,144,144,144,1,0.280068367,0.280068367,shape_difference0,1,,TRUE,,intensity,0.1,0.05,0.7,0.3,0.82,20,400,1E-11,3.5,0.01,0.5,0.1,,,,,,,,,,,,,,,,,,,,,,,,,,,,,,,,,,,,,,,,,,,,,,,,,,,,,,,,,,,,,,,,,,,,,,,,,,,,,,,,,
,,,,,485127,001,2025-03-17_23h23.40.430,Utility_discrimination_2024_2cat,2024.2.4,MacIntel,60.24096386,,,,,,,,1,"[0.5,0.5]","[0.924,0.383]",s,"[0.5,-0.18509606091199238]","[0.5,1.1850960609119925]",365.1001,367.2965,1,s,1,0.6666,,-0.090367101,0.116689948,0.207057049,367.2996,367.2996,0,145,145,145,1,-0.685096061,-0.685096061,shape_difference4,1,,TRUE,,intensity,0.1,0.05,0.7,0.3,0.82,20,400,1E-11,3.5,0.01,0.5,0.1,,,,,,,,,,,,,,,,,,,,,,,,,,,,,,,,,,,,,,,,,,,,,,,,,,,,,,,,,,,,,,,,,,,,,,,,,,,,,,,,,
,,,,,485127,001,2025-03-17_23h23.40.430,Utility_discrimination_2024_2cat,2024.2.4,MacIntel,60.24096386,,,,,,,,3,"[0.5,0.5]","[0.383,0.924]",s,"[0.5192320899965004,0.5079717429314499]","[0.4807679100034996,0.4920282570685502]",367.3005,370.7139,0,s,0,1.8825,,-0.083357374,0.165856019,0.249213393,370.7165,370.7165,0,146,146,146,1,0.02081395,0.02081395,shape_difference1,1,,TRUE,,intensity,0.1,0.05,0.7,0.3,0.82,20,400,1E-11,3.5,0.01,0.5,0.1,,,,,,,,,,,,,,,,,,,,,,,,,,,,,,,,,,,,,,,,,,,,,,,,,,,,,,,,,,,,,,,,,,,,,,,,,,,,,,,,,
,,,,,485127,001,2025-03-17_23h23.40.430,Utility_discrimination_2024_2cat,2024.2.4,MacIntel,60.24096386,,,,,,,,2,"[0.5,0.5]","[0.707,0.707]",d,"[0.5189612693411905,0.5457446811260053]","[0.48103873065880953,0.4542553188739948]",370.718,373.1964,1,d,1,0.954,,-0.081450933,0.136437531,0.217888464,373.1989,373.199,0,147,147,147,1,0.049507231,0.049507231,shape_difference3,1,,TRUE,,intensity,0.1,0.05,0.7,0.3,0.82,20,400,1E-11,3.5,0.01,0.5,0.1,,,,,,,,,,,,,,,,,,,,,,,,,,,,,,,,,,,,,,,,,,,,,,,,,,,,,,,,,,,,,,,,,,,,,,,,,,,,,,,,,
,,,,,485127,001,2025-03-17_23h23.40.430,Utility_discrimination_2024_2cat,2024.2.4,MacIntel,60.24096386,,,,,,,,0,"[0.5,0.5]","[1,0]",d,"[0.5346718565379455,0.5346718565379455]","[0.4653281434620545,0.4653281434620545]",373.1999,375.3139,0,d,0,0.585,,0.203198664,0.385931285,0.182732621,375.3162,375.3164,0,148,148,148,1,0.049040815,0.049040815,shape_difference2,1,,TRUE,,intensity,0.1,0.05,0.7,0.3,0.82,20,400,1E-11,3.5,0.01,0.5,0.1,,,,,,,,,,,,,,,,,,,,,,,,,,,,,,,,,,,,,,,,,,,,,,,,,,,,,,,,,,,,,,,,,,,,,,,,,,,,,,,,,
,,,,,485127,001,2025-03-17_23h23.40.430,Utility_discrimination_2024_2cat,2024.2.4,MacIntel,60.24096386,,,,,,,,1,"[0.5,0.5]","[0.924,0.383]",s,"[0.7758910598893423,0.5]","[0.22410894011065774,0.5]",375.3173,377.2974,1,d,1,0.4518,,-0.085862579,0.155999973,0.241862551,377.3008,377.3008,0,149,149,149,1,0.27589106,0.27589106,shape_difference0,1,,TRUE,,intensity,0.1,0.05,0.7,0.3,0.82,20,400,1E-11,3.5,0.01,0.5,0.1,,,,,,,,,,,,,,,,,,,,,,,,,,,,,,,,,,,,,,,,,,,,,,,,,,,,,,,,,,,,,,,,,,,,,,,,,,,,,,,,,
,,,,,485127,001,2025-03-17_23h23.40.430,Utility_discrimination_2024_2cat,2024.2.4,MacIntel,60.24096386,,,,,,,,3,"[0.5,0.5]","[0.383,0.924]",d,"[0.5399039276425556,0.516540264379977]","[0.4600960723574444,0.4834597356200229]",377.3017,379.4307,1,s,1,0.6032,,-0.085554718,0.153577355,0.239132073,379.4329,379.433,0,150,150,150,1,0.043186069,0.043186069,shape_difference1,1,,TRUE,,intensity,0.1,0.05,0.7,0.3,0.82,20,400,1E-11,3.5,0.01,0.5,0.1,,,,,,,,,,,,,,,,,,,,,,,,,,,,,,,,,,,,,,,,,,,,,,,,,,,,,,,,,,,,,,,,,,,,,,,,,,,,,,,,,
,,,,,485127,001,2025-03-17_23h23.40.430,Utility_discrimination_2024_2cat,2024.2.4,MacIntel,60.24096386,,,,,,,,4,"[0.5,0.5]","[0,1]",s,"[0.5167325723635297,0.5403678769292464]","[0.4832674276364704,0.45963212307075363]",379.4339,381.7306,1,s,1,0.7776,,-0.861824458,-0.536035534,0.325788925,381.733,381.7331,0,151,151,151,1,0.043688178,0.043688178,shape_difference3,1,,TRUE,,intensity,0.1,0.05,0.7,0.3,0.82,20,400,1E-11,3.5,0.01,0.5,0.1,,,,,,,,,,,,,,,,,,,,,,,,,,,,,,,,,,,,,,,,,,,,,,,,,,,,,,,,,,,,,,,,,,,,,,,,,,,,,,,,,
,,,,,485127,001,2025-03-17_23h23.40.430,Utility_discrimination_2024_2cat,2024.2.4,MacIntel,60.24096386,,,,,,,,0,"[0.5,0.5]","[1,0]",s,"[0.5,-0.2028383952888817]","[0.5,1.2028383952888817]",381.7339,385.2472,1,d,1,1.9916,,0.202406894,0.380866771,0.178459877,385.2498,385.2498,0,152,152,152,1,-0.702838395,-0.702838395,shape_difference4,1,,TRUE,,intensity,0.1,0.05,0.7,0.3,0.82,20,400,1E-11,3.5,0.01,0.5,0.1,,,,,,,,,,,,,,,,,,,,,,,,,,,,,,,,,,,,,,,,,,,,,,,,,,,,,,,,,,,,,,,,,,,,,,,,,,,,,,,,,
,,,,,485127,001,2025-03-17_23h23.40.430,Utility_discrimination_2024_2cat,2024.2.4,MacIntel,60.24096386,,,,,,,,2,"[0.5,0.5]","[0.707,0.707]",d,"[0.7724253793587735,0.5]","[0.22757462064122647,0.5]",385.2508,387.6641,1,d,1,0.8931,,-0.070135065,0.158970929,0.229105994,387.6659,387.666,0,153,153,153,1,0.272425379,0.272425379,shape_difference0,1,,TRUE,,intensity,0.1,0.05,0.7,0.3,0.82,20,400,1E-11,3.5,0.01,0.5,0.1,,,,,,,,,,,,,,,,,,,,,,,,,,,,,,,,,,,,,,,,,,,,,,,,,,,,,,,,,,,,,,,,,,,,,,,,,,,,,,,,,
,,,,,485127,001,2025-03-17_23h23.40.430,Utility_discrimination_2024_2cat,2024.2.4,MacIntel,60.24096386,,,,,,,,2,"[0.5,0.5]","[0.707,0.707]",d,"[0.5412305916099693,0.5412305916099693]","[0.45876940839003066,0.45876940839003066]",387.6669,390.064,1,d,1,0.8666,,-0.073957032,0.147044913,0.221001945,390.0671,390.0671,0,154,154,154,1,0.058317668,0.058317668,shape_difference2,1,,TRUE,,intensity,0.1,0.05,0.7,0.3,0.82,20,400,1E-11,3.5,0.01,0.5,0.1,,,,,,,,,,,,,,,,,,,,,,,,,,,,,,,,,,,,,,,,,,,,,,,,,,,,,,,,,,,,,,,,,,,,,,,,,,,,,,,,,
,,,,,485127,001,2025-03-17_23h23.40.430,Utility_discrimination_2024_2cat,2024.2.4,MacIntel,60.24096386,,,,,,,,3,"[0.5,0.5]","[0.383,0.924]",d,"[0.5390989142636113,0.5390989142636113]","[0.4609010857363887,0.4609010857363887]",390.068,392.314,1,s,1,0.7163,,-0.087324429,0.13844555,0.225769979,392.3162,392.3163,0,155,155,155,1,0.055302566,0.055302566,shape_difference2,1,,TRUE,,intensity,0.1,0.05,0.7,0.3,0.82,20,400,1E-11,3.5,0.01,0.5,0.1,,,,,,,,,,,,,,,,,,,,,,,,,,,,,,,,,,,,,,,,,,,,,,,,,,,,,,,,,,,,,,,,,,,,,,,,,,,,,,,,,
,,,,,485127,001,2025-03-17_23h23.40.430,Utility_discrimination_2024_2cat,2024.2.4,MacIntel,60.24096386,,,,,,,,1,"[0.5,0.5]","[0.924,0.383]",s,"[0.5142835833935492,0.5344596111113301]","[0.4857164166064508,0.4655403888886699]",392.3172,394.3808,1,s,1,0.5344,,-0.087587531,0.140952738,0.228540269,394.3838,394.3839,0,156,156,156,1,0.037293951,0.037293951,shape_difference3,1,,TRUE,,intensity,0.1,0.05,0.7,0.3,0.82,20,400,1E-11,3.5,0.01,0.5,0.1,,,,,,,,,,,,,,,,,,,,,,,,,,,,,,,,,,,,,,,,,,,,,,,,,,,,,,,,,,,,,,,,,,,,,,,,,,,,,,,,,
,,,,,485127,001,2025-03-17_23h23.40.430,Utility_discrimination_2024_2cat,2024.2.4,MacIntel,60.24096386,,,,,,,,0,"[0.5,0.5]","[1,0]",s,"[0.5337426896606481,0.5139864179004634]","[0.4662573103393519,0.4860135820995366]",394.3847,396.4465,0,s,0,0.5324,,0.201585977,0.375210178,0.1736242,396.4491,396.4492,0,157,157,157,1,0.036518062,0.036518062,shape_difference1,1,,TRUE,,intensity,0.1,0.05,0.7,0.3,0.82,20,400,1E-11,3.5,0.01,0.5,0.1,,,,,,,,,,,,,,,,,,,,,,,,,,,,,,,,,,,,,,,,,,,,,,,,,,,,,,,,,,,,,,,,,,,,,,,,,,,,,,,,,
,,,,,485127,001,2025-03-17_23h23.40.430,Utility_discrimination_2024_2cat,2024.2.4,MacIntel,60.24096386,,,,,,,,4,"[0.5,0.5]","[0,1]",d,"[0.769520076804723,0.5]","[0.23047992319527705,0.5]",396.4503,398.831,1,s,1,0.8609,,-0.869445507,-0.557282493,0.312163014,398.8339,398.8339,0,158,158,158,1,0.269520077,0.269520077,shape_difference0,1,,TRUE,,intensity,0.1,0.05,0.7,0.3,0.82,20,400,1E-11,3.5,0.01,0.5,0.1,,,,,,,,,,,,,,,,,,,,,,,,,,,,,,,,,,,,,,,,,,,,,,,,,,,,,,,,,,,,,,,,,,,,,,,,,,,,,,,,,
,,,,,485127,001,2025-03-17_23h23.40.430,Utility_discrimination_2024_2cat,2024.2.4,MacIntel,60.24096386,,,,,,,,2,"[0.5,0.5]","[0.707,0.707]",s,"[0.5,-0.2142255430083183]","[0.5,1.2142255430083182]",398.8348,400.8641,1,s,1,0.5104,,-0.077124178,0.132628544,0.209752722,400.8663,400.8663,0,159,159,159,1,-0.714225543,-0.714225543,shape_difference4,1,,TRUE,,intensity,0.1,0.05,0.7,0.3,0.82,20,400,1E-11,3.5,0.01,0.5,0.1,,,,,,,,,,,,,,,,,,,,,,,,,,,,,,,,,,,,,,,,,,,,,,,,,,,,,,,,,,,,,,,,,,,,,,,,,,,,,,,,,
,,,,,485127,001,2025-03-17_23h23.40.430,Utility_discrimination_2024_2cat,2024.2.4,MacIntel,60.24096386,,,,,,,,0,"[0.5,0.5]","[1,0]",s,"[0.5370115649677386,0.5370115649677386]","[0.46298843503226145,0.46298843503226145]",400.8672,403.4631,1,d,1,1.0662,,0.200713894,0.368756466,0.168042572,403.4662,403.4662,0,160,160,160,1,0.052350163,0.052350163,shape_difference2,1,,TRUE,,intensity,0.1,0.05,0.7,0.3,0.82,20,400,1E-11,3.5,0.01,0.5,0.1,,,,,,,,,,,,,,,,,,,,,,,,,,,,,,,,,,,,,,,,,,,,,,,,,,,,,,,,,,,,,,,,,,,,,,,,,,,,,,,,,
,,,,,485127,001,2025-03-17_23h23.40.430,Utility_discrimination_2024_2cat,2024.2.4,MacIntel,60.24096386,,,,,,,,3,"[0.5,0.5]","[0.383,0.924]",d,"[0.7670545750459952,0.5]","[0.2329454249540049,0.5]",403.4674,405.7307,1,s,1,0.7333,,-0.088758405,0.119450455,0.20820886,405.7328,405.7329,0,161,161,161,1,0.267054575,0.267054575,shape_difference0,1,,TRUE,,intensity,0.1,0.05,0.7,0.3,0.82,20,400,1E-11,3.5,0.01,0.5,0.1,,,,,,,,,,,,,,,,,,,,,,,,,,,,,,,,,,,,,,,,,,,,,,,,,,,,,,,,,,,,,,,,,,,,,,,,,,,,,,,,,
,,,,,485127,001,2025-03-17_23h23.40.430,Utility_discrimination_2024_2cat,2024.2.4,MacIntel,60.24096386,,,,,,,,4,"[0.5,0.5]","[0,1]",s,"[0.5115352001018917,0.5278290467210128]","[0.4884647998981083,0.47217095327898717]",405.7337,408.2631,1,d,1,1,,-0.875187624,-0.585946207,0.289241417,408.2653,408.2653,0,162,162,162,1,0.030118016,0.030118016,shape_difference3,1,,TRUE,,intensity,0.1,0.05,0.7,0.3,0.82,20,400,1E-11,3.5,0.01,0.5,0.1,,,,,,,,,,,,,,,,,,,,,,,,,,,,,,,,,,,,,,,,,,,,,,,,,,,,,,,,,,,,,,,,,,,,,,,,,,,,,,,,,
,,,,,485127,001,2025-03-17_23h23.40.430,Utility_discrimination_2024_2cat,2024.2.4,MacIntel,60.24096386,,,,,,,,1,"[0.5,0.5]","[0.924,0.383]",d,"[0.5,-0.22379669749809927]","[0.5,1.2237966974980994]",408.2663,410.7131,1,s,1,0.9201,,-0.081185036,0.1684645,0.249649535,410.7158,410.7159,0,163,163,163,1,-0.723796697,-0.723796697,shape_difference4,1,,TRUE,,intensity,0.1,0.05,0.7,0.3,0.82,20,400,1E-11,3.5,0.01,0.5,0.1,,,,,,,,,,,,,,,,,,,,,,,,,,,,,,,,,,,,,,,,,,,,,,,,,,,,,,,,,,,,,,,,,,,,,,,,,,,,,,,,,
,,,,,485127,001,2025-03-17_23h23.40.430,Utility_discrimination_2024_2cat,2024.2.4,MacIntel,60.24096386,,,,,,,,4,"[0.5,0.5]","[0,1]",s,"[0.5487402686691456,0.5202029468617779]","[0.45125973133085434,0.4797970531382221]",410.7168,413.1304,1,s,1,0.8849,,-0.8795926,-0.604506044,0.275086555,413.1323,413.1324,0,164,164,164,1,0.052749209,0.052749209,shape_difference1,1,,TRUE,,intensity,0.1,0.05,0.7,0.3,0.82,20,400,1E-11,3.5,0.01,0.5,0.1,,,,,,,,,,,,,,,,,,,,,,,,,,,,,,,,,,,,,,,,,,,,,,,,,,,,,,,,,,,,,,,,,,,,,,,,,,,,,,,,,
,,,,,485127,001,2025-03-17_23h23.40.430,Utility_discrimination_2024_2cat,2024.2.4,MacIntel,60.24096386,,,,,,,,2,"[0.5,0.5]","[0.707,0.707]",s,"[0.5,-0.23207807090740584]","[0.5,1.2320780709074057]",413.1336,415.4307,1,d,1,0.777,,-0.079767283,0.114918042,0.194685325,415.4333,415.4334,0,165,165,165,1,-0.732078071,-0.732078071,shape_difference4,1,,TRUE,,intensity,0.1,0.05,0.7,0.3,0.82,20,400,1E-11,3.5,0.01,0.5,0.1,,,,,,,,,,,,,,,,,,,,,,,,,,,,,,,,,,,,,,,,,,,,,,,,,,,,,,,,,,,,,,,,,,,,,,,,,,,,,,,,,
,,,,,485127,001,2025-03-17_23h23.40.430,Utility_discrimination_2024_2cat,2024.2.4,MacIntel,60.24096386,,,,,,,,1,"[0.5,0.5]","[0.924,0.383]",d,"[0.5349043901501342,0.5349043901501342]","[0.46509560984986575,0.46509560984986575]",415.4342,417.8809,1,d,1,0.9275,,-0.083398524,0.154769339,0.238167863,417.8831,417.8831,0,166,166,166,1,0.049369717,0.049369717,shape_difference2,1,,TRUE,,intensity,0.1,0.05,0.7,0.3,0.82,20,400,1E-11,3.5,0.01,0.5,0.1,,,,,,,,,,,,,,,,,,,,,,,,,,,,,,,,,,,,,,,,,,,,,,,,,,,,,,,,,,,,,,,,,,,,,,,,,,,,,,,,,
,,,,,485127,001,2025-03-17_23h23.40.430,Utility_discrimination_2024_2cat,2024.2.4,MacIntel,60.24096386,,,,,,,,0,"[0.5,0.5]","[1,0]",d,"[0.5442602587580349,0.5183459730566313]","[0.45573974124196515,0.4816540269433687]",417.884,420.2309,0,s,0,0.8261,,0.196310089,0.361264621,0.164954532,420.2337,420.2337,0,167,167,167,1,0.047900713,0.047900713,shape_difference1,1,,TRUE,,intensity,0.1,0.05,0.7,0.3,0.82,20,400,1E-11,3.5,0.01,0.5,0.1,,,,,,,,,,,,,,,,,,,,,,,,,,,,,,,,,,,,,,,,,,,,,,,,,,,,,,,,,,,,,,,,,,,,,,,,,,,,,,,,,
,,,,,485127,001,2025-03-17_23h23.40.430,Utility_discrimination_2024_2cat,2024.2.4,MacIntel,60.24096386,,,,,,,,3,"[0.5,0.5]","[0.383,0.924]",d,"[0.7649315299480591,0.5]","[0.23506847005194087,0.5]",420.2347,422.4132,0,s,0,0.6501,,-0.089927371,0.099559308,0.189486679,422.416,422.416,0,168,168,168,1,0.26493153,0.26493153,shape_difference0,1,,TRUE,,intensity,0.1,0.05,0.7,0.3,0.82,20,400,1E-11,3.5,0.01,0.5,0.1,,,,,,,,,,,,,,,,,,,,,,,,,,,,,,,,,,,,,,,,,,,,,,,,,,,,,,,,,,,,,,,,,,,,,,,,,,,,,,,,,
,,,,,485127,001,2025-03-17_23h23.40.430,Utility_discrimination_2024_2cat,2024.2.4,MacIntel,60.24096386,,,,,,,,3,"[0.5,0.5]","[0.383,0.924]",d,"[0.5083983036782437,0.520261181719836]","[0.49160169632175627,0.47973881828016396]",422.4171,425.1641,1,d,1,1.217,,-0.090886247,0.09711383,0.188000077,425.1669,425.167,0,169,169,169,1,0.021927686,0.021927686,shape_difference3,1,,TRUE,,intensity,0.1,0.05,0.7,0.3,0.82,20,400,1E-11,3.5,0.01,0.5,0.1,,,,,,,,,,,,,,,,,,,,,,,,,,,,,,,,,,,,,,,,,,,,,,,,,,,,,,,,,,,,,,,,,,,,,,,,,,,,,,,,,
,,,,,485127,001,2025-03-17_23h23.40.430,Utility_discrimination_2024_2cat,2024.2.4,MacIntel,60.24096386,,,,,,,,4,"[0.5,0.5]","[0,1]",d,"[0.5047706937969993,0.5115094544867554]","[0.4952293062030007,0.4884905455132445]",425.168,427.3808,0,s,0,0.684,,-0.883031544,-0.612412019,0.270619525,427.3832,427.3832,0,170,170,170,1,0.01245612,0.01245612,shape_difference3,1,,TRUE,,intensity,0.1,0.05,0.7,0.3,0.82,20,400,1E-11,3.5,0.01,0.5,0.1,,,,,,,,,,,,,,,,,,,,,,,,,,,,,,,,,,,,,,,,,,,,,,,,,,,,,,,,,,,,,,,,,,,,,,,,,,,,,,,,,
,,,,,485127,001,2025-03-17_23h23.40.430,Utility_discrimination_2024_2cat,2024.2.4,MacIntel,60.24096386,,,,,,,,2,"[0.5,0.5]","[0.707,0.707]",d,"[0.5,-0.2394790153591061]","[0.5,1.2394790153591062]",427.384,429.4641,1,s,1,0.5587,,-0.082450379,0.099727808,0.182178188,429.4667,429.4668,0,171,171,171,1,-0.739479015,-0.739479015,shape_difference4,1,,TRUE,,intensity,0.1,0.05,0.7,0.3,0.82,20,400,1E-11,3.5,0.01,0.5,0.1,,,,,,,,,,,,,,,,,,,,,,,,,,,,,,,,,,,,,,,,,,,,,,,,,,,,,,,,,,,,,,,,,,,,,,,,,,,,,,,,,
,,,,,485127,001,2025-03-17_23h23.40.430,Utility_discrimination_2024_2cat,2024.2.4,MacIntel,60.24096386,,,,,,,,0,"[0.5,0.5]","[1,0]",s,"[0.5323745328427433,0.5323745328427433]","[0.4676254671572567,0.4676254671572567]",429.4677,431.6642,1,s,1,0.6771,,0.204540178,0.380411317,0.175871139,431.6664,431.6664,0,172,172,172,1,0.045791418,0.045791418,shape_difference2,1,,TRUE,,intensity,0.1,0.05,0.7,0.3,0.82,20,400,1E-11,3.5,0.01,0.5,0.1,,,,,,,,,,,,,,,,,,,,,,,,,,,,,,,,,,,,,,,,,,,,,,,,,,,,,,,,,,,,,,,,,,,,,,,,,,,,,,,,,
,,,,,485127,001,2025-03-17_23h23.40.430,Utility_discrimination_2024_2cat,2024.2.4,MacIntel,60.24096386,,,,,,,,1,"[0.5,0.5]","[0.924,0.383]",s,"[0.7734612274000525,0.5]","[0.22653877259994742,0.5]",431.6674,433.8644,1,s,1,0.6776,,-0.073621786,0.175036419,0.248658206,433.8671,433.8671,0,173,173,173,1,0.273461227,0.273461227,shape_difference0,1,,TRUE,,intensity,0.1,0.05,0.7,0.3,0.82,20,400,1E-11,3.5,0.01,0.5,0.1,,,,,,,,,,,,,,,,,,,,,,,,,,,,,,,,,,,,,,,,,,,,,,,,,,,,,,,,,,,,,,,,,,,,,,,,,,,,,,,,,
,,,,,485127,001,2025-03-17_23h23.40.430,Utility_discrimination_2024_2cat,2024.2.4,MacIntel,60.24096386,,,,,,,,3,"[0.5,0.5]","[0.383,0.924]",s,"[0.5551107073636347,0.522843507489472]","[0.44488929263636534,0.47715649251052805]",433.8681,435.8639,1,s,1,0.4699,,-0.087255664,0.123570479,0.210826143,435.8658,435.8658,0,174,174,174,1,0.059643623,0.059643623,shape_difference1,1,,TRUE,,intensity,0.1,0.05,0.7,0.3,0.82,20,400,1E-11,3.5,0.01,0.5,0.1,,,,,,,,,,,,,,,,,,,,,,,,,,,,,,,,,,,,,,,,,,,,,,,,,,,,,,,,,,,,,,,,,,,,,,,,,,,,,,,,,
,,,,,485127,001,2025-03-17_23h23.40.430,Utility_discrimination_2024_2cat,2024.2.4,MacIntel,60.24096386,,,,,,,,4,"[0.5,0.5]","[0,1]",s,"[0.5139701997400561,0.533703562819352]","[0.4860298002599439,0.46629643718064795]",435.8668,438.2477,1,d,1,0.8609,,-0.885762123,-0.621263957,0.264498167,438.2506,438.2507,0,175,175,175,1,0.036475717,0.036475717,shape_difference3,1,,TRUE,,intensity,0.1,0.05,0.7,0.3,0.82,20,400,1E-11,3.5,0.01,0.5,0.1,,,,,,,,,,,,,,,,,,,,,,,,,,,,,,,,,,,,,,,,,,,,,,,,,,,,,,,,,,,,,,,,,,,,,,,,,,,,,,,,,
,,,,,485127,001,2025-03-17_23h23.40.430,Utility_discrimination_2024_2cat,2024.2.4,MacIntel,60.24096386,,,,,,,,0,"[0.5,0.5]","[1,0]",d,"[0.5,-0.24632669071414182]","[0.5,1.2463266907141417]",438.2516,440.1142,1,d,1,0.3354,,0.204046358,0.375234632,0.171188274,440.1165,440.1166,0,176,176,176,1,-0.746326691,-0.746326691,shape_difference4,1,,TRUE,,intensity,0.1,0.05,0.7,0.3,0.82,20,400,1E-11,3.5,0.01,0.5,0.1,,,,,,,,,,,,,,,,,,,,,,,,,,,,,,,,,,,,,,,,,,,,,,,,,,,,,,,,,,,,,,,,,,,,,,,,,,,,,,,,,
,,,,,485127,001,2025-03-17_23h23.40.430,Utility_discrimination_2024_2cat,2024.2.4,MacIntel,60.24096386,,,,,,,,1,"[0.5,0.5]","[0.924,0.383]",d,"[0.7707002131399308,0.5]","[0.2292997868600693,0.5]",440.1177,442.6642,1,s,1,1.028,,-0.077065347,0.163850243,0.240915591,442.6669,442.6669,0,177,177,177,1,0.270700213,0.270700213,shape_difference0,1,,TRUE,,intensity,0.1,0.05,0.7,0.3,0.82,20,400,1E-11,3.5,0.01,0.5,0.1,,,,,,,,,,,,,,,,,,,,,,,,,,,,,,,,,,,,,,,,,,,,,,,,,,,,,,,,,,,,,,,,,,,,,,,,,,,,,,,,,
,,,,,485127,001,2025-03-17_23h23.40.430,Utility_discrimination_2024_2cat,2024.2.4,MacIntel,60.24096386,,,,,,,,2,"[0.5,0.5]","[0.707,0.707]",s,"[0.5513712190214056,0.5212934814774873]","[0.44862878097859443,0.4787065185225126]",442.6677,444.9131,1,d,1,0.7163,,-0.084652384,0.098361221,0.183013604,444.9155,444.9155,0,178,178,178,1,0.055596557,0.055596557,shape_difference1,1,,TRUE,,intensity,0.1,0.05,0.7,0.3,0.82,20,400,1E-11,3.5,0.01,0.5,0.1,,,,,,,,,,,,,,,,,,,,,,,,,,,,,,,,,,,,,,,,,,,,,,,,,,,,,,,,,,,,,,,,,,,,,,,,,,,,,,,,,
,,,,,485127,001,2025-03-17_23h23.40.430,Utility_discrimination_2024_2cat,2024.2.4,MacIntel,60.24096386,,,,,,,,4,"[0.5,0.5]","[0,1]",d,"[0.5295040732707771,0.5295040732707771]","[0.47049592672922297,0.47049592672922297]",444.9165,447.2141,0,d,0,0.7654,,-0.887965739,-0.631569706,0.256396033,447.2176,447.2176,0,179,179,179,1,0.041731362,0.041731362,shape_difference2,1,,TRUE,,intensity,0.1,0.05,0.7,0.3,0.82,20,400,1E-11,3.5,0.01,0.5,0.1,,,,,,,,,,,,,,,,,,,,,,,,,,,,,,,,,,,,,,,,,,,,,,,,,,,,,,,,,,,,,,,,,,,,,,,,,,,,,,,,,
,,,,,485127,001,2025-03-17_23h23.40.430,Utility_discrimination_2024_2cat,2024.2.4,MacIntel,60.24096386,,,,,,,,1,"[0.5,0.5]","[0.924,0.383]",s,"[0.5,-0.2528911864389187]","[0.5,1.2528911864389187]",447.2194,450.2475,1,d,1,1.4996,,-0.07987034,0.150795232,0.230665571,450.25,450.25,0,180,180,180,1,-0.752891186,-0.752891186,shape_difference4,1,,TRUE,,intensity,0.1,0.05,0.7,0.3,0.82,20,400,1E-11,3.5,0.01,0.5,0.1,,,,,,,,,,,,,,,,,,,,,,,,,,,,,,,,,,,,,,,,,,,,,,,,,,,,,,,,,,,,,,,,,,,,,,,,,,,,,,,,,
,,,,,485127,001,2025-03-17_23h23.40.430,Utility_discrimination_2024_2cat,2024.2.4,MacIntel,60.24096386,,,,,,,,0,"[0.5,0.5]","[1,0]",d,"[0.5477907873842744,0.5198093848140445]","[0.4522092126157255,0.4801906151859555]",450.251,452.5474,0,d,0,0.7704,,0.203551058,0.369316683,0.165765625,452.5492,452.5493,0,181,181,181,1,0.051721631,0.051721631,shape_difference1,1,,TRUE,,intensity,0.1,0.05,0.7,0.3,0.82,20,400,1E-11,3.5,0.01,0.5,0.1,,,,,,,,,,,,,,,,,,,,,,,,,,,,,,,,,,,,,,,,,,,,,,,,,,,,,,,,,,,,,,,,,,,,,,,,,,,,,,,,,
,,,,,485127,001,2025-03-17_23h23.40.430,Utility_discrimination_2024_2cat,2024.2.4,MacIntel,60.24096386,,,,,,,,2,"[0.5,0.5]","[0.707,0.707]",s,"[0.7683933631462154,0.5]","[0.23160663685378463,0.5]",452.5501,455.1308,1,s,1,1.0598,,-0.0763434,0.116024768,0.192368167,455.1337,455.1338,0,182,182,182,1,0.268393363,0.268393363,shape_difference0,1,,TRUE,,intensity,0.1,0.05,0.7,0.3,0.82,20,400,1E-11,3.5,0.01,0.5,0.1,,,,,,,,,,,,,,,,,,,,,,,,,,,,,,,,,,,,,,,,,,,,,,,,,,,,,,,,,,,,,,,,,,,,,,,,,,,,,,,,,
,,,,,485127,001,2025-03-17_23h23.40.430,Utility_discrimination_2024_2cat,2024.2.4,MacIntel,60.24096386,,,,,,,,3,"[0.5,0.5]","[0.383,0.924]",s,"[0.5366737869780788,0.5366737869780788]","[0.46332621302192123,0.46332621302192123]",455.1349,457.2975,0,s,0,0.634,,-0.088657501,0.101699244,0.190356745,457.2995,457.2995,0,183,183,183,1,0.0518724,0.0518724,shape_difference2,1,,TRUE,,intensity,0.1,0.05,0.7,0.3,0.82,20,400,1E-11,3.5,0.01,0.5,0.1,,,,,,,,,,,,,,,,,,,,,,,,,,,,,,,,,,,,,,,,,,,,,,,,,,,,,,,,,,,,,,,,,,,,,,,,,,,,,,,,,
,,,,,485127,001,2025-03-17_23h23.40.430,Utility_discrimination_2024_2cat,2024.2.4,MacIntel,60.24096386,,,,,,,,3,"[0.5,0.5]","[0.383,0.924]",d,"[0.511359051250428,0.5274040818678735]","[0.4886409487495719,0.4725959181321266]",457.3004,459.3641,1,s,1,0.5359,,-0.089801835,0.097960069,0.187761904,459.367,459.3671,0,184,184,184,1,0.029658097,0.029658097,shape_difference3,1,,TRUE,,intensity,0.1,0.05,0.7,0.3,0.82,20,400,1E-11,3.5,0.01,0.5,0.1,,,,,,,,,,,,,,,,,,,,,,,,,,,,,,,,,,,,,,,,,,,,,,,,,,,,,,,,,,,,,,,,,,,,,,,,,,,,,,,,,
,,,,,485127,001,2025-03-17_23h23.40.430,Utility_discrimination_2024_2cat,2024.2.4,MacIntel,60.24096386,,,,,,,,2,"[0.5,0.5]","[0.707,0.707]",s,"[0.5083567496580248,0.5201609312898562]","[0.4916432503419752,0.47983906871014376]",459.3679,461.5642,1,s,1,0.6665,,-0.027770736,0.161717546,0.189488282,461.5672,461.5672,0,185,185,185,1,0.02181919,0.02181919,shape_difference3,1,,TRUE,,intensity,0.1,0.05,0.7,0.3,0.82,20,400,1E-11,3.5,0.01,0.5,0.1,,,,,,,,,,,,,,,,,,,,,,,,,,,,,,,,,,,,,,,,,,,,,,,,,,,,,,,,,,,,,,,,,,,,,,,,,,,,,,,,,
,,,,,485127,001,2025-03-17_23h23.40.430,Utility_discrimination_2024_2cat,2024.2.4,MacIntel,60.24096386,,,,,,,,1,"[0.5,0.5]","[0.924,0.383]",s,"[0.5452593880441557,0.5452593880441557]","[0.4547406119558442,0.4547406119558442]",461.5681,463.9136,0,s,0,0.8196,,-0.038373688,0.184818408,0.223192096,463.9163,463.9163,0,186,186,186,1,0.064016108,0.064016108,shape_difference2,1,,TRUE,,intensity,0.1,0.05,0.7,0.3,0.82,20,400,1E-11,3.5,0.01,0.5,0.1,,,,,,,,,,,,,,,,,,,,,,,,,,,,,,,,,,,,,,,,,,,,,,,,,,,,,,,,,,,,,,,,,,,,,,,,,,,,,,,,,
,,,,,485127,001,2025-03-17_23h23.40.430,Utility_discrimination_2024_2cat,2024.2.4,MacIntel,60.24096386,,,,,,,,0,"[0.5,0.5]","[1,0]",d,"[0.5640638138630583,0.5265545895125014]","[0.43593618613694174,0.47344541048749855]",463.9172,466.3975,1,s,1,0.9497,,0.203040433,0.362452516,0.159412083,466.4005,466.4006,0,187,187,187,1,0.069333132,0.069333132,shape_difference1,1,,TRUE,,intensity,0.1,0.05,0.7,0.3,0.82,20,400,1E-11,3.5,0.01,0.5,0.1,,,,,,,,,,,,,,,,,,,,,,,,,,,,,,,,,,,,,,,,,,,,,,,,,,,,,,,,,,,,,,,,,,,,,,,,,,,,,,,,,
,,,,,485127,001,2025-03-17_23h23.40.430,Utility_discrimination_2024_2cat,2024.2.4,MacIntel,60.24096386,,,,,,,,4,"[0.5,0.5]","[0,1]",s,"[0.7664499620648286,0.5]","[0.23355003793517137,0.5]",466.4014,468.8475,1,d,1,0.9188,,-0.89037012,-0.642280794,0.248089325,468.8499,468.85,0,188,188,188,1,0.266449962,0.266449962,shape_difference0,1,,TRUE,,intensity,0.1,0.05,0.7,0.3,0.82,20,400,1E-11,3.5,0.01,0.5,0.1,,,,,,,,,,,,,,,,,,,,,,,,,,,,,,,,,,,,,,,,,,,,,,,,,,,,,,,,,,,,,,,,,,,,,,,,,,,,,,,,,
,,,,,485127,001,2025-03-17_23h23.40.430,Utility_discrimination_2024_2cat,2024.2.4,MacIntel,60.24096386,,,,,,,,1,"[0.5,0.5]","[0.924,0.383]",d,"[0.5,-0.2601554346938173]","[0.5,1.2601554346938173]",468.8509,471.0142,1,d,1,0.633,,-0.047747399,0.176886316,0.224633715,471.0168,471.0168,0,189,189,189,1,-0.760155435,-0.760155435,shape_difference4,1,,TRUE,,intensity,0.1,0.05,0.7,0.3,0.82,20,400,1E-11,3.5,0.01,0.5,0.1,,,,,,,,,,,,,,,,,,,,,,,,,,,,,,,,,,,,,,,,,,,,,,,,,,,,,,,,,,,,,,,,,,,,,,,,,,,,,,,,,
,,,,,485127,001,2025-03-17_23h23.40.430,Utility_discrimination_2024_2cat,2024.2.4,MacIntel,60.24096386,,,,,,,,0,"[0.5,0.5]","[1,0]",d,"[0.5608874568618899,0.5252379826602855]","[0.4391125431381101,0.47476201733971446]",471.0176,473.3809,1,d,1,0.8329,,0.202501131,0.354399743,0.151898613,473.3838,473.3838,0,190,190,190,1,0.065895516,0.065895516,shape_difference1,1,,TRUE,,intensity,0.1,0.05,0.7,0.3,0.82,20,400,1E-11,3.5,0.01,0.5,0.1,,,,,,,,,,,,,,,,,,,,,,,,,,,,,,,,,,,,,,,,,,,,,,,,,,,,,,,,,,,,,,,,,,,,,,,,,,,,,,,,,
