Consent.started,Consent.stopped,key_resp.keys,key_resp.rt,key_resp.duration,participant,session,date,expName,psychopyVersion,OS,frameRate,SetupExperiment.started,SetupExperiment.stopped,DiscrimInstructions_Pre.started,DiscrimInstructions_Pre.stopped,KeyboardResponse.keys,KeyboardResponse.rt,KeyboardResponse.duration,feature_index,feature_center,feature_vector,correct_answer,coord1,coord2,DiscriminationTrial.started,DiscriminationTrial.stopped,PreTest.response,Resp_s_or_d.keys,Resp_s_or_d.corr,Resp_s_or_d.rt,Resp_s_or_d.duration,PreTest.CI_lower,PreTest.CI_upper,PreTest.CI_width,CrashPretest_2.started,CrashPretest_2.stopped,PreTest.thisRepN,PreTest.thisTrialN,PreTest.thisN,PreTest.thisIndex,PreTest.ran,PreTest.intensity,intensity,PreTest.label,PreTest.nReps,PreTest.method,PreTest.autoLog,PreTest.seed,PreTest.varName,PreTest.startVal,PreTest.minVal,PreTest.maxVal,PreTest.startValSd,PreTest.pThreshold,PreTest.nTrials,PreTest.maxTrials,PreTest.stopInterval,PreTest.beta,PreTest.delta,PreTest.gamma,PreTest.grain,WelcomeToCategorizationTask.started,WelcomeToCategorizationTask.stopped,PressAnyKey3.keys,PressAnyKey3.rt,PressAnyKey3.duration,shape_coordinates,category_center,category_sigma,subspace_center,subspace_vector1,subspace_vector2,CategorizationTrial.started,CategorizationTrial.stopped,Respond_1or2.keys,Respond_1or2.rt,Respond_1or2.duration,Feedback.started,Feedback.stopped,xcoord,ycoord,shape_coord,numeric_response_minus1,correctness,truecategory,mixture_index,respAifA,respBifA,respAifB,respBifB,trial_number,D,muAx,muAy,muBx,muBy,sigmaA,sigmaB,priorA,priorB,TrialLoop.thisRepN,TrialLoop.thisTrialN,TrialLoop.thisN,TrialLoop.thisIndex,TrialLoop.ran,DiscriminationInstructions_Post.started,DiscriminationInstructions_Post.stopped,key_resp_2.keys,key_resp_2.rt,key_resp_2.duration,PostTest.response,PostTest.CI_lower,PostTest.CI_upper,PostTest.CI_width,CrashPosttest.started,CrashPosttest.stopped,PostTest.thisRepN,PostTest.thisTrialN,PostTest.thisN,PostTest.thisIndex,PostTest.ran,PostTest.intensity,PostTest.label,PostTest.nReps,PostTest.method,PostTest.autoLog,PostTest.seed,PostTest.varName,PostTest.startVal,PostTest.minVal,PostTest.maxVal,PostTest.startValSd,PostTest.pThreshold,PostTest.nTrials,PostTest.maxTrials,PostTest.stopInterval,PostTest.beta,PostTest.delta,PostTest.gamma,PostTest.grain,Thanks.started,Thanks.stopped
0,6.055,y,6.027,,501271,001,2025-03-14_15h23.42.123,Utility_discrimination_2024_2cat,2024.2.4,MacIntel,62.5,,,,,,,,,,,,,,,,,,,,,,,,,,,,,,,,,,,,,,,,,,,,,,,,,,,,,,,,,,,,,,,,,,,,,,,,,,,,,,,,,,,,,,,,,,,,,,,,,,,,,,,,,,,,,,,,,,,,,,,,,,,,,,,,,,,
,,,,,501271,001,2025-03-14_15h23.42.123,Utility_discrimination_2024_2cat,2024.2.4,MacIntel,62.5,6.055,6.055,,,,,,,,,,,,,,,,,,,,,,,,,,,,,,,,,,,,,,,,,,,,,,,,,,,,,,,,,,,,,,,,,,,,,,,,,,,,,,,,,,,,,,,,,,,,,,,,,,,,,,,,,,,,,,,,,,,,,,,,,,,,,,,,,
,,,,,501271,001,2025-03-14_15h23.42.123,Utility_discrimination_2024_2cat,2024.2.4,MacIntel,62.5,,,6.056,19.421,space,13.34,,,,,,,,,,,,,,,,,,,,,,,,,,,,,,,,,,,,,,,,,,,,,,,,,,,,,,,,,,,,,,,,,,,,,,,,,,,,,,,,,,,,,,,,,,,,,,,,,,,,,,,,,,,,,,,,,,,,,,,,,,,,,
,,,,,501271,001,2025-03-14_15h23.42.123,Utility_discrimination_2024_2cat,2024.2.4,MacIntel,62.5,,,,,,,,0,"[0.5,0.5]","[1,0]",,"[0.6185239449756466,0.5]","[0.3814760550243534,0.5]",19.444,22.371,1,s,1,1.399,,-0.447967632,0.547967632,0.995935263,22.374,22.374,0,0,0,0,1,0.118523945,0.118523945,shape_difference3,1,,TRUE,,intensity,0.1,0.05,0.7,0.3,0.82,20,400,1E-11,3.5,0.01,0.5,0.1,,,,,,,,,,,,,,,,,,,,,,,,,,,,,,,,,,,,,,,,,,,,,,,,,,,,,,,,,,,,,,,,,,,,,,,,,,,,,,,,,
,,,,,501271,001,2025-03-14_15h23.42.123,Utility_discrimination_2024_2cat,2024.2.4,MacIntel,62.5,,,,,,,,2,"[0.5,0.5]","[0.707,0.707]",s,"[0.6185239449756466,0.5]","[0.3814760550243534,0.5]",22.375,25.12,0,s,0,1.221,,-0.447967632,0.547967632,0.995935263,25.123,25.123,0,1,1,1,1,0.118523945,0.118523945,shape_difference0,1,,TRUE,,intensity,0.1,0.05,0.7,0.3,0.82,20,400,1E-11,3.5,0.01,0.5,0.1,,,,,,,,,,,,,,,,,,,,,,,,,,,,,,,,,,,,,,,,,,,,,,,,,,,,,,,,,,,,,,,,,,,,,,,,,,,,,,,,,
,,,,,501271,001,2025-03-14_15h23.42.123,Utility_discrimination_2024_2cat,2024.2.4,MacIntel,62.5,,,,,,,,1,"[0.5,0.5]","[0.924,0.383]",d,"[0.5837964290977822,0.5837964290977822]","[0.4162035709022178,0.4162035709022178]",25.124,27.72,1,s,1,1.069,,-0.447967632,0.547967632,0.995935263,27.722,27.722,0,2,2,2,1,0.118523945,0.118523945,shape_difference2,1,,TRUE,,intensity,0.1,0.05,0.7,0.3,0.82,20,400,1E-11,3.5,0.01,0.5,0.1,,,,,,,,,,,,,,,,,,,,,,,,,,,,,,,,,,,,,,,,,,,,,,,,,,,,,,,,,,,,,,,,,,,,,,,,,,,,,,,,,
,,,,,501271,001,2025-03-14_15h23.42.123,Utility_discrimination_2024_2cat,2024.2.4,MacIntel,62.5,,,,,,,,4,"[0.5,0.5]","[0,1]",s,"[0.6095161251574974,0.5453946709256726]","[0.3904838748425025,0.4546053290743273]",27.723,30.654,0,s,0,1.405,,-0.447967632,0.547967632,0.995935263,30.656,30.656,0,3,3,3,1,0.118523945,0.118523945,shape_difference1,1,,TRUE,,intensity,0.1,0.05,0.7,0.3,0.82,20,400,1E-11,3.5,0.01,0.5,0.1,,,,,,,,,,,,,,,,,,,,,,,,,,,,,,,,,,,,,,,,,,,,,,,,,,,,,,,,,,,,,,,,,,,,,,,,,,,,,,,,,
,,,,,501271,001,2025-03-14_15h23.42.123,Utility_discrimination_2024_2cat,2024.2.4,MacIntel,62.5,,,,,,,,0,"[0.5,0.5]","[1,0]",d,"[0.5,0.6185239449756466]","[0.5,0.3814760550243534]",30.657,32.921,1,d,1,0.743,,0.008797352,0.664308158,0.655510806,32.922,32.922,0,4,4,4,1,0.118523945,0.118523945,shape_difference4,1,,TRUE,,intensity,0.1,0.05,0.7,0.3,0.82,20,400,1E-11,3.5,0.01,0.5,0.1,,,,,,,,,,,,,,,,,,,,,,,,,,,,,,,,,,,,,,,,,,,,,,,,,,,,,,,,,,,,,,,,,,,,,,,,,,,,,,,,,
,,,,,501271,001,2025-03-14_15h23.42.123,Utility_discrimination_2024_2cat,2024.2.4,MacIntel,62.5,,,,,,,,4,"[0.5,0.5]","[0,1]",d,"[0.8247185585179694,0.5]","[0.17528144148203062,0.5]",32.923,35.187,1,d,1,0.734,,-0.479157219,0.478510979,0.957668197,35.189,35.19,0,5,5,5,1,0.324718559,0.324718559,shape_difference0,1,,TRUE,,intensity,0.1,0.05,0.7,0.3,0.82,20,400,1E-11,3.5,0.01,0.5,0.1,,,,,,,,,,,,,,,,,,,,,,,,,,,,,,,,,,,,,,,,,,,,,,,,,,,,,,,,,,,,,,,,,,,,,,,,,,,,,,,,,
,,,,,501271,001,2025-03-14_15h23.42.123,Utility_discrimination_2024_2cat,2024.2.4,MacIntel,62.5,,,,,,,,2,"[0.5,0.5]","[0.707,0.707]",d,"[0.5,0.5370015867235566]","[0.5,0.4629984132764434]",35.19,37.504,1,s,1,0.792,,-0.479157219,0.478510979,0.957668197,37.506,37.506,0,6,6,6,1,0.037001587,0.037001587,shape_difference4,1,,TRUE,,intensity,0.1,0.05,0.7,0.3,0.82,20,400,1E-11,3.5,0.01,0.5,0.1,,,,,,,,,,,,,,,,,,,,,,,,,,,,,,,,,,,,,,,,,,,,,,,,,,,,,,,,,,,,,,,,,,,,,,,,,,,,,,,,,
,,,,,501271,001,2025-03-14_15h23.42.123,Utility_discrimination_2024_2cat,2024.2.4,MacIntel,62.5,,,,,,,,3,"[0.5,0.5]","[0.383,0.924]",s,"[0.5261601218135545,0.5261601218135545]","[0.4738398781864455,0.4738398781864455]",37.506,40.087,0,s,0,1.056,,-0.479157219,0.478510979,0.957668197,40.089,40.089,0,7,7,7,1,0.037001587,0.037001587,shape_difference2,1,,TRUE,,intensity,0.1,0.05,0.7,0.3,0.82,20,400,1E-11,3.5,0.01,0.5,0.1,,,,,,,,,,,,,,,,,,,,,,,,,,,,,,,,,,,,,,,,,,,,,,,,,,,,,,,,,,,,,,,,,,,,,,,,,,,,,,,,,
,,,,,501271,001,2025-03-14_15h23.42.123,Utility_discrimination_2024_2cat,2024.2.4,MacIntel,62.5,,,,,,,,1,"[0.5,0.5]","[0.924,0.383]",d,"[0.5141716077151222,0.5341894661325662]","[0.48582839228487784,0.46581053386743376]",40.09,42.455,1,s,1,0.843,,0.008797352,0.664308158,0.655510806,42.456,42.456,0,8,8,8,1,0.037001587,0.037001587,shape_difference3,1,,TRUE,,intensity,0.1,0.05,0.7,0.3,0.82,20,400,1E-11,3.5,0.01,0.5,0.1,,,,,,,,,,,,,,,,,,,,,,,,,,,,,,,,,,,,,,,,,,,,,,,,,,,,,,,,,,,,,,,,,,,,,,,,,,,,,,,,,
,,,,,501271,001,2025-03-14_15h23.42.123,Utility_discrimination_2024_2cat,2024.2.4,MacIntel,62.5,,,,,,,,3,"[0.5,0.5]","[0.383,0.924]",s,"[0.8000399480706037,0.6243672079123823]","[0.19996005192939625,0.37563279208761774]",42.457,44.906,1,d,1,0.928,,-0.510435314,0.404710629,0.915145943,44.907,44.907,0,9,9,9,1,0.324718559,0.324718559,shape_difference1,1,,TRUE,,intensity,0.1,0.05,0.7,0.3,0.82,20,400,1E-11,3.5,0.01,0.5,0.1,,,,,,,,,,,,,,,,,,,,,,,,,,,,,,,,,,,,,,,,,,,,,,,,,,,,,,,,,,,,,,,,,,,,,,,,,,,,,,,,,
,,,,,501271,001,2025-03-14_15h23.42.123,Utility_discrimination_2024_2cat,2024.2.4,MacIntel,62.5,,,,,,,,0,"[0.5,0.5]","[1,0]",d,"[0.48572626012287257,0.46556413669330093]","[0.5142737398771274,0.5344358633066991]",44.907,47.571,0,d,0,1.145,,-0.003741292,0.604569979,0.608311271,47.573,47.573,0,10,10,10,1,-0.03726825,-0.03726825,shape_difference3,1,,TRUE,,intensity,0.1,0.05,0.7,0.3,0.82,20,400,1E-11,3.5,0.01,0.5,0.1,,,,,,,,,,,,,,,,,,,,,,,,,,,,,,,,,,,,,,,,,,,,,,,,,,,,,,,,,,,,,,,,,,,,,,,,,,,,,,,,,
,,,,,501271,001,2025-03-14_15h23.42.123,Utility_discrimination_2024_2cat,2024.2.4,MacIntel,62.5,,,,,,,,4,"[0.5,0.5]","[0,1]",s,"[0.7748173464265704,0.5]","[0.22518265357342954,0.5]",47.574,49.836,1,s,1,0.739,,-0.510435314,0.404710629,0.915145943,49.837,49.837,0,11,11,11,1,0.274817346,0.274817346,shape_difference0,1,,TRUE,,intensity,0.1,0.05,0.7,0.3,0.82,20,400,1E-11,3.5,0.01,0.5,0.1,,,,,,,,,,,,,,,,,,,,,,,,,,,,,,,,,,,,,,,,,,,,,,,,,,,,,,,,,,,,,,,,,,,,,,,,,,,,,,,,,
,,,,,501271,001,2025-03-14_15h23.42.123,Utility_discrimination_2024_2cat,2024.2.4,MacIntel,62.5,,,,,,,,2,"[0.5,0.5]","[0.707,0.707]",s,"[0.5,0.4627317496680746]","[0.5,0.5372682503319254]",49.837,52.471,1,d,1,1.119,,-0.090065158,0.591798206,0.681863364,52.473,52.473,0,12,12,12,1,-0.03726825,-0.03726825,shape_difference4,1,,TRUE,,intensity,0.1,0.05,0.7,0.3,0.82,20,400,1E-11,3.5,0.01,0.5,0.1,,,,,,,,,,,,,,,,,,,,,,,,,,,,,,,,,,,,,,,,,,,,,,,,,,,,,,,,,,,,,,,,,,,,,,,,,,,,,,,,,
,,,,,501271,001,2025-03-14_15h23.42.123,Utility_discrimination_2024_2cat,2024.2.4,MacIntel,62.5,,,,,,,,1,"[0.5,0.5]","[0.924,0.383]",d,"[0.6595431560132976,0.6595431560132976]","[0.3404568439867024,0.3404568439867024]",52.473,54.971,1,s,1,0.976,,-0.003741292,0.604569979,0.608311271,54.972,54.972,0,13,13,13,1,0.225662173,0.225662173,shape_difference2,1,,TRUE,,intensity,0.1,0.05,0.7,0.3,0.82,20,400,1E-11,3.5,0.01,0.5,0.1,,,,,,,,,,,,,,,,,,,,,,,,,,,,,,,,,,,,,,,,,,,,,,,,,,,,,,,,,,,,,,,,,,,,,,,,,,,,,,,,,
,,,,,501271,001,2025-03-14_15h23.42.123,Utility_discrimination_2024_2cat,2024.2.4,MacIntel,62.5,,,,,,,,1,"[0.5,0.5]","[0.924,0.383]",s,"[0.7539312280981512,0.6052550436813765]","[0.2460687719018489,0.3947449563186235]",54.972,57.104,1,d,1,0.605,,-0.026700702,0.552121039,0.578821741,57.106,57.106,0,14,14,14,1,0.274817346,0.274817346,shape_difference1,1,,TRUE,,intensity,0.1,0.05,0.7,0.3,0.82,20,400,1E-11,3.5,0.01,0.5,0.1,,,,,,,,,,,,,,,,,,,,,,,,,,,,,,,,,,,,,,,,,,,,,,,,,,,,,,,,,,,,,,,,,,,,,,,,,,,,,,,,,
,,,,,501271,001,2025-03-14_15h23.42.123,Utility_discrimination_2024_2cat,2024.2.4,MacIntel,62.5,,,,,,,,3,"[0.5,0.5]","[0.383,0.924]",d,"[0.7182179619957938,0.5904518175805076]","[0.2817820380042062,0.4095481824194924]",57.107,59.371,1,d,1,0.738,,-0.118157943,0.566731222,0.684889165,59.371,59.371,0,15,15,15,1,0.236166626,0.236166626,shape_difference1,1,,TRUE,,intensity,0.1,0.05,0.7,0.3,0.82,20,400,1E-11,3.5,0.01,0.5,0.1,,,,,,,,,,,,,,,,,,,,,,,,,,,,,,,,,,,,,,,,,,,,,,,,,,,,,,,,,,,,,,,,,,,,,,,,,,,,,,,,,
,,,,,501271,001,2025-03-14_15h23.42.123,Utility_discrimination_2024_2cat,2024.2.4,MacIntel,62.5,,,,,,,,4,"[0.5,0.5]","[0,1]",d,"[0.570651951224009,0.6704501382010035]","[0.429348048775991,0.3295498617989964]",59.372,62.171,1,s,1,1.269,,-0.540713527,0.322166073,0.862879599,62.173,62.173,0,16,16,16,1,0.184469847,0.184469847,shape_difference3,1,,TRUE,,intensity,0.1,0.05,0.7,0.3,0.82,20,400,1E-11,3.5,0.01,0.5,0.1,,,,,,,,,,,,,,,,,,,,,,,,,,,,,,,,,,,,,,,,,,,,,,,,,,,,,,,,,,,,,,,,,,,,,,,,,,,,,,,,,
,,,,,501271,001,2025-03-14_15h23.42.123,Utility_discrimination_2024_2cat,2024.2.4,MacIntel,62.5,,,,,,,,2,"[0.5,0.5]","[0.707,0.707]",s,"[0.5,0.40339734014384304]","[0.5,0.5966026598561569]",62.173,64.621,1,d,1,0.921,,-0.09936101,0.537490534,0.636851544,64.624,64.624,0,17,17,17,1,-0.09660266,-0.09660266,shape_difference4,1,,TRUE,,intensity,0.1,0.05,0.7,0.3,0.82,20,400,1E-11,3.5,0.01,0.5,0.1,,,,,,,,,,,,,,,,,,,,,,,,,,,,,,,,,,,,,,,,,,,,,,,,,,,,,,,,,,,,,,,,,,,,,,,,,,,,,,,,,
,,,,,501271,001,2025-03-14_15h23.42.123,Utility_discrimination_2024_2cat,2024.2.4,MacIntel,62.5,,,,,,,,0,"[0.5,0.5]","[1,0]",d,"[0.6214082432493439,0.6214082432493439]","[0.37859175675065615,0.37859175675065615]",64.624,67.088,0,s,0,0.937,,-0.026700702,0.552121039,0.578821741,67.09,67.09,0,18,18,18,1,0.171723116,0.171723116,shape_difference2,1,,TRUE,,intensity,0.1,0.05,0.7,0.3,0.82,20,400,1E-11,3.5,0.01,0.5,0.1,,,,,,,,,,,,,,,,,,,,,,,,,,,,,,,,,,,,,,,,,,,,,,,,,,,,,,,,,,,,,,,,,,,,,,,,,,,,,,,,,
,,,,,501271,001,2025-03-14_15h23.42.123,Utility_discrimination_2024_2cat,2024.2.4,MacIntel,62.5,,,,,,,,1,"[0.5,0.5]","[0.924,0.383]",d,"[0.7361666255365733,0.5]","[0.26383337446342664,0.5]",67.091,69.638,0,d,0,1.026,,-0.050981617,0.494068035,0.545049652,69.639,69.639,0,19,19,19,1,0.236166626,0.236166626,shape_difference0,1,,TRUE,,intensity,0.1,0.05,0.7,0.3,0.82,20,400,1E-11,3.5,0.01,0.5,0.1,,,,,,,,,,,,,,,,,,,,,,,,,,,,,,,,,,,,,,,,,,,,,,,,,,,,,,,,,,,,,,,,,,,,,,,,,,,,,,,,,
,,,,,501271,001,2025-03-14_15h23.42.123,Utility_discrimination_2024_2cat,2024.2.4,MacIntel,62.5,,,,,,,,4,"[0.5,0.5]","[0,1]",s,"[0.6817646943115111,0.5753418592221956]","[0.3182353056884889,0.4246581407778044]",69.64,72.088,1,s,1,0.919,,-0.569624043,0.240042019,0.809666061,72.09,72.09,0,20,20,20,1,0.196715037,0.196715037,shape_difference1,1,,TRUE,,intensity,0.1,0.05,0.7,0.3,0.82,20,400,1E-11,3.5,0.01,0.5,0.1,,,,,,,,,,,,,,,,,,,,,,,,,,,,,,,,,,,,,,,,,,,,,,,,,,,,,,,,,,,,,,,,,,,,,,,,,,,,,,,,,
,,,,,501271,001,2025-03-14_15h23.42.123,Utility_discrimination_2024_2cat,2024.2.4,MacIntel,62.5,,,,,,,,2,"[0.5,0.5]","[0.707,0.707]",s,"[0.5,0.35243994249424015]","[0.5,0.6475600575057598]",72.09,74.338,1,d,1,0.722,,0.064206312,0.666780888,0.602574576,74.34,74.34,0,21,21,21,1,-0.147560058,-0.147560058,shape_difference4,1,,TRUE,,intensity,0.1,0.05,0.7,0.3,0.82,20,400,1E-11,3.5,0.01,0.5,0.1,,,,,,,,,,,,,,,,,,,,,,,,,,,,,,,,,,,,,,,,,,,,,,,,,,,,,,,,,,,,,,,,,,,,,,,,,,,,,,,,,
,,,,,501271,001,2025-03-14_15h23.42.123,Utility_discrimination_2024_2cat,2024.2.4,MacIntel,62.5,,,,,,,,0,"[0.5,0.5]","[1,0]",d,"[0.7404010129194715,0.7404010129194715]","[0.25959898708052853,0.25959898708052853]",74.34,103.322,1,s,1,27.453,,0.105213017,0.641946211,0.536733194,103.325,103.325,0,22,22,22,1,0.340029721,0.340029721,shape_difference2,1,,TRUE,,intensity,0.1,0.05,0.7,0.3,0.82,20,400,1E-11,3.5,0.01,0.5,0.1,,,,,,,,,,,,,,,,,,,,,,,,,,,,,,,,,,,,,,,,,,,,,,,,,,,,,,,,,,,,,,,,,,,,,,,,,,,,,,,,,
,,,,,501271,001,2025-03-14_15h23.42.123,Utility_discrimination_2024_2cat,2024.2.4,MacIntel,62.5,,,,,,,,3,"[0.5,0.5]","[0.383,0.924]",s,"[0.8329731738562145,0.5]","[0.16702682614378545,0.5]",103.326,105.705,1,s,1,0.859,,-0.138426098,0.496127593,0.634553691,105.707,105.707,0,23,23,23,1,0.332973174,0.332973174,shape_difference0,1,,TRUE,,intensity,0.1,0.05,0.7,0.3,0.82,20,400,1E-11,3.5,0.01,0.5,0.1,,,,,,,,,,,,,,,,,,,,,,,,,,,,,,,,,,,,,,,,,,,,,,,,,,,,,,,,,,,,,,,,,,,,,,,,,,,,,,,,,
,,,,,501271,001,2025-03-14_15h23.42.123,Utility_discrimination_2024_2cat,2024.2.4,MacIntel,62.5,,,,,,,,1,"[0.5,0.5]","[0.924,0.383]",s,"[0.551976190646757,0.6253942562861707]","[0.4480238093532431,0.37460574371382926]",105.707,107.822,1,d,1,0.589,,-0.067097964,0.445046575,0.512144539,107.824,107.824,0,24,24,24,1,0.13570807,0.13570807,shape_difference3,1,,TRUE,,intensity,0.1,0.05,0.7,0.3,0.82,20,400,1E-11,3.5,0.01,0.5,0.1,,,,,,,,,,,,,,,,,,,,,,,,,,,,,,,,,,,,,,,,,,,,,,,,,,,,,,,,,,,,,,,,,,,,,,,,,,,,,,,,,
,,,,,501271,001,2025-03-14_15h23.42.123,Utility_discrimination_2024_2cat,2024.2.4,MacIntel,62.5,,,,,,,,2,"[0.5,0.5]","[0.707,0.707]",d,"[0.657167979377494,0.5651464676424028]","[0.34283202062250595,0.43485353235759716]",107.825,109.891,1,d,1,0.545,,0.046106493,0.612747238,0.566640745,109.891,109.891,0,25,25,25,1,0.170095216,0.170095216,shape_difference1,1,,TRUE,,intensity,0.1,0.05,0.7,0.3,0.82,20,400,1E-11,3.5,0.01,0.5,0.1,,,,,,,,,,,,,,,,,,,,,,,,,,,,,,,,,,,,,,,,,,,,,,,,,,,,,,,,,,,,,,,,,,,,,,,,,,,,,,,,,
,,,,,501271,001,2025-03-14_15h23.42.123,Utility_discrimination_2024_2cat,2024.2.4,MacIntel,62.5,,,,,,,,4,"[0.5,0.5]","[0,1]",d,"[0.7076900834488034,0.7076900834488034]","[0.2923099165511966,0.2923099165511966]",109.892,112.239,1,s,1,0.821,,-0.588261172,0.151848651,0.740109824,112.241,112.241,0,26,26,26,1,0.293762494,0.293762494,shape_difference2,1,,TRUE,,intensity,0.1,0.05,0.7,0.3,0.82,20,400,1E-11,3.5,0.01,0.5,0.1,,,,,,,,,,,,,,,,,,,,,,,,,,,,,,,,,,,,,,,,,,,,,,,,,,,,,,,,,,,,,,,,,,,,,,,,,,,,,,,,,
,,,,,501271,001,2025-03-14_15h23.42.123,Utility_discrimination_2024_2cat,2024.2.4,MacIntel,62.5,,,,,,,,0,"[0.5,0.5]","[1,0]",s,"[0.5,0.3089903613102919]","[0.5,0.6910096386897081]",112.241,114.472,1,d,1,0.706,,0.095253378,0.589319911,0.494066533,114.473,114.473,0,27,27,27,1,-0.191009639,-0.191009639,shape_difference4,1,,TRUE,,intensity,0.1,0.05,0.7,0.3,0.82,20,400,1E-11,3.5,0.01,0.5,0.1,,,,,,,,,,,,,,,,,,,,,,,,,,,,,,,,,,,,,,,,,,,,,,,,,,,,,,,,,,,,,,,,,,,,,,,,,,,,,,,,,
,,,,,501271,001,2025-03-14_15h23.42.123,Utility_discrimination_2024_2cat,2024.2.4,MacIntel,62.5,,,,,,,,3,"[0.5,0.5]","[0.383,0.924]",d,"[0.794523857257694,0.5]","[0.20547614274230597,0.5]",114.473,116.939,0,d,0,0.948,,-0.158612068,0.441238695,0.599850764,116.939,116.939,0,28,28,28,1,0.294523857,0.294523857,shape_difference0,1,,TRUE,,intensity,0.1,0.05,0.7,0.3,0.82,20,400,1E-11,3.5,0.01,0.5,0.1,,,,,,,,,,,,,,,,,,,,,,,,,,,,,,,,,,,,,,,,,,,,,,,,,,,,,,,,,,,,,,,,,,,,,,,,,,,,,,,,,
,,,,,501271,001,2025-03-14_15h23.42.123,Utility_discrimination_2024_2cat,2024.2.4,MacIntel,62.5,,,,,,,,3,"[0.5,0.5]","[0.383,0.924]",s,"[0.5347308015616045,0.583789192279171]","[0.4652691984383956,0.416210807720829]",116.94,119.022,1,s,1,0.576,,-0.171834932,0.374013296,0.545848228,119.025,119.025,0,29,29,29,1,0.090680944,0.090680944,shape_difference3,1,,TRUE,,intensity,0.1,0.05,0.7,0.3,0.82,20,400,1E-11,3.5,0.01,0.5,0.1,,,,,,,,,,,,,,,,,,,,,,,,,,,,,,,,,,,,,,,,,,,,,,,,,,,,,,,,,,,,,,,,,,,,,,,,,,,,,,,,,
,,,,,501271,001,2025-03-14_15h23.42.123,Utility_discrimination_2024_2cat,2024.2.4,MacIntel,62.5,,,,,,,,0,"[0.5,0.5]","[1,0]",s,"[0.523443224698141,0.5565575447025646]","[0.4765567753018591,0.4434424552974355]",119.025,121.539,1,d,1,0.989,,0.180506795,0.689461931,0.508955136,121.541,121.541,0,30,30,30,1,0.061209464,0.061209464,shape_difference3,1,,TRUE,,intensity,0.1,0.05,0.7,0.3,0.82,20,400,1E-11,3.5,0.01,0.5,0.1,,,,,,,,,,,,,,,,,,,,,,,,,,,,,,,,,,,,,,,,,,,,,,,,,,,,,,,,,,,,,,,,,,,,,,,,,,,,,,,,,
,,,,,501271,001,2025-03-14_15h23.42.123,Utility_discrimination_2024_2cat,2024.2.4,MacIntel,62.5,,,,,,,,4,"[0.5,0.5]","[0,1]",d,"[0.8959941602685234,0.5]","[0.10400583973147659,0.5]",121.541,123.79,1,d,1,0.727,,-0.616056949,0.077962516,0.694019466,123.791,123.791,0,31,31,31,1,0.39599416,0.39599416,shape_difference0,1,,TRUE,,intensity,0.1,0.05,0.7,0.3,0.82,20,400,1E-11,3.5,0.01,0.5,0.1,,,,,,,,,,,,,,,,,,,,,,,,,,,,,,,,,,,,,,,,,,,,,,,,,,,,,,,,,,,,,,,,,,,,,,,,,,,,,,,,,
,,,,,501271,001,2025-03-14_15h23.42.123,Utility_discrimination_2024_2cat,2024.2.4,MacIntel,62.5,,,,,,,,1,"[0.5,0.5]","[0.924,0.383]",d,"[0.5,0.2663877560171044]","[0.5,0.7336122439828956]",123.791,125.822,0,s,0,0.5,,-0.078138993,0.387434732,0.465573725,125.824,125.824,0,32,32,32,1,-0.233612244,-0.233612244,shape_difference4,1,,TRUE,,intensity,0.1,0.05,0.7,0.3,0.82,20,400,1E-11,3.5,0.01,0.5,0.1,,,,,,,,,,,,,,,,,,,,,,,,,,,,,,,,,,,,,,,,,,,,,,,,,,,,,,,,,,,,,,,,,,,,,,,,,,,,,,,,,
,,,,,501271,001,2025-03-14_15h23.42.123,Utility_discrimination_2024_2cat,2024.2.4,MacIntel,62.5,,,,,,,,2,"[0.5,0.5]","[0.707,0.707]",d,"[0.6362005814239964,0.5564554358066998]","[0.3637994185760036,0.44354456419330024]",125.825,128.256,0,d,0,0.905,,0.034258812,0.562756016,0.528497204,128.258,128.258,0,33,33,33,1,0.147403227,0.147403227,shape_difference1,1,,TRUE,,intensity,0.1,0.05,0.7,0.3,0.82,20,400,1E-11,3.5,0.01,0.5,0.1,,,,,,,,,,,,,,,,,,,,,,,,,,,,,,,,,,,,,,,,,,,,,,,,,,,,,,,,,,,,,,,,,,,,,,,,,,,,,,,,,
,,,,,501271,001,2025-03-14_15h23.42.123,Utility_discrimination_2024_2cat,2024.2.4,MacIntel,62.5,,,,,,,,1,"[0.5,0.5]","[0.924,0.383]",s,"[0.6854408753325492,0.6854408753325492]","[0.3145591246674509,0.3145591246674509]",128.259,130.59,0,d,0,0.809,,0.013911574,0.467109402,0.453197828,130.592,130.592,0,34,34,34,1,0.26229261,0.26229261,shape_difference2,1,,TRUE,,intensity,0.1,0.05,0.7,0.3,0.82,20,400,1E-11,3.5,0.01,0.5,0.1,,,,,,,,,,,,,,,,,,,,,,,,,,,,,,,,,,,,,,,,,,,,,,,,,,,,,,,,,,,,,,,,,,,,,,,,,,,,,,,,,
,,,,,501271,001,2025-03-14_15h23.42.123,Utility_discrimination_2024_2cat,2024.2.4,MacIntel,62.5,,,,,,,,4,"[0.5,0.5]","[0,1]",s,"[0.6824458240699567,0.5756241889813781]","[0.31755417593004326,0.4243758110186218]",130.592,133.456,1,s,1,1.335,,-0.328175385,0.257447381,0.585622767,133.458,133.458,0,35,35,35,1,0.197452191,0.197452191,shape_difference1,1,,TRUE,,intensity,0.1,0.05,0.7,0.3,0.82,20,400,1E-11,3.5,0.01,0.5,0.1,,,,,,,,,,,,,,,,,,,,,,,,,,,,,,,,,,,,,,,,,,,,,,,,,,,,,,,,,,,,,,,,,,,,,,,,,,,,,,,,,
,,,,,501271,001,2025-03-14_15h23.42.123,Utility_discrimination_2024_2cat,2024.2.4,MacIntel,62.5,,,,,,,,0,"[0.5,0.5]","[1,0]",s,"[0.5,0.3993668557113039]","[0.5,0.6006331442886961]",133.459,136.006,0,d,0,1.019,,0.162971133,0.645566632,0.482595499,136.008,136.008,0,36,36,36,1,-0.100633144,-0.100633144,shape_difference4,1,,TRUE,,intensity,0.1,0.05,0.7,0.3,0.82,20,400,1E-11,3.5,0.01,0.5,0.1,,,,,,,,,,,,,,,,,,,,,,,,,,,,,,,,,,,,,,,,,,,,,,,,,,,,,,,,,,,,,,,,,,,,,,,,,,,,,,,,,
,,,,,501271,001,2025-03-14_15h23.42.123,Utility_discrimination_2024_2cat,2024.2.4,MacIntel,62.5,,,,,,,,3,"[0.5,0.5]","[0.383,0.924]",s,"[0.868438100981804,0.5]","[0.13156189901819604,0.5]",136.008,139.074,0,d,0,1.543,,-0.180803695,0.29910644,0.479910135,139.075,139.075,0,37,37,37,1,0.368438101,0.368438101,shape_difference0,1,,TRUE,,intensity,0.1,0.05,0.7,0.3,0.82,20,400,1E-11,3.5,0.01,0.5,0.1,,,,,,,,,,,,,,,,,,,,,,,,,,,,,,,,,,,,,,,,,,,,,,,,,,,,,,,,,,,,,,,,,,,,,,,,,,,,,,,,,
,,,,,501271,001,2025-03-14_15h23.42.123,Utility_discrimination_2024_2cat,2024.2.4,MacIntel,62.5,,,,,,,,2,"[0.5,0.5]","[0.707,0.707]",s,"[0.5138020791591781,0.5332979664310198]","[0.4861979208408219,0.4667020335689802]",139.076,141.64,0,d,0,1.039,,0.151799491,0.684255939,0.532456448,141.642,141.642,0,38,38,38,1,0.03603676,0.03603676,shape_difference3,1,,TRUE,,intensity,0.1,0.05,0.7,0.3,0.82,20,400,1E-11,3.5,0.01,0.5,0.1,,,,,,,,,,,,,,,,,,,,,,,,,,,,,,,,,,,,,,,,,,,,,,,,,,,,,,,,,,,,,,,,,,,,,,,,,,,,,,,,,
,,,,,501271,001,2025-03-14_15h23.42.123,Utility_discrimination_2024_2cat,2024.2.4,MacIntel,62.5,,,,,,,,1,"[0.5,0.5]","[0.924,0.383]",s,"[0.7726957537235573,0.7726957537235573]","[0.22730424627644275,0.22730424627644275]",141.642,144.289,1,s,1,1.123,,0.009152004,0.411928194,0.402776189,144.291,144.291,0,39,39,39,1,0.38570828,0.38570828,shape_difference2,1,,TRUE,,intensity,0.1,0.05,0.7,0.3,0.82,20,400,1E-11,3.5,0.01,0.5,0.1,,,,,,,,,,,,,,,,,,,,,,,,,,,,,,,,,,,,,,,,,,,,,,,,,,,,,,,,,,,,,,,,,,,,,,,,,,,,,,,,,
,,,,,501271,001,2025-03-14_15h23.42.123,Utility_discrimination_2024_2cat,2024.2.4,MacIntel,62.5,,,,,,,,2,"[0.5,0.5]","[0.707,0.707]",s,"[0.6649874080289677,0.5683876377436089]","[0.3350125919710322,0.43161236225639105]",144.291,146.458,1,d,1,0.643,,0.140420307,0.635719401,0.495299094,146.458,146.458,0,40,40,40,1,0.178557801,0.178557801,shape_difference1,1,,TRUE,,intensity,0.1,0.05,0.7,0.3,0.82,20,400,1E-11,3.5,0.01,0.5,0.1,,,,,,,,,,,,,,,,,,,,,,,,,,,,,,,,,,,,,,,,,,,,,,,,,,,,,,,,,,,,,,,,,,,,,,,,,,,,,,,,,
,,,,,501271,001,2025-03-14_15h23.42.123,Utility_discrimination_2024_2cat,2024.2.4,MacIntel,62.5,,,,,,,,4,"[0.5,0.5]","[0,1]",d,"[0.7520794713577548,0.7520794713577548]","[0.24792052864224517,0.24792052864224517]",146.459,148.873,1,d,1,0.891,,-0.210955896,0.396014126,0.606970022,148.876,148.876,0,41,41,41,1,0.35654805,0.35654805,shape_difference2,1,,TRUE,,intensity,0.1,0.05,0.7,0.3,0.82,20,400,1E-11,3.5,0.01,0.5,0.1,,,,,,,,,,,,,,,,,,,,,,,,,,,,,,,,,,,,,,,,,,,,,,,,,,,,,,,,,,,,,,,,,,,,,,,,,,,,,,,,,
,,,,,501271,001,2025-03-14_15h23.42.123,Utility_discrimination_2024_2cat,2024.2.4,MacIntel,62.5,,,,,,,,0,"[0.5,0.5]","[1,0]",d,"[0.5,0.5068159362039097]","[0.5,0.4931840637960903]",148.876,152.023,0,d,0,1.618,,0.254271282,0.755759439,0.501488156,152.025,152.025,0,42,42,42,1,0.006815936,0.006815936,shape_difference4,1,,TRUE,,intensity,0.1,0.05,0.7,0.3,0.82,20,400,1E-11,3.5,0.01,0.5,0.1,,,,,,,,,,,,,,,,,,,,,,,,,,,,,,,,,,,,,,,,,,,,,,,,,,,,,,,,,,,,,,,,,,,,,,,,,,,,,,,,,
,,,,,501271,001,2025-03-14_15h23.42.123,Utility_discrimination_2024_2cat,2024.2.4,MacIntel,62.5,,,,,,,,3,"[0.5,0.5]","[0.383,0.924]",s,"[0.9769643660633008,0.5]","[0.023035633936699162,0.5]",152.026,161.657,1,s,1,8.106,,-0.089492637,0.397480846,0.486973482,161.659,161.659,0,43,43,43,1,0.476964366,0.476964366,shape_difference0,1,,TRUE,,intensity,0.1,0.05,0.7,0.3,0.82,20,400,1E-11,3.5,0.01,0.5,0.1,,,,,,,,,,,,,,,,,,,,,,,,,,,,,,,,,,,,,,,,,,,,,,,,,,,,,,,,,,,,,,,,,,,,,,,,,,,,,,,,,
,,,,,501271,001,2025-03-14_15h23.42.123,Utility_discrimination_2024_2cat,2024.2.4,MacIntel,62.5,,,,,,,,2,"[0.5,0.5]","[0.707,0.707]",s,"[0.5356950927415083,0.5861155762223332]","[0.4643049072584917,0.41388442377766677]",161.66,163.908,0,d,0,0.727,,0.13261938,0.582305044,0.449685663,163.909,163.909,0,44,44,44,1,0.093198676,0.093198676,shape_difference3,1,,TRUE,,intensity,0.1,0.05,0.7,0.3,0.82,20,400,1E-11,3.5,0.01,0.5,0.1,,,,,,,,,,,,,,,,,,,,,,,,,,,,,,,,,,,,,,,,,,,,,,,,,,,,,,,,,,,,,,,,,,,,,,,,,,,,,,,,,
,,,,,501271,001,2025-03-14_15h23.42.123,Utility_discrimination_2024_2cat,2024.2.4,MacIntel,62.5,,,,,,,,4,"[0.5,0.5]","[0,1]",s,"[0.7341358111374396,0.7341358111374396]","[0.26586418886256036,0.26586418886256036]",163.909,166.307,1,d,1,0.868,,-0.113460378,0.521499901,0.634960279,166.309,166.309,0,45,45,45,1,0.33116805,0.33116805,shape_difference2,1,,TRUE,,intensity,0.1,0.05,0.7,0.3,0.82,20,400,1E-11,3.5,0.01,0.5,0.1,,,,,,,,,,,,,,,,,,,,,,,,,,,,,,,,,,,,,,,,,,,,,,,,,,,,,,,,,,,,,,,,,,,,,,,,,,,,,,,,,
,,,,,501271,001,2025-03-14_15h23.42.123,Utility_discrimination_2024_2cat,2024.2.4,MacIntel,62.5,,,,,,,,0,"[0.5,0.5]","[1,0]",d,"[0.5,0.638276638912302]","[0.5,0.361723361087698]",166.31,168.64,1,d,1,0.801,,0.243337927,0.699312507,0.455974579,168.642,168.642,0,46,46,46,1,0.138276639,0.138276639,shape_difference4,1,,TRUE,,intensity,0.1,0.05,0.7,0.3,0.82,20,400,1E-11,3.5,0.01,0.5,0.1,,,,,,,,,,,,,,,,,,,,,,,,,,,,,,,,,,,,,,,,,,,,,,,,,,,,,,,,,,,,,,,,,,,,,,,,,,,,,,,,,
,,,,,501271,001,2025-03-14_15h23.42.123,Utility_discrimination_2024_2cat,2024.2.4,MacIntel,62.5,,,,,,,,3,"[0.5,0.5]","[0.383,0.924]",d,"[0.9506267245908149,0.5]","[0.049373275409185124,0.5]",168.643,170.924,1,s,1,0.753,,-0.013618116,0.51947221,0.533090326,170.926,170.926,0,47,47,47,1,0.450626725,0.450626725,shape_difference0,1,,TRUE,,intensity,0.1,0.05,0.7,0.3,0.82,20,400,1E-11,3.5,0.01,0.5,0.1,,,,,,,,,,,,,,,,,,,,,,,,,,,,,,,,,,,,,,,,,,,,,,,,,,,,,,,,,,,,,,,,,,,,,,,,,,,,,,,,,
,,,,,501271,001,2025-03-14_15h23.42.123,Utility_discrimination_2024_2cat,2024.2.4,MacIntel,62.5,,,,,,,,1,"[0.5,0.5]","[0.924,0.383]",s,"[0.571341730897514,0.6721142541757257]","[0.428658269102486,0.3278857458242743]",170.927,173.224,1,s,1,0.769,,0.005618082,0.373835136,0.368217054,173.226,173.226,0,48,48,48,1,0.186270838,0.186270838,shape_difference3,1,,TRUE,,intensity,0.1,0.05,0.7,0.3,0.82,20,400,1E-11,3.5,0.01,0.5,0.1,,,,,,,,,,,,,,,,,,,,,,,,,,,,,,,,,,,,,,,,,,,,,,,,,,,,,,,,,,,,,,,,,,,,,,,,,,,,,,,,,
,,,,,501271,001,2025-03-14_15h23.42.123,Utility_discrimination_2024_2cat,2024.2.4,MacIntel,62.5,,,,,,,,0,"[0.5,0.5]","[1,0]",s,"[0.650411830774217,0.5623460294226462]","[0.34958816922578295,0.4376539705773538]",173.226,175.457,1,s,1,0.705,,0.235719419,0.662950342,0.427230923,175.46,175.46,0,49,49,49,1,0.162783367,0.162783367,shape_difference1,1,,TRUE,,intensity,0.1,0.05,0.7,0.3,0.82,20,400,1E-11,3.5,0.01,0.5,0.1,,,,,,,,,,,,,,,,,,,,,,,,,,,,,,,,,,,,,,,,,,,,,,,,,,,,,,,,,,,,,,,,,,,,,,,,,,,,,,,,,
,,,,,501271,001,2025-03-14_15h23.42.123,Utility_discrimination_2024_2cat,2024.2.4,MacIntel,62.5,,,,,,,,2,"[0.5,0.5]","[0.707,0.707]",s,"[0.927227131573578,0.5]","[0.07277286842642205,0.5]",175.46,177.724,1,s,1,0.734,,0.124159611,0.54399879,0.419839179,177.726,177.726,0,50,50,50,1,0.427227132,0.427227132,shape_difference0,1,,TRUE,,intensity,0.1,0.05,0.7,0.3,0.82,20,400,1E-11,3.5,0.01,0.5,0.1,,,,,,,,,,,,,,,,,,,,,,,,,,,,,,,,,,,,,,,,,,,,,,,,,,,,,,,,,,,,,,,,,,,,,,,,,,,,,,,,,
,,,,,501271,001,2025-03-14_15h23.42.123,Utility_discrimination_2024_2cat,2024.2.4,MacIntel,62.5,,,,,,,,3,"[0.5,0.5]","[0.383,0.924]",s,"[0.7150722838296255,0.7150722838296255]","[0.28492771617037443,0.28492771617037443]",177.727,180.207,1,d,1,0.956,,-0.031467871,0.461391025,0.492858896,180.208,180.208,0,51,51,51,1,0.304204079,0.304204079,shape_difference2,1,,TRUE,,intensity,0.1,0.05,0.7,0.3,0.82,20,400,1E-11,3.5,0.01,0.5,0.1,,,,,,,,,,,,,,,,,,,,,,,,,,,,,,,,,,,,,,,,,,,,,,,,,,,,,,,,,,,,,,,,,,,,,,,,,,,,,,,,,
,,,,,501271,001,2025-03-14_15h23.42.123,Utility_discrimination_2024_2cat,2024.2.4,MacIntel,62.5,,,,,,,,1,"[0.5,0.5]","[0.924,0.383]",d,"[0.5609900477690503,0.6471404807796408]","[0.43900995223094974,0.3528595192203592]",180.208,182.907,1,d,1,1.172,,0.002895189,0.332546442,0.329651253,182.907,182.907,0,52,52,52,1,0.159242945,0.159242945,shape_difference3,1,,TRUE,,intensity,0.1,0.05,0.7,0.3,0.82,20,400,1E-11,3.5,0.01,0.5,0.1,,,,,,,,,,,,,,,,,,,,,,,,,,,,,,,,,,,,,,,,,,,,,,,,,,,,,,,,,,,,,,,,,,,,,,,,,,,,,,,,,
,,,,,501271,001,2025-03-14_15h23.42.123,Utility_discrimination_2024_2cat,2024.2.4,MacIntel,62.5,,,,,,,,4,"[0.5,0.5]","[0,1]",d,"[0.6376389040575762,0.5570516236515711]","[0.3623610959424238,0.44294837634842893]",182.907,185.175,1,s,1,0.759,,-0.135086269,0.463420271,0.59850654,185.176,185.176,0,53,53,53,1,0.148959853,0.148959853,shape_difference1,1,,TRUE,,intensity,0.1,0.05,0.7,0.3,0.82,20,400,1E-11,3.5,0.01,0.5,0.1,,,,,,,,,,,,,,,,,,,,,,,,,,,,,,,,,,,,,,,,,,,,,,,,,,,,,,,,,,,,,,,,,,,,,,,,,,,,,,,,,
,,,,,501271,001,2025-03-14_15h23.42.123,Utility_discrimination_2024_2cat,2024.2.4,MacIntel,62.5,,,,,,,,4,"[0.5,0.5]","[0,1]",s,"[0.5,0.5893083446935364]","[0.5,0.41069165530646357]",185.176,187.175,1,d,1,0.476,,-0.149138128,0.390698861,0.539836988,187.175,187.175,0,54,54,54,1,0.089308345,0.089308345,shape_difference4,1,,TRUE,,intensity,0.1,0.05,0.7,0.3,0.82,20,400,1E-11,3.5,0.01,0.5,0.1,,,,,,,,,,,,,,,,,,,,,,,,,,,,,,,,,,,,,,,,,,,,,,,,,,,,,,,,,,,,,,,,,,,,,,,,,,,,,,,,,
,,,,,501271,001,2025-03-14_15h23.42.123,Utility_discrimination_2024_2cat,2024.2.4,MacIntel,62.5,,,,,,,,0,"[0.5,0.5]","[1,0]",d,"[0.5,0.5586428133952481]","[0.5,0.4413571866047519]",187.176,189.624,0,s,0,0.921,,0.227251558,0.621561714,0.394310156,189.626,189.626,0,55,55,55,1,0.058642813,0.058642813,shape_difference4,1,,TRUE,,intensity,0.1,0.05,0.7,0.3,0.82,20,400,1E-11,3.5,0.01,0.5,0.1,,,,,,,,,,,,,,,,,,,,,,,,,,,,,,,,,,,,,,,,,,,,,,,,,,,,,,,,,,,,,,,,,,,,,,,,,,,,,,,,,
,,,,,501271,001,2025-03-14_15h23.42.123,Utility_discrimination_2024_2cat,2024.2.4,MacIntel,62.5,,,,,,,,3,"[0.5,0.5]","[0.383,0.924]",d,"[0.9015867194434236,0.5]","[0.09841328055657639,0.5]",189.627,191.741,1,d,1,0.589,,-0.043676797,0.393144537,0.436821334,191.743,191.743,0,56,56,56,1,0.401586719,0.401586719,shape_difference0,1,,TRUE,,intensity,0.1,0.05,0.7,0.3,0.82,20,400,1E-11,3.5,0.01,0.5,0.1,,,,,,,,,,,,,,,,,,,,,,,,,,,,,,,,,,,,,,,,,,,,,,,,,,,,,,,,,,,,,,,,,,,,,,,,,,,,,,,,,
,,,,,501271,001,2025-03-14_15h23.42.123,Utility_discrimination_2024_2cat,2024.2.4,MacIntel,62.5,,,,,,,,2,"[0.5,0.5]","[0.707,0.707]",d,"[0.552148956024992,0.6258110583997197]","[0.44785104397500797,0.37418894160028027]",191.744,194.058,1,d,1,0.786,,0.118124473,0.495765193,0.37764072,194.059,194.059,0,57,57,57,1,0.136159154,0.136159154,shape_difference3,1,,TRUE,,intensity,0.1,0.05,0.7,0.3,0.82,20,400,1E-11,3.5,0.01,0.5,0.1,,,,,,,,,,,,,,,,,,,,,,,,,,,,,,,,,,,,,,,,,,,,,,,,,,,,,,,,,,,,,,,,,,,,,,,,,,,,,,,,,
,,,,,501271,001,2025-03-14_15h23.42.123,Utility_discrimination_2024_2cat,2024.2.4,MacIntel,62.5,,,,,,,,1,"[0.5,0.5]","[0.924,0.383]",d,"[0.7023041816534527,0.7023041816534527]","[0.29769581834654735,0.29769581834654735]",194.06,196.308,1,d,1,0.718,,-0.004606817,0.297104218,0.301711036,196.31,196.31,0,58,58,58,1,0.286144529,0.286144529,shape_difference2,1,,TRUE,,intensity,0.1,0.05,0.7,0.3,0.82,20,400,1E-11,3.5,0.01,0.5,0.1,,,,,,,,,,,,,,,,,,,,,,,,,,,,,,,,,,,,,,,,,,,,,,,,,,,,,,,,,,,,,,,,,,,,,,,,,,,,,,,,,
,,,,,501271,001,2025-03-14_15h23.42.123,Utility_discrimination_2024_2cat,2024.2.4,MacIntel,62.5,,,,,,,,0,"[0.5,0.5]","[1,0]",d,"[0.6250389245680094,0.5518289048804628]","[0.37496107543199064,0.44817109511953723]",196.31,198.725,1,d,1,0.894,,0.221190386,0.586913492,0.365723106,198.727,198.727,0,59,59,59,1,0.135323511,0.135323511,shape_difference1,1,,TRUE,,intensity,0.1,0.05,0.7,0.3,0.82,20,400,1E-11,3.5,0.01,0.5,0.1,,,,,,,,,,,,,,,,,,,,,,,,,,,,,,,,,,,,,,,,,,,,,,,,,,,,,,,,,,,,,,,,,,,,,,,,,,,,,,,,,
,,,,,501271,001,2025-03-14_15h23.42.123,Utility_discrimination_2024_2cat,2024.2.4,MacIntel,62.5,,,,,,,,2,"[0.5,0.5]","[0.707,0.707]",d,"[0.885693863814187,0.5]","[0.11430613618581298,0.5]",198.727,200.94,1,d,1,0.692,,0.113694364,0.468602884,0.354908519,200.941,200.941,0,60,60,60,1,0.385693864,0.385693864,shape_difference0,1,,TRUE,,intensity,0.1,0.05,0.7,0.3,0.82,20,400,1E-11,3.5,0.01,0.5,0.1,,,,,,,,,,,,,,,,,,,,,,,,,,,,,,,,,,,,,,,,,,,,,,,,,,,,,,,,,,,,,,,,,,,,,,,,,,,,,,,,,
,,,,,501271,001,2025-03-14_15h23.42.123,Utility_discrimination_2024_2cat,2024.2.4,MacIntel,62.5,,,,,,,,4,"[0.5,0.5]","[0,1]",d,"[0.6927176462146865,0.6927176462146865]","[0.30728235378531354,0.30728235378531354]",200.941,203.191,1,s,1,0.737,,-0.052321744,0.547633542,0.599955287,203.192,203.192,0,61,61,61,1,0.272585072,0.272585072,shape_difference2,1,,TRUE,,intensity,0.1,0.05,0.7,0.3,0.82,20,400,1E-11,3.5,0.01,0.5,0.1,,,,,,,,,,,,,,,,,,,,,,,,,,,,,,,,,,,,,,,,,,,,,,,,,,,,,,,,,,,,,,,,,,,,,,,,,,,,,,,,,
,,,,,501271,001,2025-03-14_15h23.42.123,Utility_discrimination_2024_2cat,2024.2.4,MacIntel,62.5,,,,,,,,3,"[0.5,0.5]","[0.383,0.924]",s,"[0.5,0.687607922336845]","[0.5,0.312392077663155]",203.192,205.458,1,s,1,0.738,,-0.056700314,0.353333828,0.410034142,205.46,205.46,0,62,62,62,1,0.187607922,0.187607922,shape_difference4,1,,TRUE,,intensity,0.1,0.05,0.7,0.3,0.82,20,400,1E-11,3.5,0.01,0.5,0.1,,,,,,,,,,,,,,,,,,,,,,,,,,,,,,,,,,,,,,,,,,,,,,,,,,,,,,,,,,,,,,,,,,,,,,,,,,,,,,,,,
,,,,,501271,001,2025-03-14_15h23.42.123,Utility_discrimination_2024_2cat,2024.2.4,MacIntel,62.5,,,,,,,,1,"[0.5,0.5]","[0.924,0.383]",s,"[0.5433236234452457,0.6045196555180339]","[0.45667637655475435,0.3954803444819661]",205.46,207.908,1,d,1,0.92,,-0.026856274,0.282890696,0.30974697,207.908,207.908,0,63,63,63,1,0.11311651,0.11311651,shape_difference3,1,,TRUE,,intensity,0.1,0.05,0.7,0.3,0.82,20,400,1E-11,3.5,0.01,0.5,0.1,,,,,,,,,,,,,,,,,,,,,,,,,,,,,,,,,,,,,,,,,,,,,,,,,,,,,,,,,,,,,,,,,,,,,,,,,,,,,,,,,
,,,,,501271,001,2025-03-14_15h23.42.123,Utility_discrimination_2024_2cat,2024.2.4,MacIntel,62.5,,,,,,,,4,"[0.5,0.5]","[0,1]",d,"[0.6113224277747924,0.5461433872702873]","[0.3886775722252076,0.45385661272971267]",207.909,210.141,1,d,1,0.702,,-0.062755501,0.48221965,0.54497515,210.142,210.142,0,64,64,64,1,0.120478818,0.120478818,shape_difference1,1,,TRUE,,intensity,0.1,0.05,0.7,0.3,0.82,20,400,1E-11,3.5,0.01,0.5,0.1,,,,,,,,,,,,,,,,,,,,,,,,,,,,,,,,,,,,,,,,,,,,,,,,,,,,,,,,,,,,,,,,,,,,,,,,,,,,,,,,,
,,,,,501271,001,2025-03-14_15h23.42.123,Utility_discrimination_2024_2cat,2024.2.4,MacIntel,62.5,,,,,,,,3,"[0.5,0.5]","[0.383,0.924]",d,"[0.5,0.653362322535935]","[0.5,0.34663767746406504]",210.142,212.442,1,d,1,0.772,,-0.065908281,0.298925229,0.364833511,212.443,212.443,0,65,65,65,1,0.153362323,0.153362323,shape_difference4,1,,TRUE,,intensity,0.1,0.05,0.7,0.3,0.82,20,400,1E-11,3.5,0.01,0.5,0.1,,,,,,,,,,,,,,,,,,,,,,,,,,,,,,,,,,,,,,,,,,,,,,,,,,,,,,,,,,,,,,,,,,,,,,,,,,,,,,,,,
,,,,,501271,001,2025-03-14_15h23.42.123,Utility_discrimination_2024_2cat,2024.2.4,MacIntel,62.5,,,,,,,,2,"[0.5,0.5]","[0.707,0.707]",d,"[0.5357957337710357,0.5863583759906973]","[0.4642042662289642,0.4136416240093027]",212.444,214.541,1,s,1,0.576,,0.110346697,0.432574794,0.322228098,214.542,214.542,0,66,66,66,1,0.093461446,0.093461446,shape_difference3,1,,TRUE,,intensity,0.1,0.05,0.7,0.3,0.82,20,400,1E-11,3.5,0.01,0.5,0.1,,,,,,,,,,,,,,,,,,,,,,,,,,,,,,,,,,,,,,,,,,,,,,,,,,,,,,,,,,,,,,,,,,,,,,,,,,,,,,,,,
,,,,,501271,001,2025-03-14_15h23.42.123,Utility_discrimination_2024_2cat,2024.2.4,MacIntel,62.5,,,,,,,,1,"[0.5,0.5]","[0.924,0.383]",s,"[0.6845056583306854,0.6845056583306854]","[0.3154943416693145,0.3154943416693145]",214.542,216.643,1,d,1,0.593,,-0.0430122,0.265363036,0.308375237,216.644,216.644,0,67,67,67,1,0.260969814,0.260969814,shape_difference2,1,,TRUE,,intensity,0.1,0.05,0.7,0.3,0.82,20,400,1E-11,3.5,0.01,0.5,0.1,,,,,,,,,,,,,,,,,,,,,,,,,,,,,,,,,,,,,,,,,,,,,,,,,,,,,,,,,,,,,,,,,,,,,,,,,,,,,,,,,
,,,,,501271,001,2025-03-14_15h23.42.123,Utility_discrimination_2024_2cat,2024.2.4,MacIntel,62.5,,,,,,,,0,"[0.5,0.5]","[1,0]",d,"[0.5958670938866865,0.5397371179205638]","[0.4041329061133136,0.4602628820794363]",216.645,218.842,1,s,1,0.666,,0.216739883,0.560044018,0.343304135,218.844,218.844,0,68,68,68,1,0.103752266,0.103752266,shape_difference1,1,,TRUE,,intensity,0.1,0.05,0.7,0.3,0.82,20,400,1E-11,3.5,0.01,0.5,0.1,,,,,,,,,,,,,,,,,,,,,,,,,,,,,,,,,,,,,,,,,,,,,,,,,,,,,,,,,,,,,,,,,,,,,,,,,,,,,,,,,
,,,,,501271,001,2025-03-14_15h23.42.123,Utility_discrimination_2024_2cat,2024.2.4,MacIntel,62.5,,,,,,,,3,"[0.5,0.5]","[0.383,0.924]",s,"[0.8730794453464924,0.5]","[0.1269205546535076,0.5]",218.844,220.975,1,s,1,0.601,,-0.072578186,0.272772512,0.345350698,220.977,220.977,0,69,69,69,1,0.373079445,0.373079445,shape_difference0,1,,TRUE,,intensity,0.1,0.05,0.7,0.3,0.82,20,400,1E-11,3.5,0.01,0.5,0.1,,,,,,,,,,,,,,,,,,,,,,,,,,,,,,,,,,,,,,,,,,,,,,,,,,,,,,,,,,,,,,,,,,,,,,,,,,,,,,,,,
,,,,,501271,001,2025-03-14_15h23.42.123,Utility_discrimination_2024_2cat,2024.2.4,MacIntel,62.5,,,,,,,,0,"[0.5,0.5]","[1,0]",s,"[0.5312622100273879,0.5754211019981892]","[0.46873778997261206,0.4245788980018108]",220.977,223.458,1,d,1,0.957,,0.213387594,0.524103591,0.310715997,223.46,223.46,0,70,70,70,1,0.081624569,0.081624569,shape_difference3,1,,TRUE,,intensity,0.1,0.05,0.7,0.3,0.82,20,400,1E-11,3.5,0.01,0.5,0.1,,,,,,,,,,,,,,,,,,,,,,,,,,,,,,,,,,,,,,,,,,,,,,,,,,,,,,,,,,,,,,,,,,,,,,,,,,,,,,,,,
,,,,,501271,001,2025-03-14_15h23.42.123,Utility_discrimination_2024_2cat,2024.2.4,MacIntel,62.5,,,,,,,,4,"[0.5,0.5]","[0,1]",d,"[0.8622575806464369,0.5]","[0.13774241935356313,0.5]",223.461,225.809,1,d,1,0.822,,-0.069761187,0.41250251,0.482263696,225.81,225.811,0,71,71,71,1,0.362257581,0.362257581,shape_difference0,1,,TRUE,,intensity,0.1,0.05,0.7,0.3,0.82,20,400,1E-11,3.5,0.01,0.5,0.1,,,,,,,,,,,,,,,,,,,,,,,,,,,,,,,,,,,,,,,,,,,,,,,,,,,,,,,,,,,,,,,,,,,,,,,,,,,,,,,,,
,,,,,501271,001,2025-03-14_15h23.42.123,Utility_discrimination_2024_2cat,2024.2.4,MacIntel,62.5,,,,,,,,1,"[0.5,0.5]","[0.924,0.383]",d,"[0.5,0.624000494840051]","[0.5,0.3759995051599489]",225.811,228.358,1,s,1,1.02,,-0.054962494,0.242963155,0.297925649,228.36,228.36,0,72,72,72,1,0.124000495,0.124000495,shape_difference4,1,,TRUE,,intensity,0.1,0.05,0.7,0.3,0.82,20,400,1E-11,3.5,0.01,0.5,0.1,,,,,,,,,,,,,,,,,,,,,,,,,,,,,,,,,,,,,,,,,,,,,,,,,,,,,,,,,,,,,,,,,,,,,,,,,,,,,,,,,
,,,,,501271,001,2025-03-14_15h23.42.123,Utility_discrimination_2024_2cat,2024.2.4,MacIntel,62.5,,,,,,,,2,"[0.5,0.5]","[0.707,0.707]",s,"[0.5844785151578451,0.5350165273868557]","[0.41552148484215495,0.4649834726131443]",228.361,230.911,1,s,1,1.027,,0.107742775,0.396174828,0.288432053,230.912,230.912,0,73,73,73,1,0.091426964,0.091426964,shape_difference1,1,,TRUE,,intensity,0.1,0.05,0.7,0.3,0.82,20,400,1E-11,3.5,0.01,0.5,0.1,,,,,,,,,,,,,,,,,,,,,,,,,,,,,,,,,,,,,,,,,,,,,,,,,,,,,,,,,,,,,,,,,,,,,,,,,,,,,,,,,
,,,,,501271,001,2025-03-14_15h23.42.123,Utility_discrimination_2024_2cat,2024.2.4,MacIntel,62.5,,,,,,,,2,"[0.5,0.5]","[0.707,0.707]",s,"[0.6771523446513777,0.6771523446513777]","[0.32284765534862225,0.32284765534862225]",230.912,232.908,1,s,1,0.475,,0.105659237,0.383007007,0.27734777,232.908,232.908,0,74,74,74,1,0.250569087,0.250569087,shape_difference2,1,,TRUE,,intensity,0.1,0.05,0.7,0.3,0.82,20,400,1E-11,3.5,0.01,0.5,0.1,,,,,,,,,,,,,,,,,,,,,,,,,,,,,,,,,,,,,,,,,,,,,,,,,,,,,,,,,,,,,,,,,,,,,,,,,,,,,,,,,
,,,,,501271,001,2025-03-14_15h23.42.123,Utility_discrimination_2024_2cat,2024.2.4,MacIntel,62.5,,,,,,,,0,"[0.5,0.5]","[1,0]",s,"[0.6702636057483368,0.6702636057483368]","[0.32973639425166323,0.32973639425166323]",232.909,235.725,1,s,1,1.305,,0.210798302,0.494507204,0.283708902,235.727,235.727,0,75,75,75,1,0.240825468,0.240825468,shape_difference2,1,,TRUE,,intensity,0.1,0.05,0.7,0.3,0.82,20,400,1E-11,3.5,0.01,0.5,0.1,,,,,,,,,,,,,,,,,,,,,,,,,,,,,,,,,,,,,,,,,,,,,,,,,,,,,,,,,,,,,,,,,,,,,,,,,,,,,,,,,
,,,,,501271,001,2025-03-14_15h23.42.123,Utility_discrimination_2024_2cat,2024.2.4,MacIntel,62.5,,,,,,,,1,"[0.5,0.5]","[0.924,0.383]",s,"[0.852574469731647,0.5]","[0.14742553026835303,0.5]",235.727,237.958,1,d,1,0.703,,-0.063964739,0.213467085,0.277431824,237.961,237.961,0,76,76,76,1,0.35257447,0.35257447,shape_difference0,1,,TRUE,,intensity,0.1,0.05,0.7,0.3,0.82,20,400,1E-11,3.5,0.01,0.5,0.1,,,,,,,,,,,,,,,,,,,,,,,,,,,,,,,,,,,,,,,,,,,,,,,,,,,,,,,,,,,,,,,,,,,,,,,,,,,,,,,,,
,,,,,501271,001,2025-03-14_15h23.42.123,Utility_discrimination_2024_2cat,2024.2.4,MacIntel,62.5,,,,,,,,4,"[0.5,0.5]","[0,1]",d,"[0.5760688513001145,0.5315307035150908]","[0.4239311486998855,0.46846929648490926]",237.961,240.259,1,s,1,0.769,,-0.077142587,0.364573488,0.441716075,240.261,240.261,0,77,77,77,1,0.082325597,0.082325597,shape_difference1,1,,TRUE,,intensity,0.1,0.05,0.7,0.3,0.82,20,400,1E-11,3.5,0.01,0.5,0.1,,,,,,,,,,,,,,,,,,,,,,,,,,,,,,,,,,,,,,,,,,,,,,,,,,,,,,,,,,,,,,,,,,,,,,,,,,,,,,,,,
,,,,,501271,001,2025-03-14_15h23.42.123,Utility_discrimination_2024_2cat,2024.2.4,MacIntel,62.5,,,,,,,,3,"[0.5,0.5]","[0.383,0.924]",s,"[0.5,0.596132520578081]","[0.5,0.40386747942191903]",240.262,242.609,1,s,1,0.824,,-0.077524872,0.239139145,0.316664017,242.611,242.611,0,78,78,78,1,0.096132521,0.096132521,shape_difference4,1,,TRUE,,intensity,0.1,0.05,0.7,0.3,0.82,20,400,1E-11,3.5,0.01,0.5,0.1,,,,,,,,,,,,,,,,,,,,,,,,,,,,,,,,,,,,,,,,,,,,,,,,,,,,,,,,,,,,,,,,,,,,,,,,,,,,,,,,,
,,,,,501271,001,2025-03-14_15h23.42.123,Utility_discrimination_2024_2cat,2024.2.4,MacIntel,62.5,,,,,,,,2,"[0.5,0.5]","[0.707,0.707]",s,"[0.5275180218326913,0.5663881257791297]","[0.4724819781673088,0.4336118742208703]",242.611,244.809,1,s,1,0.671,,0.102977244,0.370345356,0.267368112,244.811,244.811,0,79,79,79,1,0.071848621,0.071848621,shape_difference3,1,,TRUE,,intensity,0.1,0.05,0.7,0.3,0.82,20,400,1E-11,3.5,0.01,0.5,0.1,,,,,,,,,,,,,,,,,,,,,,,,,,,,,,,,,,,,,,,,,,,,,,,,,,,,,,,,,,,,,,,,,,,,,,,,,,,,,,,,,
,,,,,501271,001,2025-03-14_15h23.42.123,Utility_discrimination_2024_2cat,2024.2.4,MacIntel,62.5,,,,,,,,4,"[0.5,0.5]","[0,1]",s,"[0.6626649873866979,0.6626649873866979]","[0.3373350126133021,0.3373350126133021]",244.811,246.775,1,d,1,0.439,,-0.082381221,0.304057329,0.386438549,246.776,246.776,0,80,80,80,1,0.230077776,0.230077776,shape_difference2,1,,TRUE,,intensity,0.1,0.05,0.7,0.3,0.82,20,400,1E-11,3.5,0.01,0.5,0.1,,,,,,,,,,,,,,,,,,,,,,,,,,,,,,,,,,,,,,,,,,,,,,,,,,,,,,,,,,,,,,,,,,,,,,,,,,,,,,,,,
,,,,,501271,001,2025-03-14_15h23.42.123,Utility_discrimination_2024_2cat,2024.2.4,MacIntel,62.5,,,,,,,,1,"[0.5,0.5]","[0.924,0.383]",d,"[0.5,0.5804044343306345]","[0.5,0.41959556566936557]",246.777,250.076,1,d,1,1.787,,-0.070868348,0.196035065,0.266903413,250.076,250.076,0,81,81,81,1,0.080404434,0.080404434,shape_difference4,1,,TRUE,,intensity,0.1,0.05,0.7,0.3,0.82,20,400,1E-11,3.5,0.01,0.5,0.1,,,,,,,,,,,,,,,,,,,,,,,,,,,,,,,,,,,,,,,,,,,,,,,,,,,,,,,,,,,,,,,,,,,,,,,,,,,,,,,,,
,,,,,501271,001,2025-03-14_15h23.42.123,Utility_discrimination_2024_2cat,2024.2.4,MacIntel,62.5,,,,,,,,0,"[0.5,0.5]","[1,0]",d,"[0.5689684432641097,0.5285875690153181]","[0.4310315567358904,0.47141243098468183]",250.077,252.293,0,d,0,0.705,,0.208749009,0.482120912,0.273371903,252.295,252.295,0,82,82,82,1,0.074641172,0.074641172,shape_difference1,1,,TRUE,,intensity,0.1,0.05,0.7,0.3,0.82,20,400,1E-11,3.5,0.01,0.5,0.1,,,,,,,,,,,,,,,,,,,,,,,,,,,,,,,,,,,,,,,,,,,,,,,,,,,,,,,,,,,,,,,,,,,,,,,,,,,,,,,,,
,,,,,501271,001,2025-03-14_15h23.42.123,Utility_discrimination_2024_2cat,2024.2.4,MacIntel,62.5,,,,,,,,3,"[0.5,0.5]","[0.383,0.924]",s,"[0.843527597559421,0.5]","[0.15647240244057908,0.5]",252.295,254.592,1,s,1,0.764,,-0.081276976,0.198831302,0.280108278,254.593,254.593,0,83,83,83,1,0.343527598,0.343527598,shape_difference0,1,,TRUE,,intensity,0.1,0.05,0.7,0.3,0.82,20,400,1E-11,3.5,0.01,0.5,0.1,,,,,,,,,,,,,,,,,,,,,,,,,,,,,,,,,,,,,,,,,,,,,,,,,,,,,,,,,,,,,,,,,,,,,,,,,,,,,,,,,
,,,,,501271,001,2025-03-14_15h23.42.123,Utility_discrimination_2024_2cat,2024.2.4,MacIntel,62.5,,,,,,,,0,"[0.5,0.5]","[1,0]",s,"[0.5243092279213506,0.5586468057423706]","[0.4756907720786494,0.4413531942576294]",254.594,256.976,1,d,1,0.872,,0.206405133,0.470246061,0.263840928,256.978,256.978,0,84,84,84,1,0.063470569,0.063470569,shape_difference3,1,,TRUE,,intensity,0.1,0.05,0.7,0.3,0.82,20,400,1E-11,3.5,0.01,0.5,0.1,,,,,,,,,,,,,,,,,,,,,,,,,,,,,,,,,,,,,,,,,,,,,,,,,,,,,,,,,,,,,,,,,,,,,,,,,,,,,,,,,
,,,,,501271,001,2025-03-14_15h23.42.123,Utility_discrimination_2024_2cat,2024.2.4,MacIntel,62.5,,,,,,,,4,"[0.5,0.5]","[0,1]",d,"[0.8337535680953649,0.5]","[0.166246431904635,0.5]",256.978,259.076,1,d,1,0.571,,-0.086211586,0.269111934,0.355323521,259.078,259.078,0,85,85,85,1,0.333753568,0.333753568,shape_difference0,1,,TRUE,,intensity,0.1,0.05,0.7,0.3,0.82,20,400,1E-11,3.5,0.01,0.5,0.1,,,,,,,,,,,,,,,,,,,,,,,,,,,,,,,,,,,,,,,,,,,,,,,,,,,,,,,,,,,,,,,,,,,,,,,,,,,,,,,,,
,,,,,501271,001,2025-03-14_15h23.42.123,Utility_discrimination_2024_2cat,2024.2.4,MacIntel,62.5,,,,,,,,1,"[0.5,0.5]","[0.924,0.383]",d,"[0.5,0.5674432124554712]","[0.5,0.43255678754452875]",259.079,261.326,0,d,0,0.721,,0.001964705,0.253538758,0.251574053,261.327,261.327,0,86,86,86,1,0.067443212,0.067443212,shape_difference4,1,,TRUE,,intensity,0.1,0.05,0.7,0.3,0.82,20,400,1E-11,3.5,0.01,0.5,0.1,,,,,,,,,,,,,,,,,,,,,,,,,,,,,,,,,,,,,,,,,,,,,,,,,,,,,,,,,,,,,,,,,,,,,,,,,,,,,,,,,
,,,,,501271,001,2025-03-14_15h23.42.123,Utility_discrimination_2024_2cat,2024.2.4,MacIntel,62.5,,,,,,,,2,"[0.5,0.5]","[0.707,0.707]",s,"[0.5995645390536575,0.5412697169454013]","[0.4004354609463425,0.4587302830545987]",261.327,263.792,1,d,1,0.938,,0.100443203,0.354556612,0.254113409,263.795,263.795,0,87,87,87,1,0.10775383,0.10775383,shape_difference1,1,,TRUE,,intensity,0.1,0.05,0.7,0.3,0.82,20,400,1E-11,3.5,0.01,0.5,0.1,,,,,,,,,,,,,,,,,,,,,,,,,,,,,,,,,,,,,,,,,,,,,,,,,,,,,,,,,,,,,,,,,,,,,,,,,,,,,,,,,
,,,,,501271,001,2025-03-14_15h23.42.123,Utility_discrimination_2024_2cat,2024.2.4,MacIntel,62.5,,,,,,,,3,"[0.5,0.5]","[0.383,0.924]",d,"[0.6541446321605124,0.6541446321605124]","[0.34585536783948756,0.34585536783948756]",263.795,266.959,1,d,1,1.638,,-0.084183617,0.188208957,0.272392574,266.961,266.961,0,88,88,88,1,0.218026354,0.218026354,shape_difference2,1,,TRUE,,intensity,0.1,0.05,0.7,0.3,0.82,20,400,1E-11,3.5,0.01,0.5,0.1,,,,,,,,,,,,,,,,,,,,,,,,,,,,,,,,,,,,,,,,,,,,,,,,,,,,,,,,,,,,,,,,,,,,,,,,,,,,,,,,,
,,,,,501271,001,2025-03-14_15h23.42.123,Utility_discrimination_2024_2cat,2024.2.4,MacIntel,62.5,,,,,,,,1,"[0.5,0.5]","[0.924,0.383]",d,"[0.5214470114817692,0.5517416151675058]","[0.47855298851823086,0.44825838483249425]",266.961,268.943,0,s,0,0.452,,5.24919E-05,0.230600361,0.230547869,268.945,268.945,0,89,89,89,1,0.055997419,0.055997419,shape_difference3,1,,TRUE,,intensity,0.1,0.05,0.7,0.3,0.82,20,400,1E-11,3.5,0.01,0.5,0.1,,,,,,,,,,,,,,,,,,,,,,,,,,,,,,,,,,,,,,,,,,,,,,,,,,,,,,,,,,,,,,,,,,,,,,,,,,,,,,,,,
,,,,,501271,001,2025-03-14_15h23.42.123,Utility_discrimination_2024_2cat,2024.2.4,MacIntel,62.5,,,,,,,,2,"[0.5,0.5]","[0.707,0.707]",d,"[0.5880556903835283,0.5364992742607049]","[0.41194430961647166,0.46350072573929507]",268.946,271.059,0,s,0,0.587,,0.08106677,0.334323975,0.253257205,271.06,271.06,0,90,90,90,1,0.095298366,0.095298366,shape_difference1,1,,TRUE,,intensity,0.1,0.05,0.7,0.3,0.82,20,400,1E-11,3.5,0.01,0.5,0.1,,,,,,,,,,,,,,,,,,,,,,,,,,,,,,,,,,,,,,,,,,,,,,,,,,,,,,,,,,,,,,,,,,,,,,,,,,,,,,,,,
,,,,,501271,001,2025-03-14_15h23.42.123,Utility_discrimination_2024_2cat,2024.2.4,MacIntel,62.5,,,,,,,,0,"[0.5,0.5]","[1,0]",d,"[0.6443463189769136,0.6443463189769136]","[0.35565368102308637,0.35565368102308637]",271.06,273.226,1,s,1,0.638,,0.204295394,0.455517362,0.251221968,273.227,273.227,0,91,91,91,1,0.204167354,0.204167354,shape_difference2,1,,TRUE,,intensity,0.1,0.05,0.7,0.3,0.82,20,400,1E-11,3.5,0.01,0.5,0.1,,,,,,,,,,,,,,,,,,,,,,,,,,,,,,,,,,,,,,,,,,,,,,,,,,,,,,,,,,,,,,,,,,,,,,,,,,,,,,,,,
,,,,,501271,001,2025-03-14_15h23.42.123,Utility_discrimination_2024_2cat,2024.2.4,MacIntel,62.5,,,,,,,,4,"[0.5,0.5]","[0,1]",s,"[0.8229052085663809,0.5]","[0.17709479143361906,0.5]",273.228,275.526,1,d,1,0.772,,-0.034330414,0.378858914,0.413189328,275.529,275.529,0,92,92,92,1,0.322905209,0.322905209,shape_difference0,1,,TRUE,,intensity,0.1,0.05,0.7,0.3,0.82,20,400,1E-11,3.5,0.01,0.5,0.1,,,,,,,,,,,,,,,,,,,,,,,,,,,,,,,,,,,,,,,,,,,,,,,,,,,,,,,,,,,,,,,,,,,,,,,,,,,,,,,,,
,,,,,501271,001,2025-03-14_15h23.42.123,Utility_discrimination_2024_2cat,2024.2.4,MacIntel,62.5,,,,,,,,3,"[0.5,0.5]","[0.383,0.924]",d,"[0.5,0.6274139698759285]","[0.5,0.3725860301240715]",275.53,277.809,1,d,1,0.757,,-0.042897131,0.259760813,0.302657943,277.811,277.811,0,93,93,93,1,0.12741397,0.12741397,shape_difference4,1,,TRUE,,intensity,0.1,0.05,0.7,0.3,0.82,20,400,1E-11,3.5,0.01,0.5,0.1,,,,,,,,,,,,,,,,,,,,,,,,,,,,,,,,,,,,,,,,,,,,,,,,,,,,,,,,,,,,,,,,,,,,,,,,,,,,,,,,,
,,,,,501271,001,2025-03-14_15h23.42.123,Utility_discrimination_2024_2cat,2024.2.4,MacIntel,62.5,,,,,,,,1,"[0.5,0.5]","[0.924,0.383]",d,"[0.5336461388772951,0.5811724081530565]","[0.46635386112270494,0.41882759184694357]",277.811,280.177,0,s,0,0.839,,0.008856139,0.274323921,0.265467782,280.178,280.178,0,94,94,94,1,0.087848927,0.087848927,shape_difference3,1,,TRUE,,intensity,0.1,0.05,0.7,0.3,0.82,20,400,1E-11,3.5,0.01,0.5,0.1,,,,,,,,,,,,,,,,,,,,,,,,,,,,,,,,,,,,,,,,,,,,,,,,,,,,,,,,,,,,,,,,,,,,,,,,,,,,,,,,,
,,,,,501271,001,2025-03-14_15h23.42.123,Utility_discrimination_2024_2cat,2024.2.4,MacIntel,62.5,,,,,,,,4,"[0.5,0.5]","[0,1]",d,"[0.6225704760625596,0.5508057276319916]","[0.37742952393744045,0.4491942723680083]",280.179,282.377,0,s,0,0.672,,-0.048865556,0.333192669,0.382058224,282.379,282.379,0,95,95,95,1,0.13265203,0.13265203,shape_difference1,1,,TRUE,,intensity,0.1,0.05,0.7,0.3,0.82,20,400,1E-11,3.5,0.01,0.5,0.1,,,,,,,,,,,,,,,,,,,,,,,,,,,,,,,,,,,,,,,,,,,,,,,,,,,,,,,,,,,,,,,,,,,,,,,,,,,,,,,,,
,,,,,501271,001,2025-03-14_15h23.42.123,Utility_discrimination_2024_2cat,2024.2.4,MacIntel,62.5,,,,,,,,0,"[0.5,0.5]","[1,0]",d,"[0.5,0.6045477146484302]","[0.5,0.3954522853515698]",282.379,285.01,1,d,1,1.101,,0.202323112,0.436779635,0.234456523,285.012,285.012,0,96,96,96,1,0.104547715,0.104547715,shape_difference4,1,,TRUE,,intensity,0.1,0.05,0.7,0.3,0.82,20,400,1E-11,3.5,0.01,0.5,0.1,,,,,,,,,,,,,,,,,,,,,,,,,,,,,,,,,,,,,,,,,,,,,,,,,,,,,,,,,,,,,,,,,,,,,,,,,,,,,,,,,
,,,,,501271,001,2025-03-14_15h23.42.123,Utility_discrimination_2024_2cat,2024.2.4,MacIntel,62.5,,,,,,,,2,"[0.5,0.5]","[0.707,0.707]",d,"[0.8105662397586713,0.5]","[0.18943376024132874,0.5]",285.013,287.593,1,s,1,1.052,,0.063246899,0.307794194,0.244547294,287.594,287.594,0,97,97,97,1,0.31056624,0.31056624,shape_difference0,1,,TRUE,,intensity,0.1,0.05,0.7,0.3,0.82,20,400,1E-11,3.5,0.01,0.5,0.1,,,,,,,,,,,,,,,,,,,,,,,,,,,,,,,,,,,,,,,,,,,,,,,,,,,,,,,,,,,,,,,,,,,,,,,,,,,,,,,,,
,,,,,501271,001,2025-03-14_15h23.42.123,Utility_discrimination_2024_2cat,2024.2.4,MacIntel,62.5,,,,,,,,3,"[0.5,0.5]","[0.383,0.924]",s,"[0.6364761621088486,0.6364761621088486]","[0.36352383789115145,0.36352383789115145]",287.595,289.827,1,s,1,0.702,,0.006443736,0.319172056,0.31272832,289.828,289.828,0,98,98,98,1,0.19303559,0.19303559,shape_difference2,1,,TRUE,,intensity,0.1,0.05,0.7,0.3,0.82,20,400,1E-11,3.5,0.01,0.5,0.1,,,,,,,,,,,,,,,,,,,,,,,,,,,,,,,,,,,,,,,,,,,,,,,,,,,,,,,,,,,,,,,,,,,,,,,,,,,,,,,,,
,,,,,501271,001,2025-03-14_15h23.42.123,Utility_discrimination_2024_2cat,2024.2.4,MacIntel,62.5,,,,,,,,3,"[0.5,0.5]","[0.383,0.924]",s,"[0.5501476288614616,0.6209827913002363]","[0.44985237113853843,0.3790172086997637]",289.829,292.277,1,d,1,0.92,,0.004598898,0.288938923,0.284340025,292.279,292.279,0,99,99,99,1,0.130933757,0.130933757,shape_difference3,1,,TRUE,,intensity,0.1,0.05,0.7,0.3,0.82,20,400,1E-11,3.5,0.01,0.5,0.1,,,,,,,,,,,,,,,,,,,,,,,,,,,,,,,,,,,,,,,,,,,,,,,,,,,,,,,,,,,,,,,,,,,,,,,,,,,,,,,,,
,,,,,501271,001,2025-03-14_15h23.42.123,Utility_discrimination_2024_2cat,2024.2.4,MacIntel,62.5,,,,,,,,0,"[0.5,0.5]","[1,0]",d,"[0.5441819073827122,0.6065902935290498]","[0.4558180926172878,0.3934097064709502]",292.279,294.76,0,d,0,0.955,,0.20040888,0.412427611,0.212018731,294.762,294.762,0,100,100,100,1,0.115357461,0.115357461,shape_difference3,1,,TRUE,,intensity,0.1,0.05,0.7,0.3,0.82,20,400,1E-11,3.5,0.01,0.5,0.1,,,,,,,,,,,,,,,,,,,,,,,,,,,,,,,,,,,,,,,,,,,,,,,,,,,,,,,,,,,,,,,,,,,,,,,,,,,,,,,,,
,,,,,501271,001,2025-03-14_15h23.42.123,Utility_discrimination_2024_2cat,2024.2.4,MacIntel,62.5,,,,,,,,1,"[0.5,0.5]","[0.924,0.383]",s,"[0.7976914348861797,0.5]","[0.20230856511382028,0.5]",294.762,297.91,1,d,1,1.62,,0.016165202,0.296862832,0.28069763,297.912,297.912,0,101,101,101,1,0.297691435,0.297691435,shape_difference0,1,,TRUE,,intensity,0.1,0.05,0.7,0.3,0.82,20,400,1E-11,3.5,0.01,0.5,0.1,,,,,,,,,,,,,,,,,,,,,,,,,,,,,,,,,,,,,,,,,,,,,,,,,,,,,,,,,,,,,,,,,,,,,,,,,,,,,,,,,
,,,,,501271,001,2025-03-14_15h23.42.123,Utility_discrimination_2024_2cat,2024.2.4,MacIntel,62.5,,,,,,,,2,"[0.5,0.5]","[0.707,0.707]",d,"[0.6449977045718152,0.5601018623928627]","[0.3550022954281849,0.43989813760713725]",297.913,300.26,1,s,1,0.822,,0.049611008,0.296584391,0.246973383,300.262,300.262,0,102,102,102,1,0.156923923,0.156923923,shape_difference1,1,,TRUE,,intensity,0.1,0.05,0.7,0.3,0.82,20,400,1E-11,3.5,0.01,0.5,0.1,,,,,,,,,,,,,,,,,,,,,,,,,,,,,,,,,,,,,,,,,,,,,,,,,,,,,,,,,,,,,,,,,,,,,,,,,,,,,,,,,
,,,,,501271,001,2025-03-14_15h23.42.123,Utility_discrimination_2024_2cat,2024.2.4,MacIntel,62.5,,,,,,,,4,"[0.5,0.5]","[0,1]",s,"[0.6307035964797427,0.6307035964797427]","[0.3692964035202573,0.3692964035202573]",300.263,302.761,0,d,0,0.973,,-0.059256355,0.289277936,0.34853429,302.762,302.762,0,103,103,103,1,0.184870716,0.184870716,shape_difference2,1,,TRUE,,intensity,0.1,0.05,0.7,0.3,0.82,20,400,1E-11,3.5,0.01,0.5,0.1,,,,,,,,,,,,,,,,,,,,,,,,,,,,,,,,,,,,,,,,,,,,,,,,,,,,,,,,,,,,,,,,,,,,,,,,,,,,,,,,,
,,,,,501271,001,2025-03-14_15h23.42.123,Utility_discrimination_2024_2cat,2024.2.4,MacIntel,62.5,,,,,,,,2,"[0.5,0.5]","[0.707,0.707]",s,"[0.5,0.5900606916471617]","[0.5,0.4099393083528383]",302.763,305.16,0,s,0,0.872,,0.105944661,0.342548679,0.236604018,305.161,305.161,0,104,104,104,1,0.090060692,0.090060692,shape_difference4,1,,TRUE,,intensity,0.1,0.05,0.7,0.3,0.82,20,400,1E-11,3.5,0.01,0.5,0.1,,,,,,,,,,,,,,,,,,,,,,,,,,,,,,,,,,,,,,,,,,,,,,,,,,,,,,,,,,,,,,,,,,,,,,,,,,,,,,,,,
,,,,,501271,001,2025-03-14_15h23.42.123,Utility_discrimination_2024_2cat,2024.2.4,MacIntel,62.5,,,,,,,,4,"[0.5,0.5]","[0,1]",d,"[0.655188373953207,0.655188373953207]","[0.344811626046793,0.344811626046793]",305.161,307.377,1,s,1,0.692,,0.005281312,0.381324903,0.376043591,307.379,307.379,0,105,105,105,1,0.219502651,0.219502651,shape_difference2,1,,TRUE,,intensity,0.1,0.05,0.7,0.3,0.82,20,400,1E-11,3.5,0.01,0.5,0.1,,,,,,,,,,,,,,,,,,,,,,,,,,,,,,,,,,,,,,,,,,,,,,,,,,,,,,,,,,,,,,,,,,,,,,,,,,,,,,,,,
,,,,,501271,001,2025-03-14_15h23.42.123,Utility_discrimination_2024_2cat,2024.2.4,MacIntel,62.5,,,,,,,,0,"[0.5,0.5]","[1,0]",s,"[0.5,0.6431185123387422]","[0.5,0.35688148766125777]",307.379,309.728,1,d,1,0.831,,0.184362084,0.397595477,0.213233393,309.73,309.73,0,106,106,106,1,0.143118512,0.143118512,shape_difference4,1,,TRUE,,intensity,0.1,0.05,0.7,0.3,0.82,20,400,1E-11,3.5,0.01,0.5,0.1,,,,,,,,,,,,,,,,,,,,,,,,,,,,,,,,,,,,,,,,,,,,,,,,,,,,,,,,,,,,,,,,,,,,,,,,,,,,,,,,,
,,,,,501271,001,2025-03-14_15h23.42.123,Utility_discrimination_2024_2cat,2024.2.4,MacIntel,62.5,,,,,,,,3,"[0.5,0.5]","[0.383,0.924]",d,"[0.7894105346561204,0.5]","[0.21058946534387957,0.5]",309.731,311.944,1,s,1,0.688,,0.012266767,0.358701078,0.346434311,311.944,311.944,0,107,107,107,1,0.289410535,0.289410535,shape_difference0,1,,TRUE,,intensity,0.1,0.05,0.7,0.3,0.82,20,400,1E-11,3.5,0.01,0.5,0.1,,,,,,,,,,,,,,,,,,,,,,,,,,,,,,,,,,,,,,,,,,,,,,,,,,,,,,,,,,,,,,,,,,,,,,,,,,,,,,,,,
,,,,,501271,001,2025-03-14_15h23.42.123,Utility_discrimination_2024_2cat,2024.2.4,MacIntel,62.5,,,,,,,,1,"[0.5,0.5]","[0.924,0.383]",s,"[0.5584912385107009,0.6411120218900461]","[0.4415087614892991,0.3588879781099539]",311.945,314.228,1,d,1,0.758,,0.013995297,0.284455421,0.270460123,314.229,314.229,0,108,108,108,1,0.152718638,0.152718638,shape_difference3,1,,TRUE,,intensity,0.1,0.05,0.7,0.3,0.82,20,400,1E-11,3.5,0.01,0.5,0.1,,,,,,,,,,,,,,,,,,,,,,,,,,,,,,,,,,,,,,,,,,,,,,,,,,,,,,,,,,,,,,,,,,,,,,,,,,,,,,,,,
,,,,,501271,001,2025-03-14_15h23.42.123,Utility_discrimination_2024_2cat,2024.2.4,MacIntel,62.5,,,,,,,,2,"[0.5,0.5]","[0.707,0.707]",d,"[0.6376135619986636,0.5570411193132989]","[0.3623864380013364,0.44295888068670114]",314.23,316.444,1,d,1,0.687,,0.104382176,0.320825317,0.216443141,316.446,316.447,0,109,109,109,1,0.148932426,0.148932426,shape_difference1,1,,TRUE,,intensity,0.1,0.05,0.7,0.3,0.82,20,400,1E-11,3.5,0.01,0.5,0.1,,,,,,,,,,,,,,,,,,,,,,,,,,,,,,,,,,,,,,,,,,,,,,,,,,,,,,,,,,,,,,,,,,,,,,,,,,,,,,,,,
,,,,,501271,001,2025-03-14_15h23.42.123,Utility_discrimination_2024_2cat,2024.2.4,MacIntel,62.5,,,,,,,,0,"[0.5,0.5]","[1,0]",d,"[0.6466374847518579,0.6466374847518579]","[0.35336251524814216,0.35336251524814216]",316.447,318.594,1,s,1,0.621,,0.168605793,0.393363577,0.224757784,318.596,318.596,0,110,110,110,1,0.207408041,0.207408041,shape_difference2,1,,TRUE,,intensity,0.1,0.05,0.7,0.3,0.82,20,400,1E-11,3.5,0.01,0.5,0.1,,,,,,,,,,,,,,,,,,,,,,,,,,,,,,,,,,,,,,,,,,,,,,,,,,,,,,,,,,,,,,,,,,,,,,,,,,,,,,,,,
,,,,,501271,001,2025-03-14_15h23.42.123,Utility_discrimination_2024_2cat,2024.2.4,MacIntel,62.5,,,,,,,,4,"[0.5,0.5]","[0,1]",s,"[0.7825385394063815,0.5]","[0.21746146059361848,0.5]",318.596,320.961,1,s,1,0.839,,0.002788221,0.341775591,0.33898737,320.963,320.963,0,111,111,111,1,0.282538539,0.282538539,shape_difference0,1,,TRUE,,intensity,0.1,0.05,0.7,0.3,0.82,20,400,1E-11,3.5,0.01,0.5,0.1,,,,,,,,,,,,,,,,,,,,,,,,,,,,,,,,,,,,,,,,,,,,,,,,,,,,,,,,,,,,,,,,,,,,,,,,,,,,,,,,,
,,,,,501271,001,2025-03-14_15h23.42.123,Utility_discrimination_2024_2cat,2024.2.4,MacIntel,62.5,,,,,,,,1,"[0.5,0.5]","[0.924,0.383]",s,"[0.5,0.6257423203564116]","[0.5,0.37425767964358836]",320.964,323.212,1,s,1,0.726,,0.011980887,0.273169695,0.261188808,323.213,323.213,0,112,112,112,1,0.12574232,0.12574232,shape_difference4,1,,TRUE,,intensity,0.1,0.05,0.7,0.3,0.82,20,400,1E-11,3.5,0.01,0.5,0.1,,,,,,,,,,,,,,,,,,,,,,,,,,,,,,,,,,,,,,,,,,,,,,,,,,,,,,,,,,,,,,,,,,,,,,,,,,,,,,,,,
,,,,,501271,001,2025-03-14_15h23.42.123,Utility_discrimination_2024_2cat,2024.2.4,MacIntel,62.5,,,,,,,,3,"[0.5,0.5]","[0.383,0.924]",s,"[0.630085410393808,0.5539206841783858]","[0.3699145896061919,0.4460793158216142]",323.213,325.611,0,s,0,0.87,,0.010486553,0.304640982,0.294154429,325.613,325.613,0,113,113,113,1,0.140785076,0.140785076,shape_difference1,1,,TRUE,,intensity,0.1,0.05,0.7,0.3,0.82,20,400,1E-11,3.5,0.01,0.5,0.1,,,,,,,,,,,,,,,,,,,,,,,,,,,,,,,,,,,,,,,,,,,,,,,,,,,,,,,,,,,,,,,,,,,,,,,,,,,,,,,,,
,,,,,501271,001,2025-03-14_15h23.42.123,Utility_discrimination_2024_2cat,2024.2.4,MacIntel,62.5,,,,,,,,4,"[0.5,0.5]","[0,1]",d,"[0.5538930920407017,0.6300188434611184]","[0.44610690795929836,0.36998115653888164]",325.614,327.744,1,d,1,0.608,,0.000508687,0.295887239,0.295378553,327.745,327.745,0,114,114,114,1,0.140713034,0.140713034,shape_difference3,1,,TRUE,,intensity,0.1,0.05,0.7,0.3,0.82,20,400,1E-11,3.5,0.01,0.5,0.1,,,,,,,,,,,,,,,,,,,,,,,,,,,,,,,,,,,,,,,,,,,,,,,,,,,,,,,,,,,,,,,,,,,,,,,,,,,,,,,,,
,,,,,501271,001,2025-03-14_15h23.42.123,Utility_discrimination_2024_2cat,2024.2.4,MacIntel,62.5,,,,,,,,0,"[0.5,0.5]","[1,0]",d,"[0.5,0.6070912436411036]","[0.5,0.3929087563588965]",327.745,330.011,1,d,1,0.735,,0.156339302,0.388889001,0.232549699,330.013,330.013,0,115,115,115,1,0.107091244,0.107091244,shape_difference4,1,,TRUE,,intensity,0.1,0.05,0.7,0.3,0.82,20,400,1E-11,3.5,0.01,0.5,0.1,,,,,,,,,,,,,,,,,,,,,,,,,,,,,,,,,,,,,,,,,,,,,,,,,,,,,,,,,,,,,,,,,,,,,,,,,,,,,,,,,
,,,,,501271,001,2025-03-14_15h23.42.123,Utility_discrimination_2024_2cat,2024.2.4,MacIntel,62.5,,,,,,,,2,"[0.5,0.5]","[0.707,0.707]",d,"[0.7767520387076076,0.5]","[0.22324796129239244,0.5]",330.014,332.945,1,s,1,1.409,,0.102905254,0.299100134,0.19619488,332.946,332.946,0,116,116,116,1,0.276752039,0.276752039,shape_difference0,1,,TRUE,,intensity,0.1,0.05,0.7,0.3,0.82,20,400,1E-11,3.5,0.01,0.5,0.1,,,,,,,,,,,,,,,,,,,,,,,,,,,,,,,,,,,,,,,,,,,,,,,,,,,,,,,,,,,,,,,,,,,,,,,,,,,,,,,,,
,,,,,501271,001,2025-03-14_15h23.42.123,Utility_discrimination_2024_2cat,2024.2.4,MacIntel,62.5,,,,,,,,1,"[0.5,0.5]","[0.924,0.383]",s,"[0.6386283962170443,0.6386283962170443]","[0.3613716037829557,0.3613716037829557]",332.947,335.161,1,d,1,0.685,,0.019468639,0.29311585,0.273647211,335.162,335.162,0,117,117,117,1,0.196079768,0.196079768,shape_difference2,1,,TRUE,,intensity,0.1,0.05,0.7,0.3,0.82,20,400,1E-11,3.5,0.01,0.5,0.1,,,,,,,,,,,,,,,,,,,,,,,,,,,,,,,,,,,,,,,,,,,,,,,,,,,,,,,,,,,,,,,,,,,,,,,,,,,,,,,,,
,,,,,501271,001,2025-03-14_15h23.42.123,Utility_discrimination_2024_2cat,2024.2.4,MacIntel,62.5,,,,,,,,3,"[0.5,0.5]","[0.383,0.924]",d,"[0.6478165596352183,0.5612702839180612]","[0.3521834403647817,0.4387297160819387]",335.162,337.528,1,d,1,0.837,,0.008824508,0.286674875,0.277850367,337.528,337.528,0,118,118,118,1,0.159974632,0.159974632,shape_difference1,1,,TRUE,,intensity,0.1,0.05,0.7,0.3,0.82,20,400,1E-11,3.5,0.01,0.5,0.1,,,,,,,,,,,,,,,,,,,,,,,,,,,,,,,,,,,,,,,,,,,,,,,,,,,,,,,,,,,,,,,,,,,,,,,,,,,,,,,,,
,,,,,501271,001,2025-03-14_15h23.42.123,Utility_discrimination_2024_2cat,2024.2.4,MacIntel,62.5,,,,,,,,1,"[0.5,0.5]","[0.924,0.383]",d,"[0.5492478776665355,0.6188121121772292]","[0.4507521223334645,0.3811878878227708]",337.529,339.795,1,d,1,0.755,,0.016872841,0.281816753,0.264943913,339.795,339.795,0,119,119,119,1,0.128584537,0.128584537,shape_difference3,1,,TRUE,,intensity,0.1,0.05,0.7,0.3,0.82,20,400,1E-11,3.5,0.01,0.5,0.1,,,,,,,,,,,,,,,,,,,,,,,,,,,,,,,,,,,,,,,,,,,,,,,,,,,,,,,,,,,,,,,,,,,,,,,,,,,,,,,,,
,,,,,501271,001,2025-03-14_15h23.42.123,Utility_discrimination_2024_2cat,2024.2.4,MacIntel,62.5,,,,,,,,3,"[0.5,0.5]","[0.383,0.924]",d,"[0.6416408978834287,0.5587104587547113]","[0.35835910211657135,0.4412895412452888]",339.796,341.978,1,s,1,0.672,,0.007446583,0.269298811,0.261852228,341.978,341.978,0,120,120,120,1,0.153291015,0.153291015,shape_difference1,1,,TRUE,,intensity,0.1,0.05,0.7,0.3,0.82,20,400,1E-11,3.5,0.01,0.5,0.1,,,,,,,,,,,,,,,,,,,,,,,,,,,,,,,,,,,,,,,,,,,,,,,,,,,,,,,,,,,,,,,,,,,,,,,,,,,,,,,,,
,,,,,501271,001,2025-03-14_15h23.42.123,Utility_discrimination_2024_2cat,2024.2.4,MacIntel,62.5,,,,,,,,4,"[0.5,0.5]","[0,1]",s,"[0.5441954308293899,0.6066229192855256]","[0.4558045691706101,0.3933770807144744]",341.979,344.145,1,d,1,0.638,,-0.016046391,0.273638223,0.289684613,344.147,344.147,0,121,121,121,1,0.11539277,0.11539277,shape_difference3,1,,TRUE,,intensity,0.1,0.05,0.7,0.3,0.82,20,400,1E-11,3.5,0.01,0.5,0.1,,,,,,,,,,,,,,,,,,,,,,,,,,,,,,,,,,,,,,,,,,,,,,,,,,,,,,,,,,,,,,,,,,,,,,,,,,,,,,,,,
,,,,,501271,001,2025-03-14_15h23.42.123,Utility_discrimination_2024_2cat,2024.2.4,MacIntel,62.5,,,,,,,,0,"[0.5,0.5]","[1,0]",d,"[0.5,0.5933966730197057]","[0.5,0.40660332698029433]",344.147,346.412,1,d,1,0.735,,0.14666765,0.383994276,0.237326625,346.413,346.413,0,122,122,122,1,0.093396673,0.093396673,shape_difference4,1,,TRUE,,intensity,0.1,0.05,0.7,0.3,0.82,20,400,1E-11,3.5,0.01,0.5,0.1,,,,,,,,,,,,,,,,,,,,,,,,,,,,,,,,,,,,,,,,,,,,,,,,,,,,,,,,,,,,,,,,,,,,,,,,,,,,,,,,,
,,,,,501271,001,2025-03-14_15h23.42.123,Utility_discrimination_2024_2cat,2024.2.4,MacIntel,62.5,,,,,,,,2,"[0.5,0.5]","[0.707,0.707]",d,"[0.7717954966652911,0.5]","[0.22820450333470887,0.5]",346.414,348.578,1,d,1,0.638,,0.101459815,0.295330014,0.193870198,348.579,348.579,0,123,123,123,1,0.271795497,0.271795497,shape_difference0,1,,TRUE,,intensity,0.1,0.05,0.7,0.3,0.82,20,400,1E-11,3.5,0.01,0.5,0.1,,,,,,,,,,,,,,,,,,,,,,,,,,,,,,,,,,,,,,,,,,,,,,,,,,,,,,,,,,,,,,,,,,,,,,,,,,,,,,,,,
,,,,,501271,001,2025-03-14_15h23.42.123,Utility_discrimination_2024_2cat,2024.2.4,MacIntel,62.5,,,,,,,,4,"[0.5,0.5]","[0,1]",d,"[0.6333345435183854,0.6333345435183854]","[0.36666545648161464,0.36666545648161464]",348.58,351.278,1,d,1,1.173,,-0.032083813,0.245919894,0.278003707,351.28,351.28,0,124,124,124,1,0.188591999,0.188591999,shape_difference2,1,,TRUE,,intensity,0.1,0.05,0.7,0.3,0.82,20,400,1E-11,3.5,0.01,0.5,0.1,,,,,,,,,,,,,,,,,,,,,,,,,,,,,,,,,,,,,,,,,,,,,,,,,,,,,,,,,,,,,,,,,,,,,,,,,,,,,,,,,
,,,,,501271,001,2025-03-14_15h23.42.123,Utility_discrimination_2024_2cat,2024.2.4,MacIntel,62.5,,,,,,,,2,"[0.5,0.5]","[0.707,0.707]",d,"[0.5,0.5849148874557784]","[0.5,0.4150851125442216]",351.281,353.812,1,s,1,1.007,,0.099979002,0.291433895,0.191454892,353.814,353.814,0,125,125,125,1,0.084914887,0.084914887,shape_difference4,1,,TRUE,,intensity,0.1,0.05,0.7,0.3,0.82,20,400,1E-11,3.5,0.01,0.5,0.1,,,,,,,,,,,,,,,,,,,,,,,,,,,,,,,,,,,,,,,,,,,,,,,,,,,,,,,,,,,,,,,,,,,,,,,,,,,,,,,,,
,,,,,501271,001,2025-03-14_15h23.42.123,Utility_discrimination_2024_2cat,2024.2.4,MacIntel,62.5,,,,,,,,1,"[0.5,0.5]","[0.924,0.383]",s,"[0.6289554245478967,0.6289554245478967]","[0.37104457545210334,0.37104457545210334]",353.814,356.045,1,d,1,0.705,,0.014817289,0.269189129,0.25437184,356.047,356.047,0,126,126,126,1,0.182398055,0.182398055,shape_difference2,1,,TRUE,,intensity,0.1,0.05,0.7,0.3,0.82,20,400,1E-11,3.5,0.01,0.5,0.1,,,,,,,,,,,,,,,,,,,,,,,,,,,,,,,,,,,,,,,,,,,,,,,,,,,,,,,,,,,,,,,,,,,,,,,,,,,,,,,,,
,,,,,501271,001,2025-03-14_15h23.42.123,Utility_discrimination_2024_2cat,2024.2.4,MacIntel,62.5,,,,,,,,0,"[0.5,0.5]","[1,0]",d,"[0.6358024228090351,0.5562903981989832]","[0.3641975771909649,0.4437096018010168]",356.048,358.245,1,d,1,0.675,,0.138948722,0.378472711,0.239523989,358.247,358.247,0,127,127,127,1,0.146972319,0.146972319,shape_difference1,1,,TRUE,,intensity,0.1,0.05,0.7,0.3,0.82,20,400,1E-11,3.5,0.01,0.5,0.1,,,,,,,,,,,,,,,,,,,,,,,,,,,,,,,,,,,,,,,,,,,,,,,,,,,,,,,,,,,,,,,,,,,,,,,,,,,,,,,,,
,,,,,501271,001,2025-03-14_15h23.42.123,Utility_discrimination_2024_2cat,2024.2.4,MacIntel,62.5,,,,,,,,3,"[0.5,0.5]","[0.383,0.924]",d,"[0.7674637252840584,0.5]","[0.23253627471594168,0.5]",358.248,360.445,1,d,1,0.673,,0.006267994,0.247917958,0.241649963,360.447,360.447,0,128,128,128,1,0.267463725,0.267463725,shape_difference0,1,,TRUE,,intensity,0.1,0.05,0.7,0.3,0.82,20,400,1E-11,3.5,0.01,0.5,0.1,,,,,,,,,,,,,,,,,,,,,,,,,,,,,,,,,,,,,,,,,,,,,,,,,,,,,,,,,,,,,,,,,,,,,,,,,,,,,,,,,
,,,,,501271,001,2025-03-14_15h23.42.123,Utility_discrimination_2024_2cat,2024.2.4,MacIntel,62.5,,,,,,,,1,"[0.5,0.5]","[0.924,0.383]",d,"[0.5385518853260044,0.5930076815697862]","[0.46144811467399555,0.40699231843021383]",360.448,363.262,1,s,1,1.289,,0.012877427,0.256795322,0.243917895,363.264,363.264,0,129,129,129,1,0.100657664,0.100657664,shape_difference3,1,,TRUE,,intensity,0.1,0.05,0.7,0.3,0.82,20,400,1E-11,3.5,0.01,0.5,0.1,,,,,,,,,,,,,,,,,,,,,,,,,,,,,,,,,,,,,,,,,,,,,,,,,,,,,,,,,,,,,,,,,,,,,,,,,,,,,,,,,
,,,,,501271,001,2025-03-14_15h23.42.123,Utility_discrimination_2024_2cat,2024.2.4,MacIntel,62.5,,,,,,,,4,"[0.5,0.5]","[0,1]",s,"[0.6294950166358493,0.5536759646878033]","[0.3705049833641507,0.44632403531219667]",363.265,365.529,1,d,1,0.738,,-0.044197832,0.210197898,0.25439573,365.53,365.53,0,130,130,130,1,0.140146122,0.140146122,shape_difference1,1,,TRUE,,intensity,0.1,0.05,0.7,0.3,0.82,20,400,1E-11,3.5,0.01,0.5,0.1,,,,,,,,,,,,,,,,,,,,,,,,,,,,,,,,,,,,,,,,,,,,,,,,,,,,,,,,,,,,,,,,,,,,,,,,,,,,,,,,,
,,,,,501271,001,2025-03-14_15h23.42.123,Utility_discrimination_2024_2cat,2024.2.4,MacIntel,62.5,,,,,,,,3,"[0.5,0.5]","[0.383,0.924]",d,"[0.5,0.5780644804157931]","[0.5,0.421935519584207]",365.531,367.862,1,s,1,0.806,,0.005224656,0.220858598,0.215633943,367.864,367.864,0,131,131,131,1,0.07806448,0.07806448,shape_difference4,1,,TRUE,,intensity,0.1,0.05,0.7,0.3,0.82,20,400,1E-11,3.5,0.01,0.5,0.1,,,,,,,,,,,,,,,,,,,,,,,,,,,,,,,,,,,,,,,,,,,,,,,,,,,,,,,,,,,,,,,,,,,,,,,,,,,,,,,,,
,,,,,501271,001,2025-03-14_15h23.42.123,Utility_discrimination_2024_2cat,2024.2.4,MacIntel,62.5,,,,,,,,0,"[0.5,0.5]","[1,0]",s,"[0.5352923676650523,0.5851439888316144]","[0.4647076323349477,0.41485601116838555]",367.865,370.029,1,d,1,0.644,,0.132716737,0.372075735,0.239358998,370.031,370.031,0,132,132,132,1,0.092147174,0.092147174,shape_difference3,1,,TRUE,,intensity,0.1,0.05,0.7,0.3,0.82,20,400,1E-11,3.5,0.01,0.5,0.1,,,,,,,,,,,,,,,,,,,,,,,,,,,,,,,,,,,,,,,,,,,,,,,,,,,,,,,,,,,,,,,,,,,,,,,,,,,,,,,,,
,,,,,501271,001,2025-03-14_15h23.42.123,Utility_discrimination_2024_2cat,2024.2.4,MacIntel,62.5,,,,,,,,2,"[0.5,0.5]","[0.707,0.707]",d,"[0.7635888661501511,0.5]","[0.2364111338498489,0.5]",370.031,372.195,1,d,1,0.642,,0.082445545,0.287272376,0.204826831,372.197,372.197,0,133,133,133,1,0.263588866,0.263588866,shape_difference0,1,,TRUE,,intensity,0.1,0.05,0.7,0.3,0.82,20,400,1E-11,3.5,0.01,0.5,0.1,,,,,,,,,,,,,,,,,,,,,,,,,,,,,,,,,,,,,,,,,,,,,,,,,,,,,,,,,,,,,,,,,,,,,,,,,,,,,,,,,
,,,,,501271,001,2025-03-14_15h23.42.123,Utility_discrimination_2024_2cat,2024.2.4,MacIntel,62.5,,,,,,,,1,"[0.5,0.5]","[0.924,0.383]",d,"[0.6252916335911494,0.6252916335911494]","[0.3747083664088507,0.3747083664088507]",372.198,388.597,1,s,1,14.876,,0.011310674,0.241458543,0.230147869,388.598,388.598,0,134,134,134,1,0.177215889,0.177215889,shape_difference2,1,,TRUE,,intensity,0.1,0.05,0.7,0.3,0.82,20,400,1E-11,3.5,0.01,0.5,0.1,,,,,,,,,,,,,,,,,,,,,,,,,,,,,,,,,,,,,,,,,,,,,,,,,,,,,,,,,,,,,,,,,,,,,,,,,,,,,,,,,
,,,,,501271,001,2025-03-14_15h23.42.123,Utility_discrimination_2024_2cat,2024.2.4,MacIntel,62.5,,,,,,,,4,"[0.5,0.5]","[0,1]",s,"[0.6225394615508633,0.5507928720497626]","[0.37746053844913674,0.44920712795023743]",388.599,391.098,1,d,1,0.977,,-0.053515049,0.194279446,0.247794495,391.099,391.099,0,135,135,135,1,0.132618465,0.132618465,shape_difference1,1,,TRUE,,intensity,0.1,0.05,0.7,0.3,0.82,20,400,1E-11,3.5,0.01,0.5,0.1,,,,,,,,,,,,,,,,,,,,,,,,,,,,,,,,,,,,,,,,,,,,,,,,,,,,,,,,,,,,,,,,,,,,,,,,,,,,,,,,,
,,,,,501271,001,2025-03-14_15h23.42.123,Utility_discrimination_2024_2cat,2024.2.4,MacIntel,62.5,,,,,,,,2,"[0.5,0.5]","[0.707,0.707]",d,"[0.5,0.5724034581442027]","[0.5,0.4275965418557973]",391.099,393.479,0,d,0,0.854,,0.068581926,0.282689473,0.214107547,393.481,393.481,0,136,136,136,1,0.072403458,0.072403458,shape_difference4,1,,TRUE,,intensity,0.1,0.05,0.7,0.3,0.82,20,400,1E-11,3.5,0.01,0.5,0.1,,,,,,,,,,,,,,,,,,,,,,,,,,,,,,,,,,,,,,,,,,,,,,,,,,,,,,,,,,,,,,,,,,,,,,,,,,,,,,,,,
,,,,,501271,001,2025-03-14_15h23.42.123,Utility_discrimination_2024_2cat,2024.2.4,MacIntel,62.5,,,,,,,,3,"[0.5,0.5]","[0.383,0.924]",s,"[0.6221851936567552,0.6221851936567552]","[0.3778148063432448,0.3778148063432448]",393.482,395.812,1,s,1,0.802,,0.004266731,0.198133205,0.193866475,395.814,395.814,0,137,137,137,1,0.172822056,0.172822056,shape_difference2,1,,TRUE,,intensity,0.1,0.05,0.7,0.3,0.82,20,400,1E-11,3.5,0.01,0.5,0.1,,,,,,,,,,,,,,,,,,,,,,,,,,,,,,,,,,,,,,,,,,,,,,,,,,,,,,,,,,,,,,,,,,,,,,,,,,,,,,,,,
,,,,,501271,001,2025-03-14_15h23.42.123,Utility_discrimination_2024_2cat,2024.2.4,MacIntel,62.5,,,,,,,,0,"[0.5,0.5]","[1,0]",s,"[0.5327638031717313,0.5790437444665266]","[0.4672361968282687,0.4209562555334733]",395.814,397.88,1,s,1,0.535,,0.127630078,0.364496657,0.236866579,397.882,397.882,0,138,138,138,1,0.085545178,0.085545178,shape_difference3,1,,TRUE,,intensity,0.1,0.05,0.7,0.3,0.82,20,400,1E-11,3.5,0.01,0.5,0.1,,,,,,,,,,,,,,,,,,,,,,,,,,,,,,,,,,,,,,,,,,,,,,,,,,,,,,,,,,,,,,,,,,,,,,,,,,,,,,,,,
,,,,,501271,001,2025-03-14_15h23.42.123,Utility_discrimination_2024_2cat,2024.2.4,MacIntel,62.5,,,,,,,,2,"[0.5,0.5]","[0.707,0.707]",s,"[0.7600305854172618,0.5]","[0.23996941458273824,0.5]",397.882,400.096,1,d,1,0.688,,0.057498005,0.277504505,0.2200065,400.097,400.097,0,139,139,139,1,0.260030585,0.260030585,shape_difference0,1,,TRUE,,intensity,0.1,0.05,0.7,0.3,0.82,20,400,1E-11,3.5,0.01,0.5,0.1,,,,,,,,,,,,,,,,,,,,,,,,,,,,,,,,,,,,,,,,,,,,,,,,,,,,,,,,,,,,,,,,,,,,,,,,,,,,,,,,,
,,,,,501271,001,2025-03-14_15h23.42.123,Utility_discrimination_2024_2cat,2024.2.4,MacIntel,62.5,,,,,,,,3,"[0.5,0.5]","[0.383,0.924]",d,"[0.6195092692279802,0.6195092692279802]","[0.3804907307720198,0.3804907307720198]",400.097,402.28,1,d,1,0.655,,0.003354124,0.19311399,0.189759866,402.281,402.281,0,140,140,140,1,0.169037156,0.169037156,shape_difference2,1,,TRUE,,intensity,0.1,0.05,0.7,0.3,0.82,20,400,1E-11,3.5,0.01,0.5,0.1,,,,,,,,,,,,,,,,,,,,,,,,,,,,,,,,,,,,,,,,,,,,,,,,,,,,,,,,,,,,,,,,,,,,,,,,,,,,,,,,,
,,,,,501271,001,2025-03-14_15h23.42.123,Utility_discrimination_2024_2cat,2024.2.4,MacIntel,62.5,,,,,,,,4,"[0.5,0.5]","[0,1]",d,"[0.5307169231600999,0.5741055796342881]","[0.46928307683990006,0.4258944203657119]",402.282,404.78,0,s,0,0.968,,0.003669037,0.256226027,0.25255699,404.781,404.781,0,141,141,141,1,0.080200844,0.080200844,shape_difference3,1,,TRUE,,intensity,0.1,0.05,0.7,0.3,0.82,20,400,1E-11,3.5,0.01,0.5,0.1,,,,,,,,,,,,,,,,,,,,,,,,,,,,,,,,,,,,,,,,,,,,,,,,,,,,,,,,,,,,,,,,,,,,,,,,,,,,,,,,,
,,,,,501271,001,2025-03-14_15h23.42.123,Utility_discrimination_2024_2cat,2024.2.4,MacIntel,62.5,,,,,,,,1,"[0.5,0.5]","[0.924,0.383]",d,"[0.5,0.594414261466423]","[0.5,0.405585738533577]",404.781,406.863,1,d,1,0.555,,0.010033678,0.222109543,0.212075866,406.863,406.863,0,142,142,142,1,0.094414261,0.094414261,shape_difference4,1,,TRUE,,intensity,0.1,0.05,0.7,0.3,0.82,20,400,1E-11,3.5,0.01,0.5,0.1,,,,,,,,,,,,,,,,,,,,,,,,,,,,,,,,,,,,,,,,,,,,,,,,,,,,,,,,,,,,,,,,,,,,,,,,,,,,,,,,,
,,,,,501271,001,2025-03-14_15h23.42.123,Utility_discrimination_2024_2cat,2024.2.4,MacIntel,62.5,,,,,,,,0,"[0.5,0.5]","[1,0]",d,"[0.6147084354857048,0.5475468947954816]","[0.38529156451429525,0.4524531052045185]",406.864,409.28,0,s,0,0.89,,0.123435385,0.35534946,0.231914075,409.282,409.282,0,143,143,143,1,0.124143328,0.124143328,shape_difference1,1,,TRUE,,intensity,0.1,0.05,0.7,0.3,0.82,20,400,1E-11,3.5,0.01,0.5,0.1,,,,,,,,,,,,,,,,,,,,,,,,,,,,,,,,,,,,,,,,,,,,,,,,,,,,,,,,,,,,,,,,,,,,,,,,,,,,,,,,,
,,,,,501271,001,2025-03-14_15h23.42.123,Utility_discrimination_2024_2cat,2024.2.4,MacIntel,62.5,,,,,,,,3,"[0.5,0.5]","[0.383,0.924]",d,"[0.7566685658805881,0.5]","[0.24333143411941194,0.5]",409.282,411.297,1,s,1,0.493,,0.007484645,0.229622926,0.22213828,411.299,411.299,0,144,144,144,1,0.256668566,0.256668566,shape_difference0,1,,TRUE,,intensity,0.1,0.05,0.7,0.3,0.82,20,400,1E-11,3.5,0.01,0.5,0.1,,,,,,,,,,,,,,,,,,,,,,,,,,,,,,,,,,,,,,,,,,,,,,,,,,,,,,,,,,,,,,,,,,,,,,,,,,,,,,,,,
,,,,,501271,001,2025-03-14_15h23.42.123,Utility_discrimination_2024_2cat,2024.2.4,MacIntel,62.5,,,,,,,,1,"[0.5,0.5]","[0.924,0.383]",s,"[0.5384567176286752,0.5927780863939842]","[0.46154328237132475,0.40722191360601584]",411.299,413.43,1,s,1,0.602,,0.014853916,0.258285824,0.243431908,413.432,413.432,0,145,145,145,1,0.100409184,0.100409184,shape_difference3,1,,TRUE,,intensity,0.1,0.05,0.7,0.3,0.82,20,400,1E-11,3.5,0.01,0.5,0.1,,,,,,,,,,,,,,,,,,,,,,,,,,,,,,,,,,,,,,,,,,,,,,,,,,,,,,,,,,,,,,,,,,,,,,,,,,,,,,,,,
,,,,,501271,001,2025-03-14_15h23.42.123,Utility_discrimination_2024_2cat,2024.2.4,MacIntel,62.5,,,,,,,,0,"[0.5,0.5]","[1,0]",s,"[0.6341700472124507,0.5556137749809185]","[0.36582995278754926,0.4443862250190816]",413.432,415.697,1,d,1,0.737,,0.119942638,0.344140702,0.224198064,415.699,415.699,0,146,146,146,1,0.145205679,0.145205679,shape_difference1,1,,TRUE,,intensity,0.1,0.05,0.7,0.3,0.82,20,400,1E-11,3.5,0.01,0.5,0.1,,,,,,,,,,,,,,,,,,,,,,,,,,,,,,,,,,,,,,,,,,,,,,,,,,,,,,,,,,,,,,,,,,,,,,,,,,,,,,,,,
,,,,,501271,001,2025-03-14_15h23.42.123,Utility_discrimination_2024_2cat,2024.2.4,MacIntel,62.5,,,,,,,,4,"[0.5,0.5]","[0,1]",d,"[0.7533966421390914,0.5]","[0.24660335786090853,0.5]",415.699,417.93,1,d,1,0.703,,0.002357427,0.227304464,0.224947037,417.932,417.932,0,147,147,147,1,0.253396642,0.253396642,shape_difference0,1,,TRUE,,intensity,0.1,0.05,0.7,0.3,0.82,20,400,1E-11,3.5,0.01,0.5,0.1,,,,,,,,,,,,,,,,,,,,,,,,,,,,,,,,,,,,,,,,,,,,,,,,,,,,,,,,,,,,,,,,,,,,,,,,,,,,,,,,,
,,,,,501271,001,2025-03-14_15h23.42.123,Utility_discrimination_2024_2cat,2024.2.4,MacIntel,62.5,,,,,,,,2,"[0.5,0.5]","[0.707,0.707]",d,"[0.5,0.5868141214335921]","[0.5,0.41318587856640787]",417.933,420.18,1,s,1,0.721,,0.048543836,0.271502133,0.222958297,420.182,420.182,0,148,148,148,1,0.086814121,0.086814121,shape_difference4,1,,TRUE,,intensity,0.1,0.05,0.7,0.3,0.82,20,400,1E-11,3.5,0.01,0.5,0.1,,,,,,,,,,,,,,,,,,,,,,,,,,,,,,,,,,,,,,,,,,,,,,,,,,,,,,,,,,,,,,,,,,,,,,,,,,,,,,,,,
,,,,,501271,001,2025-03-14_15h23.42.123,Utility_discrimination_2024_2cat,2024.2.4,MacIntel,62.5,,,,,,,,2,"[0.5,0.5]","[0.707,0.707]",s,"[0.6171604811394817,0.6171604811394817]","[0.3828395188605183,0.3828395188605183]",420.183,422.297,1,s,1,0.586,,0.041239827,0.264419752,0.223179925,422.299,422.299,0,149,149,149,1,0.165714966,0.165714966,shape_difference2,1,,TRUE,,intensity,0.1,0.05,0.7,0.3,0.82,20,400,1E-11,3.5,0.01,0.5,0.1,,,,,,,,,,,,,,,,,,,,,,,,,,,,,,,,,,,,,,,,,,,,,,,,,,,,,,,,,,,,,,,,,,,,,,,,,,,,,,,,,
,,,,,501271,001,2025-03-14_15h23.42.123,Utility_discrimination_2024_2cat,2024.2.4,MacIntel,62.5,,,,,,,,4,"[0.5,0.5]","[0,1]",s,"[0.6150530927653757,0.6150530927653757]","[0.3849469072346243,0.3849469072346243]",422.3,424.28,1,s,1,0.454,,0.001070622,0.198488521,0.197417899,424.282,424.282,0,150,150,150,1,0.162734219,0.162734219,shape_difference2,1,,TRUE,,intensity,0.1,0.05,0.7,0.3,0.82,20,400,1E-11,3.5,0.01,0.5,0.1,,,,,,,,,,,,,,,,,,,,,,,,,,,,,,,,,,,,,,,,,,,,,,,,,,,,,,,,,,,,,,,,,,,,,,,,,,,,,,,,,
,,,,,501271,001,2025-03-14_15h23.42.123,Utility_discrimination_2024_2cat,2024.2.4,MacIntel,62.5,,,,,,,,0,"[0.5,0.5]","[1,0]",s,"[0.5,0.580718294915053]","[0.5,0.419281705084947]",424.282,426.38,0,s,0,0.569,,0.117007705,0.330231923,0.213224218,426.382,426.382,0,151,151,151,1,0.080718295,0.080718295,shape_difference4,1,,TRUE,,intensity,0.1,0.05,0.7,0.3,0.82,20,400,1E-11,3.5,0.01,0.5,0.1,,,,,,,,,,,,,,,,,,,,,,,,,,,,,,,,,,,,,,,,,,,,,,,,,,,,,,,,,,,,,,,,,,,,,,,,,,,,,,,,,
,,,,,501271,001,2025-03-14_15h23.42.123,Utility_discrimination_2024_2cat,2024.2.4,MacIntel,62.5,,,,,,,,3,"[0.5,0.5]","[0.383,0.924]",d,"[0.7501181070185083,0.5]","[0.24988189298149166,0.5]",426.382,428.414,1,s,1,0.51,,0.006664488,0.19993518,0.193270691,428.415,428.415,0,152,152,152,1,0.250118107,0.250118107,shape_difference0,1,,TRUE,,intensity,0.1,0.05,0.7,0.3,0.82,20,400,1E-11,3.5,0.01,0.5,0.1,,,,,,,,,,,,,,,,,,,,,,,,,,,,,,,,,,,,,,,,,,,,,,,,,,,,,,,,,,,,,,,,,,,,,,,,,,,,,,,,,
,,,,,501271,001,2025-03-14_15h23.42.123,Utility_discrimination_2024_2cat,2024.2.4,MacIntel,62.5,,,,,,,,1,"[0.5,0.5]","[0.924,0.383]",s,"[0.5353928404319245,0.5853863826608308]","[0.4646071595680755,0.4146136173391692]",428.416,430.414,0,s,0,0.476,,0.01299575,0.244318175,0.231322425,430.416,430.416,0,153,153,153,1,0.092409505,0.092409505,shape_difference3,1,,TRUE,,intensity,0.1,0.05,0.7,0.3,0.82,20,400,1E-11,3.5,0.01,0.5,0.1,,,,,,,,,,,,,,,,,,,,,,,,,,,,,,,,,,,,,,,,,,,,,,,,,,,,,,,,,,,,,,,,,,,,,,,,,,,,,,,,,
,,,,,501271,001,2025-03-14_15h23.42.123,Utility_discrimination_2024_2cat,2024.2.4,MacIntel,62.5,,,,,,,,4,"[0.5,0.5]","[0,1]",d,"[0.6283081184801216,0.5531839928332106]","[0.3716918815198784,0.44681600716678943]",430.416,432.364,0,s,0,0.421,,0.007073642,0.262012981,0.254939339,432.366,432.366,0,154,154,154,1,0.1388616,0.1388616,shape_difference1,1,,TRUE,,intensity,0.1,0.05,0.7,0.3,0.82,20,400,1E-11,3.5,0.01,0.5,0.1,,,,,,,,,,,,,,,,,,,,,,,,,,,,,,,,,,,,,,,,,,,,,,,,,,,,,,,,,,,,,,,,,,,,,,,,,,,,,,,,,
,,,,,501271,001,2025-03-14_15h23.42.123,Utility_discrimination_2024_2cat,2024.2.4,MacIntel,62.5,,,,,,,,3,"[0.5,0.5]","[0.383,0.924]",d,"[0.5,0.6057300480824892]","[0.5,0.39426995191751074]",432.366,434.431,0,s,0,0.534,,0.009940379,0.256791926,0.246851547,434.433,434.433,0,155,155,155,1,0.105730048,0.105730048,shape_difference4,1,,TRUE,,intensity,0.1,0.05,0.7,0.3,0.82,20,400,1E-11,3.5,0.01,0.5,0.1,,,,,,,,,,,,,,,,,,,,,,,,,,,,,,,,,,,,,,,,,,,,,,,,,,,,,,,,,,,,,,,,,,,,,,,,,,,,,,,,,
,,,,,501271,001,2025-03-14_15h23.42.123,Utility_discrimination_2024_2cat,2024.2.4,MacIntel,62.5,,,,,,,,1,"[0.5,0.5]","[0.924,0.383]",d,"[0.5476337285246388,0.6149179246912955]","[0.4523662714753613,0.38508207530870453]",434.433,436.48,1,s,1,0.522,,0.019886598,0.269786009,0.249899411,436.48,436.48,0,156,156,156,1,0.124370048,0.124370048,shape_difference3,1,,TRUE,,intensity,0.1,0.05,0.7,0.3,0.82,20,400,1E-11,3.5,0.01,0.5,0.1,,,,,,,,,,,,,,,,,,,,,,,,,,,,,,,,,,,,,,,,,,,,,,,,,,,,,,,,,,,,,,,,,,,,,,,,,,,,,,,,,
,,,,,501271,001,2025-03-14_15h23.42.123,Utility_discrimination_2024_2cat,2024.2.4,MacIntel,62.5,,,,,,,,2,"[0.5,0.5]","[0.707,0.707]",s,"[0.6425092149207942,0.5590703780461733]","[0.35749078507920584,0.4409296219538267]",436.481,438.496,1,s,1,0.486,,0.035228299,0.255931239,0.22070294,438.498,438.498,0,157,157,157,1,0.154230752,0.154230752,shape_difference1,1,,TRUE,,intensity,0.1,0.05,0.7,0.3,0.82,20,400,1E-11,3.5,0.01,0.5,0.1,,,,,,,,,,,,,,,,,,,,,,,,,,,,,,,,,,,,,,,,,,,,,,,,,,,,,,,,,,,,,,,,,,,,,,,,,,,,,,,,,
,,,,,501271,001,2025-03-14_15h23.42.123,Utility_discrimination_2024_2cat,2024.2.4,MacIntel,62.5,,,,,,,,0,"[0.5,0.5]","[1,0]",s,"[0.6131145480112896,0.6131145480112896]","[0.3868854519887103,0.3868854519887103]",438.499,440.581,1,s,1,0.562,,0.114520022,0.312788996,0.198268973,440.583,440.583,0,158,158,158,1,0.159992289,0.159992289,shape_difference2,1,,TRUE,,intensity,0.1,0.05,0.7,0.3,0.82,20,400,1E-11,3.5,0.01,0.5,0.1,,,,,,,,,,,,,,,,,,,,,,,,,,,,,,,,,,,,,,,,,,,,,,,,,,,,,,,,,,,,,,,,,,,,,,,,,,,,,,,,,
,,,,,501271,001,2025-03-14_15h23.42.123,Utility_discrimination_2024_2cat,2024.2.4,MacIntel,62.5,,,,,,,,4,"[0.5,0.5]","[0,1]",s,"[0.7467418443399453,0.5]","[0.2532581556600547,0.5]",440.584,442.864,1,d,1,0.757,,0.01172697,0.298008931,0.286281961,442.866,442.866,0,159,159,159,1,0.246741844,0.246741844,shape_difference0,1,,TRUE,,intensity,0.1,0.05,0.7,0.3,0.82,20,400,1E-11,3.5,0.01,0.5,0.1,,,,,,,,,,,,,,,,,,,,,,,,,,,,,,,,,,,,,,,,,,,,,,,,,,,,,,,,,,,,,,,,,,,,,,,,,,,,,,,,,
,,,,,501271,001,2025-03-14_15h23.42.123,Utility_discrimination_2024_2cat,2024.2.4,MacIntel,62.5,,,,,,,,1,"[0.5,0.5]","[0.924,0.383]",d,"[0.5,0.6414593790095111]","[0.5,0.3585406209904889]",442.866,445.18,1,d,1,0.788,,0.01749711,0.256957632,0.239460522,445.182,445.182,0,160,160,160,1,0.141459379,0.141459379,shape_difference4,1,,TRUE,,intensity,0.1,0.05,0.7,0.3,0.82,20,400,1E-11,3.5,0.01,0.5,0.1,,,,,,,,,,,,,,,,,,,,,,,,,,,,,,,,,,,,,,,,,,,,,,,,,,,,,,,,,,,,,,,,,,,,,,,,,,,,,,,,,
,,,,,501271,001,2025-03-14_15h23.42.123,Utility_discrimination_2024_2cat,2024.2.4,MacIntel,62.5,,,,,,,,2,"[0.5,0.5]","[0.707,0.707]",d,"[0.6381657478438549,0.5572700015413381]","[0.36183425215614506,0.44272999845866184]",445.182,447.381,1,s,1,0.667,,0.030239622,0.245625696,0.215386074,447.383,447.383,0,161,161,161,1,0.14953003,0.14953003,shape_difference1,1,,TRUE,,intensity,0.1,0.05,0.7,0.3,0.82,20,400,1E-11,3.5,0.01,0.5,0.1,,,,,,,,,,,,,,,,,,,,,,,,,,,,,,,,,,,,,,,,,,,,,,,,,,,,,,,,,,,,,,,,,,,,,,,,,,,,,,,,,
,,,,,501271,001,2025-03-14_15h23.42.123,Utility_discrimination_2024_2cat,2024.2.4,MacIntel,62.5,,,,,,,,0,"[0.5,0.5]","[1,0]",s,"[0.6112819886181732,0.6112819886181732]","[0.38871801138182677,0.38871801138182677]",447.383,449.398,1,s,1,0.486,,0.111574636,0.299521949,0.187947313,449.399,449.4,0,162,162,162,1,0.157400267,0.157400267,shape_difference2,1,,TRUE,,intensity,0.1,0.05,0.7,0.3,0.82,20,400,1E-11,3.5,0.01,0.5,0.1,,,,,,,,,,,,,,,,,,,,,,,,,,,,,,,,,,,,,,,,,,,,,,,,,,,,,,,,,,,,,,,,,,,,,,,,,,,,,,,,,
,,,,,501271,001,2025-03-14_15h23.42.123,Utility_discrimination_2024_2cat,2024.2.4,MacIntel,62.5,,,,,,,,3,"[0.5,0.5]","[0.383,0.924]",s,"[0.7424788783342577,0.5]","[0.2575211216657422,0.5]",449.4,451.531,1,d,1,0.605,,0.00888813,0.235991651,0.227103521,451.533,451.533,0,163,163,163,1,0.242478878,0.242478878,shape_difference0,1,,TRUE,,intensity,0.1,0.05,0.7,0.3,0.82,20,400,1E-11,3.5,0.01,0.5,0.1,,,,,,,,,,,,,,,,,,,,,,,,,,,,,,,,,,,,,,,,,,,,,,,,,,,,,,,,,,,,,,,,,,,,,,,,,,,,,,,,,
,,,,,501271,001,2025-03-14_15h23.42.123,Utility_discrimination_2024_2cat,2024.2.4,MacIntel,62.5,,,,,,,,0,"[0.5,0.5]","[1,0]",d,"[0.5433025137248471,0.6044687276286128]","[0.4566974862751529,0.3955312723713872]",451.533,453.748,1,d,1,0.692,,0.1089578,0.298035114,0.189077313,453.749,453.749,0,164,164,164,1,0.113061394,0.113061394,shape_difference3,1,,TRUE,,intensity,0.1,0.05,0.7,0.3,0.82,20,400,1E-11,3.5,0.01,0.5,0.1,,,,,,,,,,,,,,,,,,,,,,,,,,,,,,,,,,,,,,,,,,,,,,,,,,,,,,,,,,,,,,,,,,,,,,,,,,,,,,,,,
,,,,,501271,001,2025-03-14_15h23.42.123,Utility_discrimination_2024_2cat,2024.2.4,MacIntel,62.5,,,,,,,,3,"[0.5,0.5]","[0.383,0.924]",d,"[0.7375501614400619,0.5]","[0.2624498385599381,0.5]",453.749,456.048,1,s,1,0.775,,0.008028427,0.209584254,0.201555827,456.049,456.049,0,165,165,165,1,0.237550161,0.237550161,shape_difference0,1,,TRUE,,intensity,0.1,0.05,0.7,0.3,0.82,20,400,1E-11,3.5,0.01,0.5,0.1,,,,,,,,,,,,,,,,,,,,,,,,,,,,,,,,,,,,,,,,,,,,,,,,,,,,,,,,,,,,,,,,,,,,,,,,,,,,,,,,,
,,,,,501271,001,2025-03-14_15h23.42.123,Utility_discrimination_2024_2cat,2024.2.4,MacIntel,62.5,,,,,,,,4,"[0.5,0.5]","[0,1]",s,"[0.5383675537681138,0.592562975670332]","[0.46163244623188615,0.40743702432966794]",456.049,458.448,1,s,1,0.875,,0.010187414,0.283258704,0.27307129,458.449,458.449,0,166,166,166,1,0.100176381,0.100176381,shape_difference3,1,,TRUE,,intensity,0.1,0.05,0.7,0.3,0.82,20,400,1E-11,3.5,0.01,0.5,0.1,,,,,,,,,,,,,,,,,,,,,,,,,,,,,,,,,,,,,,,,,,,,,,,,,,,,,,,,,,,,,,,,,,,,,,,,,,,,,,,,,
,,,,,501271,001,2025-03-14_15h23.42.123,Utility_discrimination_2024_2cat,2024.2.4,MacIntel,62.5,,,,,,,,1,"[0.5,0.5]","[0.924,0.383]",s,"[0.5,0.6303177808323838]","[0.5,0.36968221916761623]",458.45,460.764,1,s,1,0.788,,0.015198253,0.244001537,0.228803284,460.765,460.765,0,167,167,167,1,0.130317781,0.130317781,shape_difference4,1,,TRUE,,intensity,0.1,0.05,0.7,0.3,0.82,20,400,1E-11,3.5,0.01,0.5,0.1,,,,,,,,,,,,,,,,,,,,,,,,,,,,,,,,,,,,,,,,,,,,,,,,,,,,,,,,,,,,,,,,,,,,,,,,,,,,,,,,,
,,,,,501271,001,2025-03-14_15h23.42.123,Utility_discrimination_2024_2cat,2024.2.4,MacIntel,62.5,,,,,,,,2,"[0.5,0.5]","[0.707,0.707]",s,"[0.633397008849325,0.5552933489061597]","[0.36660299115067496,0.4447066510938404]",460.766,462.848,1,s,1,0.556,,0.026068335,0.232979333,0.206910998,462.849,462.849,0,168,168,168,1,0.144369057,0.144369057,shape_difference1,1,,TRUE,,intensity,0.1,0.05,0.7,0.3,0.82,20,400,1E-11,3.5,0.01,0.5,0.1,,,,,,,,,,,,,,,,,,,,,,,,,,,,,,,,,,,,,,,,,,,,,,,,,,,,,,,,,,,,,,,,,,,,,,,,,,,,,,,,,
,,,,,501271,001,2025-03-14_15h23.42.123,Utility_discrimination_2024_2cat,2024.2.4,MacIntel,62.5,,,,,,,,4,"[0.5,0.5]","[0,1]",s,"[0.6094994810218385,0.6094994810218385]","[0.3905005189781615,0.3905005189781615]",462.85,465.049,1,s,1,0.677,,0.008957506,0.265686826,0.25672932,465.051,465.051,0,169,169,169,1,0.15487904,0.15487904,shape_difference2,1,,TRUE,,intensity,0.1,0.05,0.7,0.3,0.82,20,400,1E-11,3.5,0.01,0.5,0.1,,,,,,,,,,,,,,,,,,,,,,,,,,,,,,,,,,,,,,,,,,,,,,,,,,,,,,,,,,,,,,,,,,,,,,,,,,,,,,,,,
,,,,,501271,001,2025-03-14_15h23.42.123,Utility_discrimination_2024_2cat,2024.2.4,MacIntel,62.5,,,,,,,,1,"[0.5,0.5]","[0.924,0.383]",s,"[0.5,0.6182089130051664]","[0.5,0.3817910869948335]",465.051,467.131,1,s,1,0.552,,0.013339686,0.227923413,0.214583727,467.133,467.133,0,170,170,170,1,0.118208913,0.118208913,shape_difference4,1,,TRUE,,intensity,0.1,0.05,0.7,0.3,0.82,20,400,1E-11,3.5,0.01,0.5,0.1,,,,,,,,,,,,,,,,,,,,,,,,,,,,,,,,,,,,,,,,,,,,,,,,,,,,,,,,,,,,,,,,,,,,,,,,,,,,,,,,,
,,,,,501271,001,2025-03-14_15h23.42.123,Utility_discrimination_2024_2cat,2024.2.4,MacIntel,62.5,,,,,,,,3,"[0.5,0.5]","[0.383,0.924]",s,"[0.6281202022217542,0.5531061011373721]","[0.37187979777824576,0.4468938988626278]",467.134,469.481,0,s,0,0.819,,0.007315777,0.197370928,0.19005515,469.483,469.484,0,171,171,171,1,0.138658228,0.138658228,shape_difference1,1,,TRUE,,intensity,0.1,0.05,0.7,0.3,0.82,20,400,1E-11,3.5,0.01,0.5,0.1,,,,,,,,,,,,,,,,,,,,,,,,,,,,,,,,,,,,,,,,,,,,,,,,,,,,,,,,,,,,,,,,,,,,,,,,,,,,,,,,,
,,,,,501271,001,2025-03-14_15h23.42.123,Utility_discrimination_2024_2cat,2024.2.4,MacIntel,62.5,,,,,,,,2,"[0.5,0.5]","[0.707,0.707]",d,"[0.5354401280389857,0.5855004655561951]","[0.4645598719610144,0.4144995344438049]",469.484,471.498,1,s,1,0.489,,0.022556181,0.217317999,0.194761818,471.5,471.5,0,172,172,172,1,0.092532971,0.092532971,shape_difference3,1,,TRUE,,intensity,0.1,0.05,0.7,0.3,0.82,20,400,1E-11,3.5,0.01,0.5,0.1,,,,,,,,,,,,,,,,,,,,,,,,,,,,,,,,,,,,,,,,,,,,,,,,,,,,,,,,,,,,,,,,,,,,,,,,,,,,,,,,,
,,,,,501271,001,2025-03-14_15h23.42.123,Utility_discrimination_2024_2cat,2024.2.4,MacIntel,62.5,,,,,,,,0,"[0.5,0.5]","[1,0]",s,"[0.6077157550818351,0.6077157550818351]","[0.3922842449181649,0.3922842449181649]",471.501,473.431,1,s,1,0.405,,0.106575093,0.296565913,0.18999082,473.433,473.433,0,173,173,173,1,0.152356089,0.152356089,shape_difference2,1,,TRUE,,intensity,0.1,0.05,0.7,0.3,0.82,20,400,1E-11,3.5,0.01,0.5,0.1,,,,,,,,,,,,,,,,,,,,,,,,,,,,,,,,,,,,,,,,,,,,,,,,,,,,,,,,,,,,,,,,,,,,,,,,,,,,,,,,,
,,,,,501271,001,2025-03-14_15h23.42.123,Utility_discrimination_2024_2cat,2024.2.4,MacIntel,62.5,,,,,,,,1,"[0.5,0.5]","[0.924,0.383]",s,"[0.7317723369171475,0.5]","[0.2682276630828525,0.5]",473.434,475.381,0,s,0,0.424,,0.020261118,0.257474705,0.237213587,475.382,475.382,0,174,174,174,1,0.231772337,0.231772337,shape_difference0,1,,TRUE,,intensity,0.1,0.05,0.7,0.3,0.82,20,400,1E-11,3.5,0.01,0.5,0.1,,,,,,,,,,,,,,,,,,,,,,,,,,,,,,,,,,,,,,,,,,,,,,,,,,,,,,,,,,,,,,,,,,,,,,,,,,,,,,,,,
,,,,,501271,001,2025-03-14_15h23.42.123,Utility_discrimination_2024_2cat,2024.2.4,MacIntel,62.5,,,,,,,,4,"[0.5,0.5]","[0,1]",d,"[0.6410461357823836,0.5584639285764642]","[0.3589538642176164,0.4415360714235358]",475.382,477.565,1,s,1,0.652,,0.007956834,0.244073898,0.236117064,477.567,477.567,0,175,175,175,1,0.152647333,0.152647333,shape_difference1,1,,TRUE,,intensity,0.1,0.05,0.7,0.3,0.82,20,400,1E-11,3.5,0.01,0.5,0.1,,,,,,,,,,,,,,,,,,,,,,,,,,,,,,,,,,,,,,,,,,,,,,,,,,,,,,,,,,,,,,,,,,,,,,,,,,,,,,,,,
,,,,,501271,001,2025-03-14_15h23.42.123,Utility_discrimination_2024_2cat,2024.2.4,MacIntel,62.5,,,,,,,,3,"[0.5,0.5]","[0.383,0.924]",s,"[0.5,0.60470840837081]","[0.5,0.39529159162919003]",477.568,479.565,1,s,1,0.47,,0.006715176,0.193566708,0.186851531,479.566,479.566,0,176,176,176,1,0.104708408,0.104708408,shape_difference4,1,,TRUE,,intensity,0.1,0.05,0.7,0.3,0.82,20,400,1E-11,3.5,0.01,0.5,0.1,,,,,,,,,,,,,,,,,,,,,,,,,,,,,,,,,,,,,,,,,,,,,,,,,,,,,,,,,,,,,,,,,,,,,,,,,,,,,,,,,
,,,,,501271,001,2025-03-14_15h23.42.123,Utility_discrimination_2024_2cat,2024.2.4,MacIntel,62.5,,,,,,,,2,"[0.5,0.5]","[0.707,0.707]",s,"[0.533094423828078,0.5798413775904545]","[0.466905576171922,0.4201586224095455]",479.567,481.482,0,s,0,0.388,,0.01957996,0.199851392,0.180271432,481.484,481.484,0,177,177,177,1,0.086408417,0.086408417,shape_difference3,1,,TRUE,,intensity,0.1,0.05,0.7,0.3,0.82,20,400,1E-11,3.5,0.01,0.5,0.1,,,,,,,,,,,,,,,,,,,,,,,,,,,,,,,,,,,,,,,,,,,,,,,,,,,,,,,,,,,,,,,,,,,,,,,,,,,,,,,,,
,,,,,501271,001,2025-03-14_15h23.42.123,Utility_discrimination_2024_2cat,2024.2.4,MacIntel,62.5,,,,,,,,0,"[0.5,0.5]","[1,0]",d,"[0.6058823076922295,0.6058823076922295]","[0.3941176923077705,0.3941176923077705]",481.484,484.165,1,s,1,1.158,,0.11679746,0.299812851,0.183015391,484.166,484.166,0,178,178,178,1,0.149762811,0.149762811,shape_difference2,1,,TRUE,,intensity,0.1,0.05,0.7,0.3,0.82,20,400,1E-11,3.5,0.01,0.5,0.1,,,,,,,,,,,,,,,,,,,,,,,,,,,,,,,,,,,,,,,,,,,,,,,,,,,,,,,,,,,,,,,,,,,,,,,,,,,,,,,,,
,,,,,501271,001,2025-03-14_15h23.42.123,Utility_discrimination_2024_2cat,2024.2.4,MacIntel,62.5,,,,,,,,1,"[0.5,0.5]","[0.924,0.383]",s,"[0.7466441829830159,0.5]","[0.253355817016984,0.5]",484.167,486.332,1,d,1,0.636,,0.017899587,0.243051601,0.225152015,486.335,486.335,0,179,179,179,1,0.246644183,0.246644183,shape_difference0,1,,TRUE,,intensity,0.1,0.05,0.7,0.3,0.82,20,400,1E-11,3.5,0.01,0.5,0.1,,,,,,,,,,,,,,,,,,,,,,,,,,,,,,,,,,,,,,,,,,,,,,,,,,,,,,,,,,,,,,,,,,,,,,,,,,,,,,,,,
,,,,,501271,001,2025-03-14_15h23.42.123,Utility_discrimination_2024_2cat,2024.2.4,MacIntel,62.5,,,,,,,,2,"[0.5,0.5]","[0.707,0.707]",d,"[0.6373042085046746,0.5569128916204441]","[0.3626957914953254,0.4430871083795559]",486.336,488.515,1,s,1,0.655,,0.016254102,0.198648638,0.182394536,488.517,488.517,0,180,180,180,1,0.148597628,0.148597628,shape_difference1,1,,TRUE,,intensity,0.1,0.05,0.7,0.3,0.82,20,400,1E-11,3.5,0.01,0.5,0.1,,,,,,,,,,,,,,,,,,,,,,,,,,,,,,,,,,,,,,,,,,,,,,,,,,,,,,,,,,,,,,,,,,,,,,,,,,,,,,,,,
,,,,,501271,001,2025-03-14_15h23.42.123,Utility_discrimination_2024_2cat,2024.2.4,MacIntel,62.5,,,,,,,,3,"[0.5,0.5]","[0.383,0.924]",s,"[0.6035923222102835,0.6035923222102835]","[0.39640767778971653,0.39640767778971653]",488.518,490.832,0,d,0,0.792,,0.009080785,0.217369946,0.20828916,490.833,490.833,0,181,181,181,1,0.146523794,0.146523794,shape_difference2,1,,TRUE,,intensity,0.1,0.05,0.7,0.3,0.82,20,400,1E-11,3.5,0.01,0.5,0.1,,,,,,,,,,,,,,,,,,,,,,,,,,,,,,,,,,,,,,,,,,,,,,,,,,,,,,,,,,,,,,,,,,,,,,,,,,,,,,,,,
,,,,,501271,001,2025-03-14_15h23.42.123,Utility_discrimination_2024_2cat,2024.2.4,MacIntel,62.5,,,,,,,,4,"[0.5,0.5]","[0,1]",s,"[0.54304564854405,0.6038490319966117]","[0.45695435145595,0.3961509680033884]",490.833,492.932,1,s,1,0.57,,0.007125762,0.216772657,0.209646895,492.934,492.934,0,182,182,182,1,0.112390727,0.112390727,shape_difference3,1,,TRUE,,intensity,0.1,0.05,0.7,0.3,0.82,20,400,1E-11,3.5,0.01,0.5,0.1,,,,,,,,,,,,,,,,,,,,,,,,,,,,,,,,,,,,,,,,,,,,,,,,,,,,,,,,,,,,,,,,,,,,,,,,,,,,,,,,,
,,,,,501271,001,2025-03-14_15h23.42.123,Utility_discrimination_2024_2cat,2024.2.4,MacIntel,62.5,,,,,,,,0,"[0.5,0.5]","[1,0]",s,"[0.5,0.594503878829363]","[0.5,0.40549612117063705]",492.934,495.215,1,d,1,0.752,,0.114191271,0.298478034,0.184286764,495.217,495.217,0,183,183,183,1,0.094503879,0.094503879,shape_difference4,1,,TRUE,,intensity,0.1,0.05,0.7,0.3,0.82,20,400,1E-11,3.5,0.01,0.5,0.1,,,,,,,,,,,,,,,,,,,,,,,,,,,,,,,,,,,,,,,,,,,,,,,,,,,,,,,,,,,,,,,,,,,,,,,,,,,,,,,,,
,,,,,501271,001,2025-03-14_15h23.42.123,Utility_discrimination_2024_2cat,2024.2.4,MacIntel,62.5,,,,,,,,2,"[0.5,0.5]","[0.707,0.707]",d,"[0.7427152804337538,0.5]","[0.25728471956624616,0.5]",495.218,497.465,1,d,1,0.723,,0.029397274,0.215465209,0.186067934,497.467,497.468,0,184,184,184,1,0.24271528,0.24271528,shape_difference0,1,,TRUE,,intensity,0.1,0.05,0.7,0.3,0.82,20,400,1E-11,3.5,0.01,0.5,0.1,,,,,,,,,,,,,,,,,,,,,,,,,,,,,,,,,,,,,,,,,,,,,,,,,,,,,,,,,,,,,,,,,,,,,,,,,,,,,,,,,
,,,,,501271,001,2025-03-14_15h23.42.123,Utility_discrimination_2024_2cat,2024.2.4,MacIntel,62.5,,,,,,,,3,"[0.5,0.5]","[0.383,0.924]",d,"[0.6093128903491192,0.6093128903491192]","[0.39068710965088077,0.39068710965088077]",497.468,500.332,1,s,1,1.342,,0.008276611,0.198686379,0.190409768,500.334,500.334,0,185,185,185,1,0.154615121,0.154615121,shape_difference2,1,,TRUE,,intensity,0.1,0.05,0.7,0.3,0.82,20,400,1E-11,3.5,0.01,0.5,0.1,,,,,,,,,,,,,,,,,,,,,,,,,,,,,,,,,,,,,,,,,,,,,,,,,,,,,,,,,,,,,,,,,,,,,,,,,,,,,,,,,
,,,,,501271,001,2025-03-14_15h23.42.123,Utility_discrimination_2024_2cat,2024.2.4,MacIntel,62.5,,,,,,,,4,"[0.5,0.5]","[0,1]",s,"[0.538345187541872,0.5925090164195553]","[0.461654812458128,0.40749098358044467]",500.335,502.516,1,s,1,0.662,,0.006419274,0.197761242,0.191341968,502.518,502.518,0,186,186,186,1,0.100117983,0.100117983,shape_difference3,1,,TRUE,,intensity,0.1,0.05,0.7,0.3,0.82,20,400,1E-11,3.5,0.01,0.5,0.1,,,,,,,,,,,,,,,,,,,,,,,,,,,,,,,,,,,,,,,,,,,,,,,,,,,,,,,,,,,,,,,,,,,,,,,,,,,,,,,,,
,,,,,501271,001,2025-03-14_15h23.42.123,Utility_discrimination_2024_2cat,2024.2.4,MacIntel,62.5,,,,,,,,0,"[0.5,0.5]","[1,0]",s,"[0.5,0.5877786708450827]","[0.5,0.41222132915491727]",502.519,504.716,1,d,1,0.669,,0.111962308,0.297185731,0.185223422,504.717,504.717,0,187,187,187,1,0.087778671,0.087778671,shape_difference4,1,,TRUE,,intensity,0.1,0.05,0.7,0.3,0.82,20,400,1E-11,3.5,0.01,0.5,0.1,,,,,,,,,,,,,,,,,,,,,,,,,,,,,,,,,,,,,,,,,,,,,,,,,,,,,,,,,,,,,,,,,,,,,,,,,,,,,,,,,
,,,,,501271,001,2025-03-14_15h23.42.123,Utility_discrimination_2024_2cat,2024.2.4,MacIntel,62.5,,,,,,,,1,"[0.5,0.5]","[0.924,0.383]",d,"[0.7381764623176409,0.5]","[0.2618235376823591,0.5]",504.718,506.849,1,d,1,0.605,,0.015579406,0.22803802,0.212458614,506.851,506.851,0,188,188,188,1,0.238176462,0.238176462,shape_difference0,1,,TRUE,,intensity,0.1,0.05,0.7,0.3,0.82,20,400,1E-11,3.5,0.01,0.5,0.1,,,,,,,,,,,,,,,,,,,,,,,,,,,,,,,,,,,,,,,,,,,,,,,,,,,,,,,,,,,,,,,,,,,,,,,,,,,,,,,,,
,,,,,501271,001,2025-03-14_15h23.42.123,Utility_discrimination_2024_2cat,2024.2.4,MacIntel,62.5,,,,,,,,3,"[0.5,0.5]","[0.383,0.924]",d,"[0.6330248854855021,0.5551391029663932]","[0.36697511451449794,0.4448608970336068]",506.851,509.184,0,s,0,0.81,,0.007616633,0.195347415,0.187730782,509.185,509.185,0,189,189,189,1,0.143966326,0.143966326,shape_difference1,1,,TRUE,,intensity,0.1,0.05,0.7,0.3,0.82,20,400,1E-11,3.5,0.01,0.5,0.1,,,,,,,,,,,,,,,,,,,,,,,,,,,,,,,,,,,,,,,,,,,,,,,,,,,,,,,,,,,,,,,,,,,,,,,,,,,,,,,,,
,,,,,501271,001,2025-03-14_15h23.42.123,Utility_discrimination_2024_2cat,2024.2.4,MacIntel,62.5,,,,,,,,2,"[0.5,0.5]","[0.707,0.707]",d,"[0.5354904856376016,0.5856219549063809]","[0.4645095143623984,0.4143780450936191]",509.186,511.616,1,s,1,0.906,,0.025751953,0.199764972,0.17401302,511.618,511.618,0,190,190,190,1,0.092664453,0.092664453,shape_difference3,1,,TRUE,,intensity,0.1,0.05,0.7,0.3,0.82,20,400,1E-11,3.5,0.01,0.5,0.1,,,,,,,,,,,,,,,,,,,,,,,,,,,,,,,,,,,,,,,,,,,,,,,,,,,,,,,,,,,,,,,,,,,,,,,,,,,,,,,,,
,,,,,501271,001,2025-03-14_15h23.42.123,Utility_discrimination_2024_2cat,2024.2.4,MacIntel,62.5,,,,,,,,4,"[0.5,0.5]","[0,1]",s,"[0.6078119461466799,0.6078119461466799]","[0.3921880538533202,0.3921880538533202]",511.618,513.499,0,s,0,0.354,,0.005802686,0.193202245,0.187399559,513.5,513.5,0,191,191,191,1,0.152492144,0.152492144,shape_difference2,1,,TRUE,,intensity,0.1,0.05,0.7,0.3,0.82,20,400,1E-11,3.5,0.01,0.5,0.1,,,,,,,,,,,,,,,,,,,,,,,,,,,,,,,,,,,,,,,,,,,,,,,,,,,,,,,,,,,,,,,,,,,,,,,,,,,,,,,,,
,,,,,501271,001,2025-03-14_15h23.42.123,Utility_discrimination_2024_2cat,2024.2.4,MacIntel,62.5,,,,,,,,0,"[0.5,0.5]","[1,0]",d,"[0.5,0.5823614842193094]","[0.5,0.4176385157806905]",513.5,515.566,0,s,0,0.536,,0.110026929,0.295900812,0.185873883,515.568,515.568,0,192,192,192,1,0.082361484,0.082361484,shape_difference4,1,,TRUE,,intensity,0.1,0.05,0.7,0.3,0.82,20,400,1E-11,3.5,0.01,0.5,0.1,,,,,,,,,,,,,,,,,,,,,,,,,,,,,,,,,,,,,,,,,,,,,,,,,,,,,,,,,,,,,,,,,,,,,,,,,,,,,,,,,
,,,,,501271,001,2025-03-14_15h23.42.123,Utility_discrimination_2024_2cat,2024.2.4,MacIntel,62.5,,,,,,,,1,"[0.5,0.5]","[0.924,0.383]",d,"[0.7328718902510574,0.5]","[0.26712810974894263,0.5]",515.568,517.649,1,d,1,0.558,,0.024227933,0.255395323,0.231167391,517.651,517.651,0,193,193,193,1,0.23287189,0.23287189,shape_difference0,1,,TRUE,,intensity,0.1,0.05,0.7,0.3,0.82,20,400,1E-11,3.5,0.01,0.5,0.1,,,,,,,,,,,,,,,,,,,,,,,,,,,,,,,,,,,,,,,,,,,,,,,,,,,,,,,,,,,,,,,,,,,,,,,,,,,,,,,,,
,,,,,501271,001,2025-03-14_15h23.42.123,Utility_discrimination_2024_2cat,2024.2.4,MacIntel,62.5,,,,,,,,2,"[0.5,0.5]","[0.707,0.707]",d,"[0.6434282415976184,0.5594513165929522]","[0.35657175840238164,0.4405486834070478]",517.652,519.799,1,s,1,0.621,,0.081357949,0.24835601,0.16699806,519.802,519.802,0,194,194,194,1,0.15522537,0.15522537,shape_difference1,1,,TRUE,,intensity,0.1,0.05,0.7,0.3,0.82,20,400,1E-11,3.5,0.01,0.5,0.1,,,,,,,,,,,,,,,,,,,,,,,,,,,,,,,,,,,,,,,,,,,,,,,,,,,,,,,,,,,,,,,,,,,,,,,,,,,,,,,,,
,,,,,501271,001,2025-03-14_15h23.42.123,Utility_discrimination_2024_2cat,2024.2.4,MacIntel,62.5,,,,,,,,0,"[0.5,0.5]","[1,0]",s,"[0.6149603946261449,0.6149603946261449]","[0.38503960537385507,0.38503960537385507]",519.802,522.749,1,d,1,1.42,,0.108315626,0.294586708,0.186271082,522.751,522.751,0,195,195,195,1,0.162603104,0.162603104,shape_difference2,1,,TRUE,,intensity,0.1,0.05,0.7,0.3,0.82,20,400,1E-11,3.5,0.01,0.5,0.1,,,,,,,,,,,,,,,,,,,,,,,,,,,,,,,,,,,,,,,,,,,,,,,,,,,,,,,,,,,,,,,,,,,,,,,,,,,,,,,,,
