Consent.started,Consent.stopped,key_resp.keys,key_resp.rt,key_resp.duration,participant,session,date,expName,psychopyVersion,OS,frameRate,SetupExperiment.started,SetupExperiment.stopped,DiscrimInstructions_Pre.started,DiscrimInstructions_Pre.stopped,KeyboardResponse.keys,KeyboardResponse.rt,KeyboardResponse.duration,feature_index,feature_center,feature_vector,correct_answer,coord1,coord2,DiscriminationTrial.started,DiscriminationTrial.stopped,PreTest.response,Resp_s_or_d.keys,Resp_s_or_d.corr,Resp_s_or_d.rt,Resp_s_or_d.duration,PreTest.CI_lower,PreTest.CI_upper,PreTest.CI_width,CrashPretest_2.started,CrashPretest_2.stopped,PreTest.thisRepN,PreTest.thisTrialN,PreTest.thisN,PreTest.thisIndex,PreTest.ran,PreTest.intensity,intensity,PreTest.label,PreTest.nReps,PreTest.method,PreTest.autoLog,PreTest.seed,PreTest.varName,PreTest.startVal,PreTest.minVal,PreTest.maxVal,PreTest.startValSd,PreTest.pThreshold,PreTest.nTrials,PreTest.maxTrials,PreTest.stopInterval,PreTest.beta,PreTest.delta,PreTest.gamma,PreTest.grain,WelcomeToCategorizationTask.started,WelcomeToCategorizationTask.stopped,PressAnyKey3.keys,PressAnyKey3.rt,PressAnyKey3.duration,shape_coordinates,category_center,category_sigma,subspace_center,subspace_vector1,subspace_vector2,CategorizationTrial.started,CategorizationTrial.stopped,Respond_1or2.keys,Respond_1or2.rt,Respond_1or2.duration,Feedback.started,Feedback.stopped,xcoord,ycoord,shape_coord,numeric_response_minus1,correctness,truecategory,mixture_index,respAifA,respBifA,respAifB,respBifB,trial_number,D,muAx,muAy,muBx,muBy,sigmaA,sigmaB,priorA,priorB,TrialLoop.thisRepN,TrialLoop.thisTrialN,TrialLoop.thisN,TrialLoop.thisIndex,TrialLoop.ran,DiscriminationInstructions_Post.started,DiscriminationInstructions_Post.stopped,key_resp_2.keys,key_resp_2.rt,key_resp_2.duration,PostTest.response,PostTest.CI_lower,PostTest.CI_upper,PostTest.CI_width,CrashPosttest.started,CrashPosttest.stopped,PostTest.thisRepN,PostTest.thisTrialN,PostTest.thisN,PostTest.thisIndex,PostTest.ran,PostTest.intensity,PostTest.label,PostTest.nReps,PostTest.method,PostTest.autoLog,PostTest.seed,PostTest.varName,PostTest.startVal,PostTest.minVal,PostTest.maxVal,PostTest.startValSd,PostTest.pThreshold,PostTest.nTrials,PostTest.maxTrials,PostTest.stopInterval,PostTest.beta,PostTest.delta,PostTest.gamma,PostTest.grain,Thanks.started,Thanks.stopped
0.0002,20.2387,y,20.2237,,509243,001,2025-03-14_00h08.13.599,Utility_discrimination_2024_2cat,2024.2.4,MacIntel,60.24096386,,,,,,,,,,,,,,,,,,,,,,,,,,,,,,,,,,,,,,,,,,,,,,,,,,,,,,,,,,,,,,,,,,,,,,,,,,,,,,,,,,,,,,,,,,,,,,,,,,,,,,,,,,,,,,,,,,,,,,,,,,,,,,,,,,,
,,,,,509243,001,2025-03-14_00h08.13.599,Utility_discrimination_2024_2cat,2024.2.4,MacIntel,60.24096386,20.2388,20.2389,,,,,,,,,,,,,,,,,,,,,,,,,,,,,,,,,,,,,,,,,,,,,,,,,,,,,,,,,,,,,,,,,,,,,,,,,,,,,,,,,,,,,,,,,,,,,,,,,,,,,,,,,,,,,,,,,,,,,,,,,,,,,,,,,
,,,,,509243,001,2025-03-14_00h08.13.599,Utility_discrimination_2024_2cat,2024.2.4,MacIntel,60.24096386,,,20.2389,64.7232,space,44.4693,,,,,,,,,,,,,,,,,,,,,,,,,,,,,,,,,,,,,,,,,,,,,,,,,,,,,,,,,,,,,,,,,,,,,,,,,,,,,,,,,,,,,,,,,,,,,,,,,,,,,,,,,,,,,,,,,,,,,,,,,,,,,
,,,,,509243,001,2025-03-14_00h08.13.599,Utility_discrimination_2024_2cat,2024.2.4,MacIntel,60.24096386,,,,,,,,2,"[0.5,0.5]","[0.707,0.707]",,"[0.6185239449756466,0.5]","[0.3814760550243534,0.5]",64.7638,68.6735,1,s,1,2.3839,,-0.447967632,0.547967632,0.995935263,68.6785,68.6786,0,0,0,0,1,0.118523945,0.118523945,shape_difference3,1,,TRUE,,intensity,0.1,0.05,0.7,0.3,0.82,20,400,1E-11,3.5,0.01,0.5,0.1,,,,,,,,,,,,,,,,,,,,,,,,,,,,,,,,,,,,,,,,,,,,,,,,,,,,,,,,,,,,,,,,,,,,,,,,,,,,,,,,,
,,,,,509243,001,2025-03-14_00h08.13.599,Utility_discrimination_2024_2cat,2024.2.4,MacIntel,60.24096386,,,,,,,,1,"[0.5,0.5]","[0.924,0.383]",s,"[0.5837964290977822,0.5837964290977822]","[0.4162035709022178,0.4162035709022178]",68.6805,71.6887,0,s,0,1.4819,,-0.447967632,0.547967632,0.995935263,71.691,71.691,0,1,1,1,1,0.118523945,0.118523945,shape_difference2,1,,TRUE,,intensity,0.1,0.05,0.7,0.3,0.82,20,400,1E-11,3.5,0.01,0.5,0.1,,,,,,,,,,,,,,,,,,,,,,,,,,,,,,,,,,,,,,,,,,,,,,,,,,,,,,,,,,,,,,,,,,,,,,,,,,,,,,,,,
,,,,,509243,001,2025-03-14_00h08.13.599,Utility_discrimination_2024_2cat,2024.2.4,MacIntel,60.24096386,,,,,,,,4,"[0.5,0.5]","[0,1]",d,"[0.6095161251574974,0.5453946709256726]","[0.3904838748425025,0.4546053290743273]",71.6927,74.4061,1,s,1,1.1829,,-0.447967632,0.547967632,0.995935263,74.4088,74.4089,0,2,2,2,1,0.118523945,0.118523945,shape_difference1,1,,TRUE,,intensity,0.1,0.05,0.7,0.3,0.82,20,400,1E-11,3.5,0.01,0.5,0.1,,,,,,,,,,,,,,,,,,,,,,,,,,,,,,,,,,,,,,,,,,,,,,,,,,,,,,,,,,,,,,,,,,,,,,,,,,,,,,,,,
,,,,,509243,001,2025-03-14_00h08.13.599,Utility_discrimination_2024_2cat,2024.2.4,MacIntel,60.24096386,,,,,,,,0,"[0.5,0.5]","[1,0]",s,"[0.5,0.6185239449756466]","[0.5,0.3814760550243534]",74.4102,77.1895,1,s,1,1.2494,,-0.447967632,0.547967632,0.995935263,77.1925,77.1925,0,3,3,3,1,0.118523945,0.118523945,shape_difference4,1,,TRUE,,intensity,0.1,0.05,0.7,0.3,0.82,20,400,1E-11,3.5,0.01,0.5,0.1,,,,,,,,,,,,,,,,,,,,,,,,,,,,,,,,,,,,,,,,,,,,,,,,,,,,,,,,,,,,,,,,,,,,,,,,,,,,,,,,,
,,,,,509243,001,2025-03-14_00h08.13.599,Utility_discrimination_2024_2cat,2024.2.4,MacIntel,60.24096386,,,,,,,,0,"[0.5,0.5]","[1,0]",s,"[0.6185239449756466,0.5]","[0.3814760550243534,0.5]",77.1941,79.8894,1,s,1,1.1751,,-0.479157219,0.478510979,0.957668197,79.8915,79.8915,0,4,4,4,1,0.118523945,0.118523945,shape_difference0,1,,TRUE,,intensity,0.1,0.05,0.7,0.3,0.82,20,400,1E-11,3.5,0.01,0.5,0.1,,,,,,,,,,,,,,,,,,,,,,,,,,,,,,,,,,,,,,,,,,,,,,,,,,,,,,,,,,,,,,,,,,,,,,,,,,,,,,,,,
,,,,,509243,001,2025-03-14_00h08.13.599,Utility_discrimination_2024_2cat,2024.2.4,MacIntel,60.24096386,,,,,,,,4,"[0.5,0.5]","[0,1]",s,"[0.5370015867235566,0.5]","[0.4629984132764434,0.5]",79.8925,82.3729,1,s,1,0.9496,,-0.479157219,0.478510979,0.957668197,82.3751,82.3751,0,5,5,5,1,0.037001587,0.037001587,shape_difference0,1,,TRUE,,intensity,0.1,0.05,0.7,0.3,0.82,20,400,1E-11,3.5,0.01,0.5,0.1,,,,,,,,,,,,,,,,,,,,,,,,,,,,,,,,,,,,,,,,,,,,,,,,,,,,,,,,,,,,,,,,,,,,,,,,,,,,,,,,,
,,,,,509243,001,2025-03-14_00h08.13.599,Utility_discrimination_2024_2cat,2024.2.4,MacIntel,60.24096386,,,,,,,,3,"[0.5,0.5]","[0.383,0.924]",s,"[0.5,0.5370015867235566]","[0.5,0.4629984132764434]",82.3761,85.123,1,s,1,1.2168,,-0.479157219,0.478510979,0.957668197,85.1264,85.1265,0,6,6,6,1,0.037001587,0.037001587,shape_difference4,1,,TRUE,,intensity,0.1,0.05,0.7,0.3,0.82,20,400,1E-11,3.5,0.01,0.5,0.1,,,,,,,,,,,,,,,,,,,,,,,,,,,,,,,,,,,,,,,,,,,,,,,,,,,,,,,,,,,,,,,,,,,,,,,,,,,,,,,,,
,,,,,509243,001,2025-03-14_00h08.13.599,Utility_discrimination_2024_2cat,2024.2.4,MacIntel,60.24096386,,,,,,,,2,"[0.5,0.5]","[0.707,0.707]",s,"[0.5141716077151222,0.5341894661325662]","[0.48582839228487784,0.46581053386743376]",85.1275,87.6064,0,s,0,0.95,,0.008797352,0.664308158,0.655510806,87.6096,87.6096,0,7,7,7,1,0.037001587,0.037001587,shape_difference3,1,,TRUE,,intensity,0.1,0.05,0.7,0.3,0.82,20,400,1E-11,3.5,0.01,0.5,0.1,,,,,,,,,,,,,,,,,,,,,,,,,,,,,,,,,,,,,,,,,,,,,,,,,,,,,,,,,,,,,,,,,,,,,,,,,,,,,,,,,
,,,,,509243,001,2025-03-14_00h08.13.599,Utility_discrimination_2024_2cat,2024.2.4,MacIntel,60.24096386,,,,,,,,1,"[0.5,0.5]","[0.924,0.383]",d,"[0.7295760208722043,0.7295760208722043]","[0.2704239791277957,0.2704239791277957]",87.6106,89.8732,1,s,1,0.7331,,-0.479157219,0.478510979,0.957668197,89.8761,89.8762,0,8,8,8,1,0.324718559,0.324718559,shape_difference2,1,,TRUE,,intensity,0.1,0.05,0.7,0.3,0.82,20,400,1E-11,3.5,0.01,0.5,0.1,,,,,,,,,,,,,,,,,,,,,,,,,,,,,,,,,,,,,,,,,,,,,,,,,,,,,,,,,,,,,,,,,,,,,,,,,,,,,,,,,
,,,,,509243,001,2025-03-14_00h08.13.599,Utility_discrimination_2024_2cat,2024.2.4,MacIntel,60.24096386,,,,,,,,1,"[0.5,0.5]","[0.924,0.383]",s,"[0.5341894661325662,0.5141716077151222]","[0.46581053386743376,0.48582839228487784]",89.8772,92.1231,0,s,0,0.7175,,-0.090065158,0.591798206,0.681863364,92.1269,92.1269,0,9,9,9,1,0.037001587,0.037001587,shape_difference1,1,,TRUE,,intensity,0.1,0.05,0.7,0.3,0.82,20,400,1E-11,3.5,0.01,0.5,0.1,,,,,,,,,,,,,,,,,,,,,,,,,,,,,,,,,,,,,,,,,,,,,,,,,,,,,,,,,,,,,,,,,,,,,,,,,,,,,,,,,
,,,,,509243,001,2025-03-14_00h08.13.599,Utility_discrimination_2024_2cat,2024.2.4,MacIntel,60.24096386,,,,,,,,3,"[0.5,0.5]","[0.383,0.924]",d,"[0.7085118474629236,0.586428612097727]","[0.2914881525370764,0.413571387902273]",92.128,94.3731,0,s,0,0.7166,,-0.090065158,0.591798206,0.681863364,94.3766,94.3766,0,10,10,10,1,0.225662173,0.225662173,shape_difference1,1,,TRUE,,intensity,0.1,0.05,0.7,0.3,0.82,20,400,1E-11,3.5,0.01,0.5,0.1,,,,,,,,,,,,,,,,,,,,,,,,,,,,,,,,,,,,,,,,,,,,,,,,,,,,,,,,,,,,,,,,,,,,,,,,,,,,,,,,,
,,,,,509243,001,2025-03-14_00h08.13.599,Utility_discrimination_2024_2cat,2024.2.4,MacIntel,60.24096386,,,,,,,,0,"[0.5,0.5]","[1,0]",d,"[0.586428612097727,0.7085118474629236]","[0.413571387902273,0.2914881525370764]",94.3775,96.7064,1,s,1,0.8002,,-0.510435314,0.404710629,0.915145943,96.7086,96.7086,0,11,11,11,1,0.225662173,0.225662173,shape_difference3,1,,TRUE,,intensity,0.1,0.05,0.7,0.3,0.82,20,400,1E-11,3.5,0.01,0.5,0.1,,,,,,,,,,,,,,,,,,,,,,,,,,,,,,,,,,,,,,,,,,,,,,,,,,,,,,,,,,,,,,,,,,,,,,,,,,,,,,,,,
,,,,,509243,001,2025-03-14_00h08.13.599,Utility_discrimination_2024_2cat,2024.2.4,MacIntel,60.24096386,,,,,,,,4,"[0.5,0.5]","[0,1]",s,"[0.4627317496680746,0.5]","[0.5372682503319254,0.5]",96.7103,98.6065,0,s,0,0.3669,,-0.510435314,0.404710629,0.915145943,98.6098,98.6098,0,12,12,12,1,-0.03726825,-0.03726825,shape_difference0,1,,TRUE,,intensity,0.1,0.05,0.7,0.3,0.82,20,400,1E-11,3.5,0.01,0.5,0.1,,,,,,,,,,,,,,,,,,,,,,,,,,,,,,,,,,,,,,,,,,,,,,,,,,,,,,,,,,,,,,,,,,,,,,,,,,,,,,,,,
,,,,,509243,001,2025-03-14_00h08.13.599,Utility_discrimination_2024_2cat,2024.2.4,MacIntel,60.24096386,,,,,,,,2,"[0.5,0.5]","[0.707,0.707]",d,"[0.5,0.4627317496680746]","[0.5,0.5372682503319254]",98.611,100.9232,1,s,1,0.7845,,-0.003741292,0.604569979,0.608311271,100.9261,100.9261,0,13,13,13,1,-0.03726825,-0.03726825,shape_difference4,1,,TRUE,,intensity,0.1,0.05,0.7,0.3,0.82,20,400,1E-11,3.5,0.01,0.5,0.1,,,,,,,,,,,,,,,,,,,,,,,,,,,,,,,,,,,,,,,,,,,,,,,,,,,,,,,,,,,,,,,,,,,,,,,,,,,,,,,,,
,,,,,509243,001,2025-03-14_00h08.13.599,Utility_discrimination_2024_2cat,2024.2.4,MacIntel,60.24096386,,,,,,,,3,"[0.5,0.5]","[0.383,0.924]",s,"[0.6942958639235853,0.6942958639235853]","[0.30570413607641467,0.30570413607641467]",100.9272,105.6067,0,s,0,3.1509,,-0.09936101,0.537490534,0.636851544,105.6103,105.6103,0,14,14,14,1,0.274817346,0.274817346,shape_difference2,1,,TRUE,,intensity,0.1,0.05,0.7,0.3,0.82,20,400,1E-11,3.5,0.01,0.5,0.1,,,,,,,,,,,,,,,,,,,,,,,,,,,,,,,,,,,,,,,,,,,,,,,,,,,,,,,,,,,,,,,,,,,,,,,,,,,,,,,,,
,,,,,509243,001,2025-03-14_00h08.13.599,Utility_discrimination_2024_2cat,2024.2.4,MacIntel,60.24096386,,,,,,,,4,"[0.5,0.5]","[0,1]",d,"[0.5657699535565752,0.658672159494192]","[0.4342300464434248,0.341327840505808]",105.6114,108.7903,0,s,0,1.6627,,-0.540713527,0.322166073,0.862879599,108.7933,108.7933,0,15,15,15,1,0.171723116,0.171723116,shape_difference3,1,,TRUE,,intensity,0.1,0.05,0.7,0.3,0.82,20,400,1E-11,3.5,0.01,0.5,0.1,,,,,,,,,,,,,,,,,,,,,,,,,,,,,,,,,,,,,,,,,,,,,,,,,,,,,,,,,,,,,,,,,,,,,,,,,,,,,,,,,
,,,,,509243,001,2025-03-14_00h08.13.599,Utility_discrimination_2024_2cat,2024.2.4,MacIntel,60.24096386,,,,,,,,2,"[0.5,0.5]","[0.707,0.707]",d,"[0.5,0.40339734014384304]","[0.5,0.5966026598561569]",108.7942,111.1234,1,s,1,0.8107,,0.166924593,0.726757578,0.559832986,111.129,111.129,0,16,16,16,1,-0.09660266,-0.09660266,shape_difference4,1,,TRUE,,intensity,0.1,0.05,0.7,0.3,0.82,20,400,1E-11,3.5,0.01,0.5,0.1,,,,,,,,,,,,,,,,,,,,,,,,,,,,,,,,,,,,,,,,,,,,,,,,,,,,,,,,,,,,,,,,,,,,,,,,,,,,,,,,,
,,,,,509243,001,2025-03-14_00h08.13.599,Utility_discrimination_2024_2cat,2024.2.4,MacIntel,60.24096386,,,,,,,,1,"[0.5,0.5]","[0.924,0.383]",s,"[0.8022406483765934,0.8022406483765934]","[0.19775935162340663,0.19775935162340663]",111.13,113.6234,0,s,0,0.9661,,0.100128431,0.691751185,0.591622754,113.627,113.627,0,17,17,17,1,0.427497381,0.427497381,shape_difference2,1,,TRUE,,intensity,0.1,0.05,0.7,0.3,0.82,20,400,1E-11,3.5,0.01,0.5,0.1,,,,,,,,,,,,,,,,,,,,,,,,,,,,,,,,,,,,,,,,,,,,,,,,,,,,,,,,,,,,,,,,,,,,,,,,,,,,,,,,,
,,,,,509243,001,2025-03-14_00h08.13.599,Utility_discrimination_2024_2cat,2024.2.4,MacIntel,60.24096386,,,,,,,,0,"[0.5,0.5]","[1,0]",d,"[0.8466998224093067,0.6437078268211737]","[0.1533001775906932,0.35629217317882633]",113.628,116.1568,1,s,1,1.0007,,-0.118157943,0.566731222,0.684889165,116.1598,116.1599,0,18,18,18,1,0.375216258,0.375216258,shape_difference1,1,,TRUE,,intensity,0.1,0.05,0.7,0.3,0.82,20,400,1E-11,3.5,0.01,0.5,0.1,,,,,,,,,,,,,,,,,,,,,,,,,,,,,,,,,,,,,,,,,,,,,,,,,,,,,,,,,,,,,,,,,,,,,,,,,,,,,,,,,
,,,,,509243,001,2025-03-14_00h08.13.599,Utility_discrimination_2024_2cat,2024.2.4,MacIntel,60.24096386,,,,,,,,0,"[0.5,0.5]","[1,0]",s,"[0.6844698465378827,0.5]","[0.3155301534621173,0.5]",116.1609,118.6403,0,s,0,0.9502,,0.074504002,0.684517101,0.610013099,118.6436,118.6436,0,19,19,19,1,0.184469847,0.184469847,shape_difference0,1,,TRUE,,intensity,0.1,0.05,0.7,0.3,0.82,20,400,1E-11,3.5,0.01,0.5,0.1,,,,,,,,,,,,,,,,,,,,,,,,,,,,,,,,,,,,,,,,,,,,,,,,,,,,,,,,,,,,,,,,,,,,,,,,,,,,,,,,,
,,,,,509243,001,2025-03-14_00h08.13.599,Utility_discrimination_2024_2cat,2024.2.4,MacIntel,60.24096386,,,,,,,,4,"[0.5,0.5]","[0,1]",d,"[0.8628706272262292,0.5]","[0.1371293727737708,0.5]",118.6448,121.1731,0,s,0,1.0007,,-0.569624043,0.240042019,0.809666061,121.1754,121.1755,0,20,20,20,1,0.362870627,0.362870627,shape_difference0,1,,TRUE,,intensity,0.1,0.05,0.7,0.3,0.82,20,400,1E-11,3.5,0.01,0.5,0.1,,,,,,,,,,,,,,,,,,,,,,,,,,,,,,,,,,,,,,,,,,,,,,,,,,,,,,,,,,,,,,,,,,,,,,,,,,,,,,,,,
,,,,,509243,001,2025-03-14_00h08.13.599,Utility_discrimination_2024_2cat,2024.2.4,MacIntel,60.24096386,,,,,,,,2,"[0.5,0.5]","[0.707,0.707]",d,"[0.5,0.35243994249424015]","[0.5,0.6475600575057598]",121.1775,123.6076,1,d,1,0.9123,,0.301007827,0.80166167,0.500653843,123.6103,123.6104,0,21,21,21,1,-0.147560058,-0.147560058,shape_difference4,1,,TRUE,,intensity,0.1,0.05,0.7,0.3,0.82,20,400,1E-11,3.5,0.01,0.5,0.1,,,,,,,,,,,,,,,,,,,,,,,,,,,,,,,,,,,,,,,,,,,,,,,,,,,,,,,,,,,,,,,,,,,,,,,,,,,,,,,,,
,,,,,509243,001,2025-03-14_00h08.13.599,Utility_discrimination_2024_2cat,2024.2.4,MacIntel,60.24096386,,,,,,,,3,"[0.5,0.5]","[0.383,0.924]",d,"[0.8770730239723192,0.8770730239723192]","[0.12292697602768082,0.12292697602768082]",123.6116,126.1405,1,s,1,1.0011,,0.064206312,0.666780888,0.602574576,126.1439,126.144,0,22,22,22,1,0.533342325,0.533342325,shape_difference2,1,,TRUE,,intensity,0.1,0.05,0.7,0.3,0.82,20,400,1E-11,3.5,0.01,0.5,0.1,,,,,,,,,,,,,,,,,,,,,,,,,,,,,,,,,,,,,,,,,,,,,,,,,,,,,,,,,,,,,,,,,,,,,,,,,,,,,,,,,
,,,,,509243,001,2025-03-14_00h08.13.599,Utility_discrimination_2024_2cat,2024.2.4,MacIntel,60.24096386,,,,,,,,1,"[0.5,0.5]","[0.924,0.383]",s,"[0.6302313832364322,0.8141874624294083]","[0.36976861676356776,0.18581253757059168]",126.145,128.7069,1,d,1,1.0419,,0.07990875,0.64259131,0.56268256,128.7099,128.7099,0,23,23,23,1,0.340029721,0.340029721,shape_difference3,1,,TRUE,,intensity,0.1,0.05,0.7,0.3,0.82,20,400,1E-11,3.5,0.01,0.5,0.1,,,,,,,,,,,,,,,,,,,,,,,,,,,,,,,,,,,,,,,,,,,,,,,,,,,,,,,,,,,,,,,,,,,,,,,,,,,,,,,,,
,,,,,509243,001,2025-03-14_00h08.13.599,Utility_discrimination_2024_2cat,2024.2.4,MacIntel,60.24096386,,,,,,,,3,"[0.5,0.5]","[0.383,0.924]",d,"[0.8099004102361802,0.6284543908230055]","[0.19009958976381974,0.37154560917699453]",128.7111,131.3404,1,s,1,1.0999,,0.046106493,0.612747238,0.566640745,131.3442,131.3442,0,24,24,24,1,0.335390054,0.335390054,shape_difference1,1,,TRUE,,intensity,0.1,0.05,0.7,0.3,0.82,20,400,1E-11,3.5,0.01,0.5,0.1,,,,,,,,,,,,,,,,,,,,,,,,,,,,,,,,,,,,,,,,,,,,,,,,,,,,,,,,,,,,,,,,,,,,,,,,,,,,,,,,,
,,,,,509243,001,2025-03-14_00h08.13.599,Utility_discrimination_2024_2cat,2024.2.4,MacIntel,60.24096386,,,,,,,,0,"[0.5,0.5]","[1,0]",s,"[0.6125110353053631,0.7714365447053668]","[0.3874889646946369,0.22856345529463312]",131.3457,134.1738,1,d,1,1.3001,,0.261162334,0.796264223,0.535101889,134.1769,134.1769,0,25,25,25,1,0.293762494,0.293762494,shape_difference3,1,,TRUE,,intensity,0.1,0.05,0.7,0.3,0.82,20,400,1E-11,3.5,0.01,0.5,0.1,,,,,,,,,,,,,,,,,,,,,,,,,,,,,,,,,,,,,,,,,,,,,,,,,,,,,,,,,,,,,,,,,,,,,,,,,,,,,,,,,
,,,,,509243,001,2025-03-14_00h08.13.599,Utility_discrimination_2024_2cat,2024.2.4,MacIntel,60.24096386,,,,,,,,1,"[0.5,0.5]","[0.924,0.383]",d,"[1.0219065520197548,0.5]","[-0.021906552019754666,0.5]",134.1783,136.6738,1,s,1,0.9663,,0.058226883,0.589904361,0.531677478,136.6771,136.6772,0,26,26,26,1,0.521906552,0.521906552,shape_difference0,1,,TRUE,,intensity,0.1,0.05,0.7,0.3,0.82,20,400,1E-11,3.5,0.01,0.5,0.1,,,,,,,,,,,,,,,,,,,,,,,,,,,,,,,,,,,,,,,,,,,,,,,,,,,,,,,,,,,,,,,,,,,,,,,,,,,,,,,,,
,,,,,509243,001,2025-03-14_00h08.13.599,Utility_discrimination_2024_2cat,2024.2.4,MacIntel,60.24096386,,,,,,,,4,"[0.5,0.5]","[0,1]",s,"[0.7726255931667183,0.6130038984662913]","[0.22737440683328164,0.3869961015337087]",136.6792,138.7905,0,s,0,0.5866,,-0.588261172,0.151848651,0.740109824,138.7938,138.7938,0,27,27,27,1,0.295049343,0.295049343,shape_difference1,1,,TRUE,,intensity,0.1,0.05,0.7,0.3,0.82,20,400,1E-11,3.5,0.01,0.5,0.1,,,,,,,,,,,,,,,,,,,,,,,,,,,,,,,,,,,,,,,,,,,,,,,,,,,,,,,,,,,,,,,,,,,,,,,,,,,,,,,,,
,,,,,509243,001,2025-03-14_00h08.13.599,Utility_discrimination_2024_2cat,2024.2.4,MacIntel,60.24096386,,,,,,,,2,"[0.5,0.5]","[0.707,0.707]",d,"[0.5,0.3089903613102919]","[0.5,0.6910096386897081]",138.7951,141.257,0,s,0,0.9321,,0.278309554,0.769651804,0.49134225,141.2599,141.2599,0,28,28,28,1,-0.191009639,-0.191009639,shape_difference4,1,,TRUE,,intensity,0.1,0.05,0.7,0.3,0.82,20,400,1E-11,3.5,0.01,0.5,0.1,,,,,,,,,,,,,,,,,,,,,,,,,,,,,,,,,,,,,,,,,,,,,,,,,,,,,,,,,,,,,,,,,,,,,,,,,,,,,,,,,
,,,,,509243,001,2025-03-14_00h08.13.599,Utility_discrimination_2024_2cat,2024.2.4,MacIntel,60.24096386,,,,,,,,3,"[0.5,0.5]","[0.383,0.924]",d,"[0.8505126897139014,0.8505126897139014]","[0.14948731028609863,0.14948731028609863]",141.2609,143.8072,0,d,0,1.0172,,0.034258812,0.562756016,0.528497204,143.8096,143.8096,0,29,29,29,1,0.495774667,0.495774667,shape_difference2,1,,TRUE,,intensity,0.1,0.05,0.7,0.3,0.82,20,400,1E-11,3.5,0.01,0.5,0.1,,,,,,,,,,,,,,,,,,,,,,,,,,,,,,,,,,,,,,,,,,,,,,,,,,,,,,,,,,,,,,,,,,,,,,,,,,,,,,,,,
,,,,,509243,001,2025-03-14_00h08.13.599,Utility_discrimination_2024_2cat,2024.2.4,MacIntel,60.24096386,,,,,,,,0,"[0.5,0.5]","[1,0]",s,"[0.6004580696638845,0.7423583717217473]","[0.3995419303361155,0.25764162827825265]",143.8108,146.3907,0,d,0,1.0501,,0.244240962,0.761784365,0.517543403,146.3943,146.3943,0,30,30,30,1,0.26229261,0.26229261,shape_difference3,1,,TRUE,,intensity,0.1,0.05,0.7,0.3,0.82,20,400,1E-11,3.5,0.01,0.5,0.1,,,,,,,,,,,,,,,,,,,,,,,,,,,,,,,,,,,,,,,,,,,,,,,,,,,,,,,,,,,,,,,,,,,,,,,,,,,,,,,,,
,,,,,509243,001,2025-03-14_00h08.13.599,Utility_discrimination_2024_2cat,2024.2.4,MacIntel,60.24096386,,,,,,,,1,"[0.5,0.5]","[0.924,0.383]",s,"[0.9851729951468372,0.5]","[0.014827004853162795,0.5]",146.3955,148.7575,1,d,1,0.8334,,0.180392649,0.6906169,0.510224251,148.7615,148.7616,0,31,31,31,1,0.485172995,0.485172995,shape_difference0,1,,TRUE,,intensity,0.1,0.05,0.7,0.3,0.82,20,400,1E-11,3.5,0.01,0.5,0.1,,,,,,,,,,,,,,,,,,,,,,,,,,,,,,,,,,,,,,,,,,,,,,,,,,,,,,,,,,,,,,,,,,,,,,,,,,,,,,,,,
,,,,,509243,001,2025-03-14_00h08.13.599,Utility_discrimination_2024_2cat,2024.2.4,MacIntel,60.24096386,,,,,,,,2,"[0.5,0.5]","[0.707,0.707]",d,"[0.8705534571342162,0.6535952100458926]","[0.12944654286578378,0.3464047899541074]",148.7629,151.3233,0,d,0,1.0329,,0.38007158,0.856700825,0.476629245,151.3259,151.3259,0,32,32,32,1,0.40103188,0.40103188,shape_difference1,1,,TRUE,,intensity,0.1,0.05,0.7,0.3,0.82,20,400,1E-11,3.5,0.01,0.5,0.1,,,,,,,,,,,,,,,,,,,,,,,,,,,,,,,,,,,,,,,,,,,,,,,,,,,,,,,,,,,,,,,,,,,,,,,,,,,,,,,,,
,,,,,509243,001,2025-03-14_00h08.13.599,Utility_discrimination_2024_2cat,2024.2.4,MacIntel,60.24096386,,,,,,,,4,"[0.5,0.5]","[0,1]",s,"[0.9200954733934128,0.9200954733934128]","[0.07990452660658726,0.07990452660658726]",151.3273,153.7241,1,s,1,0.8685,,-0.29768699,0.301474633,0.599161623,153.7273,153.7274,0,33,33,33,1,0.594194446,0.594194446,shape_difference2,1,,TRUE,,intensity,0.1,0.05,0.7,0.3,0.82,20,400,1E-11,3.5,0.01,0.5,0.1,,,,,,,,,,,,,,,,,,,,,,,,,,,,,,,,,,,,,,,,,,,,,,,,,,,,,,,,,,,,,,,,,,,,,,,,,,,,,,,,,
,,,,,509243,001,2025-03-14_00h08.13.599,Utility_discrimination_2024_2cat,2024.2.4,MacIntel,60.24096386,,,,,,,,2,"[0.5,0.5]","[0.707,0.707]",s,"[0.5,0.4337112249519862]","[0.5,0.5662887750480138]",153.7288,156.2239,0,s,0,0.9782,,0.362769636,0.807853515,0.445083879,156.2263,156.2263,0,34,34,34,1,-0.066288775,-0.066288775,shape_difference4,1,,TRUE,,intensity,0.1,0.05,0.7,0.3,0.82,20,400,1E-11,3.5,0.01,0.5,0.1,,,,,,,,,,,,,,,,,,,,,,,,,,,,,,,,,,,,,,,,,,,,,,,,,,,,,,,,,,,,,,,,,,,,,,,,,,,,,,,,,
,,,,,509243,001,2025-03-14_00h08.13.599,Utility_discrimination_2024_2cat,2024.2.4,MacIntel,60.24096386,,,,,,,,1,"[0.5,0.5]","[0.924,0.383]",d,"[0.9023342306484103,0.9023342306484103]","[0.09766576935158966,0.09766576935158966]",156.2276,158.6075,1,d,1,0.8491,,0.283758098,0.783150624,0.499392526,158.6109,158.6109,0,35,35,35,1,0.569072462,0.569072462,shape_difference2,1,,TRUE,,intensity,0.1,0.05,0.7,0.3,0.82,20,400,1E-11,3.5,0.01,0.5,0.1,,,,,,,,,,,,,,,,,,,,,,,,,,,,,,,,,,,,,,,,,,,,,,,,,,,,,,,,,,,,,,,,,,,,,,,,,,,,,,,,,
,,,,,509243,001,2025-03-14_00h08.13.599,Utility_discrimination_2024_2cat,2024.2.4,MacIntel,60.24096386,,,,,,,,3,"[0.5,0.5]","[0.383,0.924]",d,"[0.9675840400583721,0.693814596690862]","[0.032415959941627936,0.306185403309138]",158.6122,160.8907,1,s,1,0.7524,,0.151799491,0.684255939,0.532456448,160.8929,160.8929,0,36,36,36,1,0.506043333,0.506043333,shape_difference1,1,,TRUE,,intensity,0.1,0.05,0.7,0.3,0.82,20,400,1E-11,3.5,0.01,0.5,0.1,,,,,,,,,,,,,,,,,,,,,,,,,,,,,,,,,,,,,,,,,,,,,,,,,,,,,,,,,,,,,,,,,,,,,,,,,,,,,,,,,
,,,,,509243,001,2025-03-14_00h08.13.599,Utility_discrimination_2024_2cat,2024.2.4,MacIntel,60.24096386,,,,,,,,4,"[0.5,0.5]","[0,1]",s,"[0.6477262711119129,0.8563944504109857]","[0.35227372888808706,0.14360554958901423]",160.894,163.2406,1,d,1,0.8269,,-0.195127186,0.426357051,0.621484237,163.2428,163.2428,0,37,37,37,1,0.38570828,0.38570828,shape_difference3,1,,TRUE,,intensity,0.1,0.05,0.7,0.3,0.82,20,400,1E-11,3.5,0.01,0.5,0.1,,,,,,,,,,,,,,,,,,,,,,,,,,,,,,,,,,,,,,,,,,,,,,,,,,,,,,,,,,,,,,,,,,,,,,,,,,,,,,,,,
,,,,,509243,001,2025-03-14_00h08.13.599,Utility_discrimination_2024_2cat,2024.2.4,MacIntel,60.24096386,,,,,,,,0,"[0.5,0.5]","[1,0]",d,"[0.5,0.5332458319109037]","[0.5,0.4667541680890963]",163.2436,165.6898,1,d,1,0.9174,,0.232879886,0.709038739,0.476158853,165.6921,165.6921,0,38,38,38,1,0.033245832,0.033245832,shape_difference4,1,,TRUE,,intensity,0.1,0.05,0.7,0.3,0.82,20,400,1E-11,3.5,0.01,0.5,0.1,,,,,,,,,,,,,,,,,,,,,,,,,,,,,,,,,,,,,,,,,,,,,,,,,,,,,,,,,,,,,,,,,,,,,,,,,,,,,,,,,
,,,,,509243,001,2025-03-14_00h08.13.599,Utility_discrimination_2024_2cat,2024.2.4,MacIntel,60.24096386,,,,,,,,1,"[0.5,0.5]","[0.924,0.383]",d,"[0.9581669001443303,0.5]","[0.04183309985566974,0.5]",165.6932,168.1908,1,d,1,0.9699,,0.264795094,0.742648662,0.477853569,168.1937,168.1938,0,39,39,39,1,0.4581669,0.4581669,shape_difference0,1,,TRUE,,intensity,0.1,0.05,0.7,0.3,0.82,20,400,1E-11,3.5,0.01,0.5,0.1,,,,,,,,,,,,,,,,,,,,,,,,,,,,,,,,,,,,,,,,,,,,,,,,,,,,,,,,,,,,,,,,,,,,,,,,,,,,,,,,,
,,,,,509243,001,2025-03-14_00h08.13.599,Utility_discrimination_2024_2cat,2024.2.4,MacIntel,60.24096386,,,,,,,,2,"[0.5,0.5]","[0.707,0.707]",d,"[0.9401760002161089,0.6824539048514824]","[0.05982399978389108,0.3175460951485176]",168.1952,170.3909,0,d,0,0.6686,,0.35078619,0.774189429,0.423403239,170.3931,170.3932,0,40,40,40,1,0.476380953,0.476380953,shape_difference1,1,,TRUE,,intensity,0.1,0.05,0.7,0.3,0.82,20,400,1E-11,3.5,0.01,0.5,0.1,,,,,,,,,,,,,,,,,,,,,,,,,,,,,,,,,,,,,,,,,,,,,,,,,,,,,,,,,,,,,,,,,,,,,,,,,,,,,,,,,
,,,,,509243,001,2025-03-14_00h08.13.599,Utility_discrimination_2024_2cat,2024.2.4,MacIntel,60.24096386,,,,,,,,4,"[0.5,0.5]","[0,1]",s,"[0.8870422665270334,0.8870422665270334]","[0.11295773347296661,0.11295773347296661]",170.3945,172.7575,1,d,1,0.8334,,-0.205141804,0.360924632,0.566066437,172.7606,172.7606,0,41,41,41,1,0.547443093,0.547443093,shape_difference2,1,,TRUE,,intensity,0.1,0.05,0.7,0.3,0.82,20,400,1E-11,3.5,0.01,0.5,0.1,,,,,,,,,,,,,,,,,,,,,,,,,,,,,,,,,,,,,,,,,,,,,,,,,,,,,,,,,,,,,,,,,,,,,,,,,,,,,,,,,
,,,,,509243,001,2025-03-14_00h08.13.599,Utility_discrimination_2024_2cat,2024.2.4,MacIntel,60.24096386,,,,,,,,3,"[0.5,0.5]","[0.383,0.924]",d,"[0.5,0.4907231542844528]","[0.5,0.5092768457155472]",172.7618,174.8744,1,d,1,0.5847,,0.140420307,0.635719401,0.495299094,174.877,174.8771,0,42,42,42,1,-0.009276846,-0.009276846,shape_difference4,1,,TRUE,,intensity,0.1,0.05,0.7,0.3,0.82,20,400,1E-11,3.5,0.01,0.5,0.1,,,,,,,,,,,,,,,,,,,,,,,,,,,,,,,,,,,,,,,,,,,,,,,,,,,,,,,,,,,,,,,,,,,,,,,,,,,,,,,,,
,,,,,509243,001,2025-03-14_00h08.13.599,Utility_discrimination_2024_2cat,2024.2.4,MacIntel,60.24096386,,,,,,,,0,"[0.5,0.5]","[1,0]",d,"[0.636557903154201,0.8294503982101351]","[0.363442096845799,0.17054960178986495]",174.8782,177.741,0,d,0,1.3361,,0.225013158,0.670556941,0.445543783,177.7444,177.7444,0,43,43,43,1,0.35654805,0.35654805,shape_difference3,1,,TRUE,,intensity,0.1,0.05,0.7,0.3,0.82,20,400,1E-11,3.5,0.01,0.5,0.1,,,,,,,,,,,,,,,,,,,,,,,,,,,,,,,,,,,,,,,,,,,,,,,,,,,,,,,,,,,,,,,,,,,,,,,,,,,,,,,,,
,,,,,509243,001,2025-03-14_00h08.13.599,Utility_discrimination_2024_2cat,2024.2.4,MacIntel,60.24096386,,,,,,,,3,"[0.5,0.5]","[0.383,0.924]",s,"[0.9344433337134149,0.5]","[0.06555666628658507,0.5]",177.7453,180.0744,1,d,1,0.8009,,0.247020166,0.755670473,0.508650307,180.0771,180.0772,0,44,44,44,1,0.434443334,0.434443334,shape_difference0,1,,TRUE,,intensity,0.1,0.05,0.7,0.3,0.82,20,400,1E-11,3.5,0.01,0.5,0.1,,,,,,,,,,,,,,,,,,,,,,,,,,,,,,,,,,,,,,,,,,,,,,,,,,,,,,,,,,,,,,,,,,,,,,,,,,,,,,,,,
,,,,,509243,001,2025-03-14_00h08.13.599,Utility_discrimination_2024_2cat,2024.2.4,MacIntel,60.24096386,,,,,,,,0,"[0.5,0.5]","[1,0]",d,"[0.6820086562081913,0.9391018233325554]","[0.3179913437918087,0.06089817666744457]",180.0783,182.3409,1,s,1,0.7431,,0.216093901,0.632788942,0.416695042,182.3437,182.3437,0,45,45,45,1,0.475218424,0.475218424,shape_difference3,1,,TRUE,,intensity,0.1,0.05,0.7,0.3,0.82,20,400,1E-11,3.5,0.01,0.5,0.1,,,,,,,,,,,,,,,,,,,,,,,,,,,,,,,,,,,,,,,,,,,,,,,,,,,,,,,,,,,,,,,,,,,,,,,,,,,,,,,,,
,,,,,509243,001,2025-03-14_00h08.13.599,Utility_discrimination_2024_2cat,2024.2.4,MacIntel,60.24096386,,,,,,,,4,"[0.5,0.5]","[0,1]",s,"[0.9087355101511663,0.5]","[0.09126448984883373,0.5]",182.3448,184.8912,1,d,1,1.0174,,-0.225795414,0.284100808,0.509896222,184.8944,184.8944,0,46,46,46,1,0.40873551,0.40873551,shape_difference0,1,,TRUE,,intensity,0.1,0.05,0.7,0.3,0.82,20,400,1E-11,3.5,0.01,0.5,0.1,,,,,,,,,,,,,,,,,,,,,,,,,,,,,,,,,,,,,,,,,,,,,,,,,,,,,,,,,,,,,,,,,,,,,,,,,,,,,,,,,
,,,,,509243,001,2025-03-14_00h08.13.599,Utility_discrimination_2024_2cat,2024.2.4,MacIntel,60.24096386,,,,,,,,1,"[0.5,0.5]","[0.924,0.383]",d,"[0.5,0.46510694906282735]","[0.5,0.5348930509371727]",184.8959,187.7079,0,d,0,1.2836,,0.36120461,0.838947669,0.477743059,187.7113,187.7114,0,47,47,47,1,-0.034893051,-0.034893051,shape_difference4,1,,TRUE,,intensity,0.1,0.05,0.7,0.3,0.82,20,400,1E-11,3.5,0.01,0.5,0.1,,,,,,,,,,,,,,,,,,,,,,,,,,,,,,,,,,,,,,,,,,,,,,,,,,,,,,,,,,,,,,,,,,,,,,,,,,,,,,,,,
,,,,,509243,001,2025-03-14_00h08.13.599,Utility_discrimination_2024_2cat,2024.2.4,MacIntel,60.24096386,,,,,,,,2,"[0.5,0.5]","[0.707,0.707]",s,"[1.0353345362276516,0.721897323999124]","[-0.03533453622765159,0.278102676000876]",187.7125,189.7407,1,d,1,0.5105,,0.33804248,0.742793265,0.404750785,189.7434,189.7435,0,48,48,48,1,0.579366381,0.579366381,shape_difference1,1,,TRUE,,intensity,0.1,0.05,0.7,0.3,0.82,20,400,1E-11,3.5,0.01,0.5,0.1,,,,,,,,,,,,,,,,,,,,,,,,,,,,,,,,,,,,,,,,,,,,,,,,,,,,,,,,,,,,,,,,,,,,,,,,,,,,,,,,,
,,,,,509243,001,2025-03-14_00h08.13.599,Utility_discrimination_2024_2cat,2024.2.4,MacIntel,60.24096386,,,,,,,,1,"[0.5,0.5]","[0.924,0.383]",d,"[0.8718438857238784,0.8718438857238784]","[0.1281561142761216,0.1281561142761216]",189.7445,192.0912,1,d,1,0.8253,,0.348802425,0.791547173,0.442744747,192.0944,192.0944,0,49,49,49,1,0.52594609,0.52594609,shape_difference2,1,,TRUE,,intensity,0.1,0.05,0.7,0.3,0.82,20,400,1E-11,3.5,0.01,0.5,0.1,,,,,,,,,,,,,,,,,,,,,,,,,,,,,,,,,,,,,,,,,,,,,,,,,,,,,,,,,,,,,,,,,,,,,,,,,,,,,,,,,
,,,,,509243,001,2025-03-14_00h08.13.599,Utility_discrimination_2024_2cat,2024.2.4,MacIntel,60.24096386,,,,,,,,4,"[0.5,0.5]","[0,1]",d,"[1.012742782029195,0.7125329929839628]","[-0.012742782029194877,0.28746700701603717]",192.0958,194.3746,1,d,1,0.7503,,-0.146847423,0.449832321,0.596679744,194.3774,194.3774,0,50,50,50,1,0.554916431,0.554916431,shape_difference1,1,,TRUE,,intensity,0.1,0.05,0.7,0.3,0.82,20,400,1E-11,3.5,0.01,0.5,0.1,,,,,,,,,,,,,,,,,,,,,,,,,,,,,,,,,,,,,,,,,,,,,,,,,,,,,,,,,,,,,,,,,,,,,,,,,,,,,,,,,
,,,,,509243,001,2025-03-14_00h08.13.599,Utility_discrimination_2024_2cat,2024.2.4,MacIntel,60.24096386,,,,,,,,3,"[0.5,0.5]","[0.383,0.924]",d,"[0.5,0.5752879207261415]","[0.5,0.42471207927385846]",194.3786,196.7079,0,d,0,0.802,,0.237291921,0.699004155,0.461712234,196.7112,196.7112,0,51,51,51,1,0.075287921,0.075287921,shape_difference4,1,,TRUE,,intensity,0.1,0.05,0.7,0.3,0.82,20,400,1E-11,3.5,0.01,0.5,0.1,,,,,,,,,,,,,,,,,,,,,,,,,,,,,,,,,,,,,,,,,,,,,,,,,,,,,,,,,,,,,,,,,,,,,,,,,,,,,,,,,
,,,,,509243,001,2025-03-14_00h08.13.599,Utility_discrimination_2024_2cat,2024.2.4,MacIntel,60.24096386,,,,,,,,0,"[0.5,0.5]","[1,0]",s,"[0.6716261697832764,0.9140537359784526]","[0.3283738302167236,0.08594626402154731]",196.7126,198.8403,0,s,0,0.6013,,0.209615013,0.592349315,0.382734301,198.8429,198.843,0,52,52,52,1,0.448110104,0.448110104,shape_difference3,1,,TRUE,,intensity,0.1,0.05,0.7,0.3,0.82,20,400,1E-11,3.5,0.01,0.5,0.1,,,,,,,,,,,,,,,,,,,,,,,,,,,,,,,,,,,,,,,,,,,,,,,,,,,,,,,,,,,,,,,,,,,,,,,,,,,,,,,,,
,,,,,509243,001,2025-03-14_00h08.13.599,Utility_discrimination_2024_2cat,2024.2.4,MacIntel,60.24096386,,,,,,,,2,"[0.5,0.5]","[0.707,0.707]",d,"[0.8879608036695118,0.5]","[0.1120391963304882,0.5]",198.8443,201.3414,1,d,1,0.9669,,0.329071982,0.699268481,0.370196499,201.3447,201.3448,0,53,53,53,1,0.387960804,0.387960804,shape_difference0,1,,TRUE,,intensity,0.1,0.05,0.7,0.3,0.82,20,400,1E-11,3.5,0.01,0.5,0.1,,,,,,,,,,,,,,,,,,,,,,,,,,,,,,,,,,,,,,,,,,,,,,,,,,,,,,,,,,,,,,,,,,,,,,,,,,,,,,,,,
,,,,,509243,001,2025-03-14_00h08.13.599,Utility_discrimination_2024_2cat,2024.2.4,MacIntel,60.24096386,,,,,,,,2,"[0.5,0.5]","[0.707,0.707]",d,"[0.8550413717676961,0.8550413717676961]","[0.14495862823230382,0.14495862823230382]",201.346,203.9914,0,d,0,1.1206,,0.404714565,0.776719243,0.372004677,203.9938,203.9938,0,54,54,54,1,0.502180158,0.502180158,shape_difference2,1,,TRUE,,intensity,0.1,0.05,0.7,0.3,0.82,20,400,1E-11,3.5,0.01,0.5,0.1,,,,,,,,,,,,,,,,,,,,,,,,,,,,,,,,,,,,,,,,,,,,,,,,,,,,,,,,,,,,,,,,,,,,,,,,,,,,,,,,,
,,,,,509243,001,2025-03-14_00h08.13.599,Utility_discrimination_2024_2cat,2024.2.4,MacIntel,60.24096386,,,,,,,,0,"[0.5,0.5]","[1,0]",s,"[0.8970580175578378,0.8970580175578378]","[0.1029419824421623,0.1029419824421623]",203.9953,206.5745,0,d,0,1.0492,,0.2047487,0.567100535,0.362351835,206.5774,206.5774,0,55,55,55,1,0.561609643,0.561609643,shape_difference2,1,,TRUE,,intensity,0.1,0.05,0.7,0.3,0.82,20,400,1E-11,3.5,0.01,0.5,0.1,,,,,,,,,,,,,,,,,,,,,,,,,,,,,,,,,,,,,,,,,,,,,,,,,,,,,,,,,,,,,,,,,,,,,,,,,,,,,,,,,
,,,,,509243,001,2025-03-14_00h08.13.599,Utility_discrimination_2024_2cat,2024.2.4,MacIntel,60.24096386,,,,,,,,4,"[0.5,0.5]","[0,1]",s,"[0.87292870480142,0.5]","[0.12707129519857996,0.5]",206.5784,209.3746,0,d,0,1.2766,,-0.042479118,0.58275167,0.625230788,209.3769,209.3769,0,56,56,56,1,0.372928705,0.372928705,shape_difference0,1,,TRUE,,intensity,0.1,0.05,0.7,0.3,0.82,20,400,1E-11,3.5,0.01,0.5,0.1,,,,,,,,,,,,,,,,,,,,,,,,,,,,,,,,,,,,,,,,,,,,,,,,,,,,,,,,,,,,,,,,,,,,,,,,,,,,,,,,,
,,,,,509243,001,2025-03-14_00h08.13.599,Utility_discrimination_2024_2cat,2024.2.4,MacIntel,60.24096386,,,,,,,,1,"[0.5,0.5]","[0.924,0.383]",s,"[0.5,0.7228864176114029]","[0.5,0.277113582388597]",209.3782,212.0083,1,d,1,1.1,,0.34010668,0.757098437,0.416991758,212.0115,212.0115,0,57,57,57,1,0.222886418,0.222886418,shape_difference4,1,,TRUE,,intensity,0.1,0.05,0.7,0.3,0.82,20,400,1E-11,3.5,0.01,0.5,0.1,,,,,,,,,,,,,,,,,,,,,,,,,,,,,,,,,,,,,,,,,,,,,,,,,,,,,,,,,,,,,,,,,,,,,,,,,,,,,,,,,
,,,,,509243,001,2025-03-14_00h08.13.599,Utility_discrimination_2024_2cat,2024.2.4,MacIntel,60.24096386,,,,,,,,3,"[0.5,0.5]","[0.383,0.924]",d,"[0.9926826537719284,0.7042180264011348]","[0.007317346228071564,0.29578197359886516]",212.0128,214.4415,0,d,0,0.9014,,0.312094399,0.772789724,0.460695326,214.4439,214.4439,0,58,58,58,1,0.533206335,0.533206335,shape_difference1,1,,TRUE,,intensity,0.1,0.05,0.7,0.3,0.82,20,400,1E-11,3.5,0.01,0.5,0.1,,,,,,,,,,,,,,,,,,,,,,,,,,,,,,,,,,,,,,,,,,,,,,,,,,,,,,,,,,,,,,,,,,,,,,,,,,,,,,,,,
,,,,,509243,001,2025-03-14_00h08.13.599,Utility_discrimination_2024_2cat,2024.2.4,MacIntel,60.24096386,,,,,,,,4,"[0.5,0.5]","[0,1]",s,"[0.6946800326315357,0.9696719325105456]","[0.30531996736846434,0.030328067489454436]",214.4452,216.8249,0,d,0,0.8502,,-0.056495208,0.525819328,0.582314536,216.8289,216.8289,0,59,59,59,1,0.508302957,0.508302957,shape_difference3,1,,TRUE,,intensity,0.1,0.05,0.7,0.3,0.82,20,400,1E-11,3.5,0.01,0.5,0.1,,,,,,,,,,,,,,,,,,,,,,,,,,,,,,,,,,,,,,,,,,,,,,,,,,,,,,,,,,,,,,,,,,,,,,,,,,,,,,,,,
,,,,,509243,001,2025-03-14_00h08.13.599,Utility_discrimination_2024_2cat,2024.2.4,MacIntel,60.24096386,,,,,,,,1,"[0.5,0.5]","[0.924,0.383]",s,"[0.5,0.6775634989133991]","[0.5,0.32243650108660094]",216.8302,219.4749,1,s,1,1.1273,,0.410246373,0.809912634,0.399666261,219.4774,219.4774,0,60,60,60,1,0.177563499,0.177563499,shape_difference4,1,,TRUE,,intensity,0.1,0.05,0.7,0.3,0.82,20,400,1E-11,3.5,0.01,0.5,0.1,,,,,,,,,,,,,,,,,,,,,,,,,,,,,,,,,,,,,,,,,,,,,,,,,,,,,,,,,,,,,,,,,,,,,,,,,,,,,,,,,
,,,,,509243,001,2025-03-14_00h08.13.599,Utility_discrimination_2024_2cat,2024.2.4,MacIntel,60.24096386,,,,,,,,2,"[0.5,0.5]","[0.707,0.707]",s,"[1.0396672716165831,0.7236932521960513]","[-0.03966727161658323,0.27630674780394876]",219.4786,221.8083,0,d,0,0.8025,,0.450136913,0.870064351,0.419927439,221.8128,221.8129,0,61,61,61,1,0.584055489,0.584055489,shape_difference1,1,,TRUE,,intensity,0.1,0.05,0.7,0.3,0.82,20,400,1E-11,3.5,0.01,0.5,0.1,,,,,,,,,,,,,,,,,,,,,,,,,,,,,,,,,,,,,,,,,,,,,,,,,,,,,,,,,,,,,,,,,,,,,,,,,,,,,,,,,
,,,,,509243,001,2025-03-14_00h08.13.599,Utility_discrimination_2024_2cat,2024.2.4,MacIntel,60.24096386,,,,,,,,3,"[0.5,0.5]","[0.383,0.924]",s,"[0.9538224632195478,0.9538224632195478]","[0.046177536780452166,0.046177536780452166]",221.814,224.0916,0,d,0,0.7621,,0.397141285,0.852496413,0.455355128,224.0941,224.0941,0,62,62,62,1,0.641898816,0.641898816,shape_difference2,1,,TRUE,,intensity,0.1,0.05,0.7,0.3,0.82,20,400,1E-11,3.5,0.01,0.5,0.1,,,,,,,,,,,,,,,,,,,,,,,,,,,,,,,,,,,,,,,,,,,,,,,,,,,,,,,,,,,,,,,,,,,,,,,,,,,,,,,,,
,,,,,509243,001,2025-03-14_00h08.13.599,Utility_discrimination_2024_2cat,2024.2.4,MacIntel,60.24096386,,,,,,,,0,"[0.5,0.5]","[1,0]",s,"[0.7268617813707657,1.0473114516621085]","[0.27313821862923426,-0.047311451662108484]",224.0953,226.391,1,d,1,0.7665,,0.272799333,0.647647851,0.374848517,226.3941,226.3942,0,63,63,63,1,0.592328411,0.592328411,shape_difference3,1,,TRUE,,intensity,0.1,0.05,0.7,0.3,0.82,20,400,1E-11,3.5,0.01,0.5,0.1,,,,,,,,,,,,,,,,,,,,,,,,,,,,,,,,,,,,,,,,,,,,,,,,,,,,,,,,,,,,,,,,,,,,,,,,,,,,,,,,,
,,,,,509243,001,2025-03-14_00h08.13.599,Utility_discrimination_2024_2cat,2024.2.4,MacIntel,60.24096386,,,,,,,,3,"[0.5,0.5]","[0.383,0.924]",d,"[0.9382330894691734,0.5]","[0.06176691053082661,0.5]",226.3952,228.6584,1,d,1,0.7331,,0.376845334,0.801814029,0.424968694,228.6613,228.6613,0,64,64,64,1,0.438233089,0.438233089,shape_difference0,1,,TRUE,,intensity,0.1,0.05,0.7,0.3,0.82,20,400,1E-11,3.5,0.01,0.5,0.1,,,,,,,,,,,,,,,,,,,,,,,,,,,,,,,,,,,,,,,,,,,,,,,,,,,,,,,,,,,,,,,,,,,,,,,,,,,,,,,,,
,,,,,509243,001,2025-03-14_00h08.13.599,Utility_discrimination_2024_2cat,2024.2.4,MacIntel,60.24096386,,,,,,,,4,"[0.5,0.5]","[0,1]",d,"[0.7177000443039874,1.0252084619761992]","[0.2822999556960126,-0.025208461976199303]",228.6622,230.9253,0,d,0,0.7352,,-0.065677008,0.463384834,0.529061843,230.9279,230.9279,0,65,65,65,1,0.568407426,0.568407426,shape_difference3,1,,TRUE,,intensity,0.1,0.05,0.7,0.3,0.82,20,400,1E-11,3.5,0.01,0.5,0.1,,,,,,,,,,,,,,,,,,,,,,,,,,,,,,,,,,,,,,,,,,,,,,,,,,,,,,,,,,,,,,,,,,,,,,,,,,,,,,,,,
,,,,,509243,001,2025-03-14_00h08.13.599,Utility_discrimination_2024_2cat,2024.2.4,MacIntel,60.24096386,,,,,,,,0,"[0.5,0.5]","[1,0]",s,"[0.5,0.6452843548438765]","[0.5,0.3547156451561235]",230.929,233.2414,1,d,1,0.7839,,0.255776909,0.606428794,0.350651885,233.2449,233.2449,0,66,66,66,1,0.145284355,0.145284355,shape_difference4,1,,TRUE,,intensity,0.1,0.05,0.7,0.3,0.82,20,400,1E-11,3.5,0.01,0.5,0.1,,,,,,,,,,,,,,,,,,,,,,,,,,,,,,,,,,,,,,,,,,,,,,,,,,,,,,,,,,,,,,,,,,,,,,,,,,,,,,,,,
,,,,,509243,001,2025-03-14_00h08.13.599,Utility_discrimination_2024_2cat,2024.2.4,MacIntel,60.24096386,,,,,,,,2,"[0.5,0.5]","[0.707,0.707]",d,"[0.9195580167366985,0.5]","[0.08044198326330154,0.5]",233.2459,235.5585,0,d,0,0.783,,0.512544877,0.922356337,0.40981146,235.5625,235.5625,0,67,67,67,1,0.419558017,0.419558017,shape_difference0,1,,TRUE,,intensity,0.1,0.05,0.7,0.3,0.82,20,400,1E-11,3.5,0.01,0.5,0.1,,,,,,,,,,,,,,,,,,,,,,,,,,,,,,,,,,,,,,,,,,,,,,,,,,,,,,,,,,,,,,,,,,,,,,,,,,,,,,,,,
,,,,,509243,001,2025-03-14_00h08.13.599,Utility_discrimination_2024_2cat,2024.2.4,MacIntel,60.24096386,,,,,,,,1,"[0.5,0.5]","[0.924,0.383]",s,"[0.9889386979690069,0.9889386979690069]","[0.011061302030993148,0.011061302030993148]",235.5637,237.9085,1,d,1,0.8176,,0.474249806,0.892041541,0.417791734,237.9109,237.9109,0,68,68,68,1,0.691568173,0.691568173,shape_difference2,1,,TRUE,,intensity,0.1,0.05,0.7,0.3,0.82,20,400,1E-11,3.5,0.01,0.5,0.1,,,,,,,,,,,,,,,,,,,,,,,,,,,,,,,,,,,,,,,,,,,,,,,,,,,,,,,,,,,,,,,,,,,,,,,,,,,,,,,,,
,,,,,509243,001,2025-03-14_00h08.13.599,Utility_discrimination_2024_2cat,2024.2.4,MacIntel,60.24096386,,,,,,,,4,"[0.5,0.5]","[0,1]",d,"[1.1139196417894375,0.7544710203521152]","[-0.11391964178943748,0.24552897964788473]",237.9128,240.442,0,d,0,0.9996,,-0.074642482,0.403453646,0.478096128,240.4453,240.4453,0,69,69,69,1,0.664415197,0.664415197,shape_difference1,1,,TRUE,,intensity,0.1,0.05,0.7,0.3,0.82,20,400,1E-11,3.5,0.01,0.5,0.1,,,,,,,,,,,,,,,,,,,,,,,,,,,,,,,,,,,,,,,,,,,,,,,,,,,,,,,,,,,,,,,,,,,,,,,,,,,,,,,,,
,,,,,509243,001,2025-03-14_00h08.13.599,Utility_discrimination_2024_2cat,2024.2.4,MacIntel,60.24096386,,,,,,,,2,"[0.5,0.5]","[0.707,0.707]",s,"[0.5,0.6146340311855056]","[0.5,0.3853659688144944]",240.4465,243.2753,1,d,1,1.3016,,0.508696794,0.886894908,0.378198115,243.2778,243.2778,0,70,70,70,1,0.114634031,0.114634031,shape_difference4,1,,TRUE,,intensity,0.1,0.05,0.7,0.3,0.82,20,400,1E-11,3.5,0.01,0.5,0.1,,,,,,,,,,,,,,,,,,,,,,,,,,,,,,,,,,,,,,,,,,,,,,,,,,,,,,,,,,,,,,,,,,,,,,,,,,,,,,,,,
,,,,,509243,001,2025-03-14_00h08.13.599,Utility_discrimination_2024_2cat,2024.2.4,MacIntel,60.24096386,,,,,,,,1,"[0.5,0.5]","[0.924,0.383]",d,"[0.9755212517581178,0.9755212517581178]","[0.024478748241882176,0.024478748241882176]",243.2789,245.3586,1,d,1,0.5493,,0.551321779,0.984464877,0.433143099,245.3618,245.3618,0,71,71,71,1,0.672590172,0.672590172,shape_difference2,1,,TRUE,,intensity,0.1,0.05,0.7,0.3,0.82,20,400,1E-11,3.5,0.01,0.5,0.1,,,,,,,,,,,,,,,,,,,,,,,,,,,,,,,,,,,,,,,,,,,,,,,,,,,,,,,,,,,,,,,,,,,,,,,,,,,,,,,,,
,,,,,509243,001,2025-03-14_00h08.13.599,Utility_discrimination_2024_2cat,2024.2.4,MacIntel,60.24096386,,,,,,,,0,"[0.5,0.5]","[1,0]",d,"[1.201136858500309,0.7906227454606258]","[-0.20113685850030893,0.2093772545393741]",245.3628,247.6253,0,d,0,0.7441,,0.310052761,0.676769597,0.366716836,247.6284,247.6284,0,72,72,72,1,0.758806124,0.758806124,shape_difference1,1,,TRUE,,intensity,0.1,0.05,0.7,0.3,0.82,20,400,1E-11,3.5,0.01,0.5,0.1,,,,,,,,,,,,,,,,,,,,,,,,,,,,,,,,,,,,,,,,,,,,,,,,,,,,,,,,,,,,,,,,,,,,,,,,,,,,,,,,,
,,,,,509243,001,2025-03-14_00h08.13.599,Utility_discrimination_2024_2cat,2024.2.4,MacIntel,60.24096386,,,,,,,,3,"[0.5,0.5]","[0.383,0.924]",s,"[0.9646922848764533,0.5]","[0.03530771512354669,0.5]",247.6292,249.775,0,s,0,0.6173,,0.454692377,0.89618603,0.441493653,249.7776,249.7777,0,73,73,73,1,0.464692285,0.464692285,shape_difference0,1,,TRUE,,intensity,0.1,0.05,0.7,0.3,0.82,20,400,1E-11,3.5,0.01,0.5,0.1,,,,,,,,,,,,,,,,,,,,,,,,,,,,,,,,,,,,,,,,,,,,,,,,,,,,,,,,,,,,,,,,,,,,,,,,,,,,,,,,,
,,,,,509243,001,2025-03-14_00h08.13.599,Utility_discrimination_2024_2cat,2024.2.4,MacIntel,60.24096386,,,,,,,,3,"[0.5,0.5]","[0.383,0.924]",d,"[0.7542849494053447,1.1134707395575418]","[0.2457150505946552,-0.11347073955754194]",249.779,252.242,1,d,1,0.9415,,0.44463944,0.866378881,0.42173944,252.2442,252.2442,0,74,74,74,1,0.663929372,0.663929372,shape_difference3,1,,TRUE,,intensity,0.1,0.05,0.7,0.3,0.82,20,400,1E-11,3.5,0.01,0.5,0.1,,,,,,,,,,,,,,,,,,,,,,,,,,,,,,,,,,,,,,,,,,,,,,,,,,,,,,,,,,,,,,,,,,,,,,,,,,,,,,,,,
,,,,,509243,001,2025-03-14_00h08.13.599,Utility_discrimination_2024_2cat,2024.2.4,MacIntel,60.24096386,,,,,,,,4,"[0.5,0.5]","[0,1]",d,"[0.7458182115195828,1.0930444580785759]","[0.25418178848041717,-0.09304445807857575]",252.2458,254.5421,1,d,1,0.7771,,-0.080858118,0.356377458,0.437235576,254.5451,254.5451,0,75,75,75,1,0.641823007,0.641823007,shape_difference3,1,,TRUE,,intensity,0.1,0.05,0.7,0.3,0.82,20,400,1E-11,3.5,0.01,0.5,0.1,,,,,,,,,,,,,,,,,,,,,,,,,,,,,,,,,,,,,,,,,,,,,,,,,,,,,,,,,,,,,,,,,,,,,,,,,,,,,,,,,
,,,,,509243,001,2025-03-14_00h08.13.599,Utility_discrimination_2024_2cat,2024.2.4,MacIntel,60.24096386,,,,,,,,0,"[0.5,0.5]","[1,0]",d,"[0.5,0.5899673460165488]","[0.5,0.41003265398345123]",254.5461,256.8911,1,d,1,0.8159,,0.354423567,0.771960151,0.417536584,256.8933,256.8933,0,76,76,76,1,0.089967346,0.089967346,shape_difference4,1,,TRUE,,intensity,0.1,0.05,0.7,0.3,0.82,20,400,1E-11,3.5,0.01,0.5,0.1,,,,,,,,,,,,,,,,,,,,,,,,,,,,,,,,,,,,,,,,,,,,,,,,,,,,,,,,,,,,,,,,,,,,,,,,,,,,,,,,,
,,,,,509243,001,2025-03-14_00h08.13.599,Utility_discrimination_2024_2cat,2024.2.4,MacIntel,60.24096386,,,,,,,,1,"[0.5,0.5]","[0.924,0.383]",d,"[1.0383173940430936,0.5]","[-0.038317394043093644,0.5]",256.8943,259.3416,1,s,1,0.9173,,0.648121366,1.074892897,0.426771532,259.3446,259.3447,0,77,77,77,1,0.538317394,0.538317394,shape_difference0,1,,TRUE,,intensity,0.1,0.05,0.7,0.3,0.82,20,400,1E-11,3.5,0.01,0.5,0.1,,,,,,,,,,,,,,,,,,,,,,,,,,,,,,,,,,,,,,,,,,,,,,,,,,,,,,,,,,,,,,,,,,,,,,,,,,,,,,,,,
,,,,,509243,001,2025-03-14_00h08.13.599,Utility_discrimination_2024_2cat,2024.2.4,MacIntel,60.24096386,,,,,,,,2,"[0.5,0.5]","[0.707,0.707]",s,"[1.291549670364737,0.8280990516771582]","[-0.291549670364737,0.1719009483228417]",259.3464,261.7256,0,d,0,0.8499,,0.505819077,0.857978846,0.352159769,261.7291,261.7291,0,78,78,78,1,0.856655487,0.856655487,shape_difference1,1,,TRUE,,intensity,0.1,0.05,0.7,0.3,0.82,20,400,1E-11,3.5,0.01,0.5,0.1,,,,,,,,,,,,,,,,,,,,,,,,,,,,,,,,,,,,,,,,,,,,,,,,,,,,,,,,,,,,,,,,,,,,,,,,,,,,,,,,,
,,,,,509243,001,2025-03-14_00h08.13.599,Utility_discrimination_2024_2cat,2024.2.4,MacIntel,60.24096386,,,,,,,,3,"[0.5,0.5]","[0.383,0.924]",s,"[0.96402638331257,0.96402638331257]","[0.0359736166874301,0.0359736166874301]",261.7304,264.2248,0,d,0,0.9667,,0.433803671,0.833162514,0.399358843,264.2273,264.2273,0,79,79,79,1,0.656331518,0.656331518,shape_difference2,1,,TRUE,,intensity,0.1,0.05,0.7,0.3,0.82,20,400,1E-11,3.5,0.01,0.5,0.1,,,,,,,,,,,,,,,,,,,,,,,,,,,,,,,,,,,,,,,,,,,,,,,,,,,,,,,,,,,,,,,,,,,,,,,,,,,,,,,,,
,,,,,509243,001,2025-03-14_00h08.13.599,Utility_discrimination_2024_2cat,2024.2.4,MacIntel,60.24096386,,,,,,,,0,"[0.5,0.5]","[1,0]",s,"[0.7370877414512376,1.0719819141016802]","[0.26291225854876243,-0.07198191410168031]",264.2289,266.4089,0,d,0,0.6501,,0.341993892,0.737534035,0.395540143,266.4111,266.4111,0,80,80,80,1,0.619028046,0.619028046,shape_difference3,1,,TRUE,,intensity,0.1,0.05,0.7,0.3,0.82,20,400,1E-11,3.5,0.01,0.5,0.1,,,,,,,,,,,,,,,,,,,,,,,,,,,,,,,,,,,,,,,,,,,,,,,,,,,,,,,,,,,,,,,,,,,,,,,,,,,,,,,,,
,,,,,509243,001,2025-03-14_00h08.13.599,Utility_discrimination_2024_2cat,2024.2.4,MacIntel,60.24096386,,,,,,,,4,"[0.5,0.5]","[0,1]",s,"[1.0153138949001188,0.5]","[-0.015313894900118918,0.5]",266.4126,269.3757,1,d,1,1.4335,,-0.085300821,0.296031066,0.381331887,269.3778,269.3779,0,81,81,81,1,0.515313895,0.515313895,shape_difference0,1,,TRUE,,intensity,0.1,0.05,0.7,0.3,0.82,20,400,1E-11,3.5,0.01,0.5,0.1,,,,,,,,,,,,,,,,,,,,,,,,,,,,,,,,,,,,,,,,,,,,,,,,,,,,,,,,,,,,,,,,,,,,,,,,,,,,,,,,,
,,,,,509243,001,2025-03-14_00h08.13.599,Utility_discrimination_2024_2cat,2024.2.4,MacIntel,60.24096386,,,,,,,,1,"[0.5,0.5]","[0.924,0.383]",d,"[0.5,0.5745607580205899]","[0.5,0.4254392419794101]",269.3792,271.8756,1,d,1,0.9661,,0.747170122,1.160260693,0.413090571,271.8787,271.8788,0,82,82,82,1,0.074560758,0.074560758,shape_difference4,1,,TRUE,,intensity,0.1,0.05,0.7,0.3,0.82,20,400,1E-11,3.5,0.01,0.5,0.1,,,,,,,,,,,,,,,,,,,,,,,,,,,,,,,,,,,,,,,,,,,,,,,,,,,,,,,,,,,,,,,,,,,,,,,,,,,,,,,,,
,,,,,509243,001,2025-03-14_00h08.13.599,Utility_discrimination_2024_2cat,2024.2.4,MacIntel,60.24096386,,,,,,,,2,"[0.5,0.5]","[0.707,0.707]",d,"[1.3789013073259155,0.864306494270374]","[-0.37890130732591554,0.13569350572962596]",271.8798,274.3592,1,d,1,0.9505,,0.545866024,0.944183853,0.398317829,274.3617,274.3617,0,83,83,83,1,0.951191891,0.951191891,shape_difference1,1,,TRUE,,intensity,0.1,0.05,0.7,0.3,0.82,20,400,1E-11,3.5,0.01,0.5,0.1,,,,,,,,,,,,,,,,,,,,,,,,,,,,,,,,,,,,,,,,,,,,,,,,,,,,,,,,,,,,,,,,,,,,,,,,,,,,,,,,,
,,,,,509243,001,2025-03-14_00h08.13.599,Utility_discrimination_2024_2cat,2024.2.4,MacIntel,60.24096386,,,,,,,,0,"[0.5,0.5]","[1,0]",d,"[1.0165024520622334,1.0165024520622334]","[-0.01650245206223333,-0.01650245206223333]",274.3629,276.5592,1,d,1,0.6668,,0.333212803,0.695868955,0.362656152,276.5622,276.5622,0,84,84,84,1,0.730555095,0.730555095,shape_difference2,1,,TRUE,,intensity,0.1,0.05,0.7,0.3,0.82,20,400,1E-11,3.5,0.01,0.5,0.1,,,,,,,,,,,,,,,,,,,,,,,,,,,,,,,,,,,,,,,,,,,,,,,,,,,,,,,,,,,,,,,,,,,,,,,,,,,,,,,,,
,,,,,509243,001,2025-03-14_00h08.13.599,Utility_discrimination_2024_2cat,2024.2.4,MacIntel,60.24096386,,,,,,,,2,"[0.5,0.5]","[0.707,0.707]",d,"[0.9944756096583774,0.5]","[0.005524390341622554,0.5]",276.5637,278.8927,0,d,0,0.8011,,0.535674501,0.90397491,0.368300409,278.8952,278.8953,0,85,85,85,1,0.49447561,0.49447561,shape_difference0,1,,TRUE,,intensity,0.1,0.05,0.7,0.3,0.82,20,400,1E-11,3.5,0.01,0.5,0.1,,,,,,,,,,,,,,,,,,,,,,,,,,,,,,,,,,,,,,,,,,,,,,,,,,,,,,,,,,,,,,,,,,,,,,,,,,,,,,,,,
,,,,,509243,001,2025-03-14_00h08.13.599,Utility_discrimination_2024_2cat,2024.2.4,MacIntel,60.24096386,,,,,,,,3,"[0.5,0.5]","[0.383,0.924]",s,"[1.0002739090500499,1.0002739090500499]","[-0.0002739090500499808,-0.0002739090500499808]",278.8963,281.1926,0,d,0,0.7671,,0.507167269,0.890576256,0.383408987,281.1957,281.1957,0,86,86,86,1,0.707601003,0.707601003,shape_difference2,1,,TRUE,,intensity,0.1,0.05,0.7,0.3,0.82,20,400,1E-11,3.5,0.01,0.5,0.1,,,,,,,,,,,,,,,,,,,,,,,,,,,,,,,,,,,,,,,,,,,,,,,,,,,,,,,,,,,,,,,,,,,,,,,,,,,,,,,,,
,,,,,509243,001,2025-03-14_00h08.13.599,Utility_discrimination_2024_2cat,2024.2.4,MacIntel,60.24096386,,,,,,,,4,"[0.5,0.5]","[0,1]",s,"[0.7583235660110896,1.1232140339275372]","[0.24167643398891042,-0.12321403392753727]",281.1969,283.6255,0,d,0,0.9086,,-0.08857693,0.260212041,0.348788971,283.627,283.627,0,87,87,87,1,0.674474063,0.674474063,shape_difference3,1,,TRUE,,intensity,0.1,0.05,0.7,0.3,0.82,20,400,1E-11,3.5,0.01,0.5,0.1,,,,,,,,,,,,,,,,,,,,,,,,,,,,,,,,,,,,,,,,,,,,,,,,,,,,,,,,,,,,,,,,,,,,,,,,,,,,,,,,,
,,,,,509243,001,2025-03-14_00h08.13.599,Utility_discrimination_2024_2cat,2024.2.4,MacIntel,60.24096386,,,,,,,,1,"[0.5,0.5]","[0.924,0.383]",s,"[0.5,0.561657872944781]","[0.5,0.4383421270552191]",283.6279,285.9592,1,d,1,0.8002,,0.738976638,1.123820696,0.384844059,285.962,285.962,0,88,88,88,1,0.061657873,0.061657873,shape_difference4,1,,TRUE,,intensity,0.1,0.05,0.7,0.3,0.82,20,400,1E-11,3.5,0.01,0.5,0.1,,,,,,,,,,,,,,,,,,,,,,,,,,,,,,,,,,,,,,,,,,,,,,,,,,,,,,,,,,,,,,,,,,,,,,,,,,,,,,,,,
,,,,,509243,001,2025-03-14_00h08.13.599,Utility_discrimination_2024_2cat,2024.2.4,MacIntel,60.24096386,,,,,,,,0,"[0.5,0.5]","[1,0]",d,"[1.3612180551611992,0.8569767479726615]","[-0.3612180551611991,0.14302325202733845]",285.963,288.2927,1,d,1,0.8044,,0.404360626,0.774959142,0.370598516,288.2948,288.2949,0,89,89,89,1,0.932054172,0.932054172,shape_difference1,1,,TRUE,,intensity,0.1,0.05,0.7,0.3,0.82,20,400,1E-11,3.5,0.01,0.5,0.1,,,,,,,,,,,,,,,,,,,,,,,,,,,,,,,,,,,,,,,,,,,,,,,,,,,,,,,,,,,,,,,,,,,,,,,,,,,,,,,,,
,,,,,509243,001,2025-03-14_00h08.13.599,Utility_discrimination_2024_2cat,2024.2.4,MacIntel,60.24096386,,,,,,,,2,"[0.5,0.5]","[0.707,0.707]",d,"[1.0539640509165409,0.5]","[-0.053964050916540884,0.5]",288.2959,290.4595,1,d,1,0.6337,,0.606137376,0.974145828,0.368008452,290.4628,290.4628,0,90,90,90,1,0.553964051,0.553964051,shape_difference0,1,,TRUE,,intensity,0.1,0.05,0.7,0.3,0.82,20,400,1E-11,3.5,0.01,0.5,0.1,,,,,,,,,,,,,,,,,,,,,,,,,,,,,,,,,,,,,,,,,,,,,,,,,,,,,,,,,,,,,,,,,,,,,,,,,,,,,,,,,
,,,,,509243,001,2025-03-14_00h08.13.599,Utility_discrimination_2024_2cat,2024.2.4,MacIntel,60.24096386,,,,,,,,3,"[0.5,0.5]","[0.383,0.924]",d,"[1.0403809770541876,1.0403809770541876]","[-0.04038097705418764,-0.04038097705418764]",290.4639,293.2593,0,d,0,1.2771,,0.562104745,0.976400308,0.414295563,293.2617,293.2617,0,91,91,91,1,0.764329529,0.764329529,shape_difference2,1,,TRUE,,intensity,0.1,0.05,0.7,0.3,0.82,20,400,1E-11,3.5,0.01,0.5,0.1,,,,,,,,,,,,,,,,,,,,,,,,,,,,,,,,,,,,,,,,,,,,,,,,,,,,,,,,,,,,,,,,,,,,,,,,,,,,,,,,,
,,,,,509243,001,2025-03-14_00h08.13.599,Utility_discrimination_2024_2cat,2024.2.4,MacIntel,60.24096386,,,,,,,,4,"[0.5,0.5]","[0,1]",s,"[0.789237808904262,1.1977956538578018]","[0.21076219109573796,-0.19779565385780196]",293.2631,295.5089,1,d,1,0.7165,,-0.09106911,0.212246127,0.303315237,295.5117,295.5118,0,92,92,92,1,0.755190102,0.755190102,shape_difference3,1,,TRUE,,intensity,0.1,0.05,0.7,0.3,0.82,20,400,1E-11,3.5,0.01,0.5,0.1,,,,,,,,,,,,,,,,,,,,,,,,,,,,,,,,,,,,,,,,,,,,,,,,,,,,,,,,,,,,,,,,,,,,,,,,,,,,,,,,,
,,,,,509243,001,2025-03-14_00h08.13.599,Utility_discrimination_2024_2cat,2024.2.4,MacIntel,60.24096386,,,,,,,,1,"[0.5,0.5]","[0.924,0.383]",d,"[0.5,0.5503224814039825]","[0.5,0.44967751859601746]",295.513,297.476,1,d,1,0.4442,,0.729482409,1.094159023,0.364676614,297.4788,297.4788,0,93,93,93,1,0.050322481,0.050322481,shape_difference4,1,,TRUE,,intensity,0.1,0.05,0.7,0.3,0.82,20,400,1E-11,3.5,0.01,0.5,0.1,,,,,,,,,,,,,,,,,,,,,,,,,,,,,,,,,,,,,,,,,,,,,,,,,,,,,,,,,,,,,,,,,,,,,,,,,,,,,,,,,
,,,,,509243,001,2025-03-14_00h08.13.599,Utility_discrimination_2024_2cat,2024.2.4,MacIntel,60.24096386,,,,,,,,0,"[0.5,0.5]","[1,0]",d,"[1.3412280206381126,0.8486908353943692]","[-0.34122802063811264,0.15130916460563082]",297.4798,299.7596,1,s,1,0.7501,,0.402216842,0.73616993,0.333953088,299.762,299.7621,0,94,94,94,1,0.910419936,0.910419936,shape_difference1,1,,TRUE,,intensity,0.1,0.05,0.7,0.3,0.82,20,400,1E-11,3.5,0.01,0.5,0.1,,,,,,,,,,,,,,,,,,,,,,,,,,,,,,,,,,,,,,,,,,,,,,,,,,,,,,,,,,,,,,,,,,,,,,,,,,,,,,,,,
,,,,,509243,001,2025-03-14_00h08.13.599,Utility_discrimination_2024_2cat,2024.2.4,MacIntel,60.24096386,,,,,,,,3,"[0.5,0.5]","[0.383,0.924]",s,"[1.0372049761627138,0.5]","[-0.0372049761627139,0.5]",299.7633,301.9927,1,s,1,0.7096,,0.551647614,0.942175669,0.390528055,301.9952,301.9953,0,95,95,95,1,0.537204976,0.537204976,shape_difference0,1,,TRUE,,intensity,0.1,0.05,0.7,0.3,0.82,20,400,1E-11,3.5,0.01,0.5,0.1,,,,,,,,,,,,,,,,,,,,,,,,,,,,,,,,,,,,,,,,,,,,,,,,,,,,,,,,,,,,,,,,,,,,,,,,,,,,,,,,,
,,,,,509243,001,2025-03-14_00h08.13.599,Utility_discrimination_2024_2cat,2024.2.4,MacIntel,60.24096386,,,,,,,,1,"[0.5,0.5]","[0.924,0.383]",s,"[0.7817235369864629,1.17966722761225]","[0.2182764630135371,-0.17966722761224996]",301.9966,304.2095,0,s,0,0.6936,,0.722639271,1.077155348,0.354516078,304.2123,304.2123,0,96,96,96,1,0.735570593,0.735570593,shape_difference3,1,,TRUE,,intensity,0.1,0.05,0.7,0.3,0.82,20,400,1E-11,3.5,0.01,0.5,0.1,,,,,,,,,,,,,,,,,,,,,,,,,,,,,,,,,,,,,,,,,,,,,,,,,,,,,,,,,,,,,,,,,,,,,,,,,,,,,,,,,
,,,,,509243,001,2025-03-14_00h08.13.599,Utility_discrimination_2024_2cat,2024.2.4,MacIntel,60.24096386,,,,,,,,2,"[0.5,0.5]","[0.707,0.707]",d,"[1.3237082910151945,0.841428869544177]","[-0.3237082910151946,0.15857113045582305]",304.2135,306.259,0,d,0,0.5165,,0.651759342,1.056848963,0.405089621,306.2617,306.2618,0,97,97,97,1,0.891459189,0.891459189,shape_difference1,1,,TRUE,,intensity,0.1,0.05,0.7,0.3,0.82,20,400,1E-11,3.5,0.01,0.5,0.1,,,,,,,,,,,,,,,,,,,,,,,,,,,,,,,,,,,,,,,,,,,,,,,,,,,,,,,,,,,,,,,,,,,,,,,,,,,,,,,,,
,,,,,509243,001,2025-03-14_00h08.13.599,Utility_discrimination_2024_2cat,2024.2.4,MacIntel,60.24096386,,,,,,,,4,"[0.5,0.5]","[0,1]",s,"[1.096461221358253,1.096461221358253]","[-0.09646122135825297,-0.09646122135825297]",306.263,309.2597,1,s,1,1.4768,,-0.093023278,0.188150608,0.281173886,309.2622,309.2622,0,98,98,98,1,0.84365095,0.84365095,shape_difference2,1,,TRUE,,intensity,0.1,0.05,0.7,0.3,0.82,20,400,1E-11,3.5,0.01,0.5,0.1,,,,,,,,,,,,,,,,,,,,,,,,,,,,,,,,,,,,,,,,,,,,,,,,,,,,,,,,,,,,,,,,,,,,,,,,,,,,,,,,,
,,,,,509243,001,2025-03-14_00h08.13.599,Utility_discrimination_2024_2cat,2024.2.4,MacIntel,60.24096386,,,,,,,,1,"[0.5,0.5]","[0.924,0.383]",s,"[0.5,0.5398624519387084]","[0.5,0.4601375480612916]",309.2632,311.6263,0,s,0,0.8445,,0.801633031,1.131398729,0.329765698,311.6298,311.6298,0,99,99,99,1,0.039862452,0.039862452,shape_difference4,1,,TRUE,,intensity,0.1,0.05,0.7,0.3,0.82,20,400,1E-11,3.5,0.01,0.5,0.1,,,,,,,,,,,,,,,,,,,,,,,,,,,,,,,,,,,,,,,,,,,,,,,,,,,,,,,,,,,,,,,,,,,,,,,,,,,,,,,,,
,,,,,509243,001,2025-03-14_00h08.13.599,Utility_discrimination_2024_2cat,2024.2.4,MacIntel,60.24096386,,,,,,,,4,"[0.5,0.5]","[0,1]",d,"[1.377714563301279,0.8638145863034523]","[-0.37771456330127906,0.13618541369654774]",311.631,313.8431,1,s,1,0.6834,,-0.082372557,0.233156813,0.31552937,313.8455,313.8455,0,100,100,100,1,0.949907536,0.949907536,shape_difference1,1,,TRUE,,intensity,0.1,0.05,0.7,0.3,0.82,20,400,1E-11,3.5,0.01,0.5,0.1,,,,,,,,,,,,,,,,,,,,,,,,,,,,,,,,,,,,,,,,,,,,,,,,,,,,,,,,,,,,,,,,,,,,,,,,,,,,,,,,,
,,,,,509243,001,2025-03-14_00h08.13.599,Utility_discrimination_2024_2cat,2024.2.4,MacIntel,60.24096386,,,,,,,,3,"[0.5,0.5]","[0.383,0.924]",s,"[0.5,0.5643059895235794]","[0.5,0.4356940104764206]",313.8468,316.1096,1,s,1,0.7417,,0.611808288,0.989012382,0.377204094,316.1116,316.1116,0,101,101,101,1,0.06430599,0.06430599,shape_difference4,1,,TRUE,,intensity,0.1,0.05,0.7,0.3,0.82,20,400,1E-11,3.5,0.01,0.5,0.1,,,,,,,,,,,,,,,,,,,,,,,,,,,,,,,,,,,,,,,,,,,,,,,,,,,,,,,,,,,,,,,,,,,,,,,,,,,,,,,,,
,,,,,509243,001,2025-03-14_00h08.13.599,Utility_discrimination_2024_2cat,2024.2.4,MacIntel,60.24096386,,,,,,,,0,"[0.5,0.5]","[1,0]",s,"[0.7992257732353572,1.221891943784517]","[0.2007742267646428,-0.22189194378451715]",316.1138,319.3597,1,d,1,1.7263,,0.39486605,0.69799025,0.3031242,319.3619,319.3619,0,102,102,102,1,0.781268337,0.781268337,shape_difference3,1,,TRUE,,intensity,0.1,0.05,0.7,0.3,0.82,20,400,1E-11,3.5,0.01,0.5,0.1,,,,,,,,,,,,,,,,,,,,,,,,,,,,,,,,,,,,,,,,,,,,,,,,,,,,,,,,,,,,,,,,,,,,,,,,,,,,,,,,,
,,,,,509243,001,2025-03-14_00h08.13.599,Utility_discrimination_2024_2cat,2024.2.4,MacIntel,60.24096386,,,,,,,,2,"[0.5,0.5]","[0.707,0.707]",d,"[1.0200031875295013,0.5]","[-0.020003187529501143,0.5]",319.363,322.2764,0,d,0,1.3931,,0.63965096,1.02444403,0.38479307,322.2795,322.2795,0,103,103,103,1,0.520003188,0.520003188,shape_difference0,1,,TRUE,,intensity,0.1,0.05,0.7,0.3,0.82,20,400,1E-11,3.5,0.01,0.5,0.1,,,,,,,,,,,,,,,,,,,,,,,,,,,,,,,,,,,,,,,,,,,,,,,,,,,,,,,,,,,,,,,,,,,,,,,,,,,,,,,,,
,,,,,509243,001,2025-03-14_00h08.13.599,Utility_discrimination_2024_2cat,2024.2.4,MacIntel,60.24096386,,,,,,,,2,"[0.5,0.5]","[0.707,0.707]",s,"[1.0812731895560557,1.0812731895560557]","[-0.08127318955605556,-0.08127318955605556]",322.2808,324.4759,1,d,1,0.6702,,0.631106982,0.992879465,0.361772484,324.4784,324.4784,0,104,104,104,1,0.822168585,0.822168585,shape_difference2,1,,TRUE,,intensity,0.1,0.05,0.7,0.3,0.82,20,400,1E-11,3.5,0.01,0.5,0.1,,,,,,,,,,,,,,,,,,,,,,,,,,,,,,,,,,,,,,,,,,,,,,,,,,,,,,,,,,,,,,,,,,,,,,,,,,,,,,,,,
,,,,,509243,001,2025-03-14_00h08.13.599,Utility_discrimination_2024_2cat,2024.2.4,MacIntel,60.24096386,,,,,,,,3,"[0.5,0.5]","[0.383,0.924]",d,"[1.0648380452740422,1.0648380452740422]","[-0.06483804527404224,-0.06483804527404224]",324.4796,327.0766,0,d,0,1.0682,,0.608444516,0.964034389,0.355589873,327.0803,327.0804,0,105,105,105,1,0.798922271,0.798922271,shape_difference2,1,,TRUE,,intensity,0.1,0.05,0.7,0.3,0.82,20,400,1E-11,3.5,0.01,0.5,0.1,,,,,,,,,,,,,,,,,,,,,,,,,,,,,,,,,,,,,,,,,,,,,,,,,,,,,,,,,,,,,,,,,,,,,,,,,,,,,,,,,
,,,,,509243,001,2025-03-14_00h08.13.599,Utility_discrimination_2024_2cat,2024.2.4,MacIntel,60.24096386,,,,,,,,1,"[0.5,0.5]","[0.924,0.383]",s,"[0.7930418341430281,1.2069729888985845]","[0.20695816585697197,-0.2069729888985845]",327.0817,329.5265,1,d,1,0.9278,,0.786121984,1.098873431,0.312751448,329.5283,329.5284,0,106,106,106,1,0.765122282,0.765122282,shape_difference3,1,,TRUE,,intensity,0.1,0.05,0.7,0.3,0.82,20,400,1E-11,3.5,0.01,0.5,0.1,,,,,,,,,,,,,,,,,,,,,,,,,,,,,,,,,,,,,,,,,,,,,,,,,,,,,,,,,,,,,,,,,,,,,,,,,,,,,,,,,
,,,,,509243,001,2025-03-14_00h08.13.599,Utility_discrimination_2024_2cat,2024.2.4,MacIntel,60.24096386,,,,,,,,4,"[0.5,0.5]","[0,1]",d,"[1.3635866882915606,0.857958551532108]","[-0.3635866882915606,0.14204144846789207]",329.5293,331.8766,1,d,1,0.8191,,-0.08512577,0.195906059,0.281031829,331.8793,331.8793,0,107,107,107,1,0.934617628,0.934617628,shape_difference1,1,,TRUE,,intensity,0.1,0.05,0.7,0.3,0.82,20,400,1E-11,3.5,0.01,0.5,0.1,,,,,,,,,,,,,,,,,,,,,,,,,,,,,,,,,,,,,,,,,,,,,,,,,,,,,,,,,,,,,,,,,,,,,,,,,,,,,,,,,
,,,,,509243,001,2025-03-14_00h08.13.599,Utility_discrimination_2024_2cat,2024.2.4,MacIntel,60.24096386,,,,,,,,0,"[0.5,0.5]","[1,0]",d,"[0.5,0.5555608916721653]","[0.5,0.44443910832783473]",331.8804,334.3764,0,d,0,0.978,,0.41172202,0.765809937,0.354087916,334.3785,334.3785,0,108,108,108,1,0.055560892,0.055560892,shape_difference4,1,,TRUE,,intensity,0.1,0.05,0.7,0.3,0.82,20,400,1E-11,3.5,0.01,0.5,0.1,,,,,,,,,,,,,,,,,,,,,,,,,,,,,,,,,,,,,,,,,,,,,,,,,,,,,,,,,,,,,,,,,,,,,,,,,,,,,,,,,
,,,,,509243,001,2025-03-14_00h08.13.599,Utility_discrimination_2024_2cat,2024.2.4,MacIntel,60.24096386,,,,,,,,3,"[0.5,0.5]","[0.383,0.924]",s,"[1.0611708867412304,0.5]","[-0.06117088674123039,0.5]",334.3794,336.66,1,d,1,0.7596,,0.60587916,0.929858661,0.323979501,336.662,336.6624,0,109,109,109,1,0.561170887,0.561170887,shape_difference0,1,,TRUE,,intensity,0.1,0.05,0.7,0.3,0.82,20,400,1E-11,3.5,0.01,0.5,0.1,,,,,,,,,,,,,,,,,,,,,,,,,,,,,,,,,,,,,,,,,,,,,,,,,,,,,,,,,,,,,,,,,,,,,,,,,,,,,,,,,
,,,,,509243,001,2025-03-14_00h08.13.599,Utility_discrimination_2024_2cat,2024.2.4,MacIntel,60.24096386,,,,,,,,0,"[0.5,0.5]","[1,0]",d,"[0.7875968231622589,1.1938367221982435]","[0.21240317683774113,-0.19383672219824344]",336.6638,339.0099,1,s,1,0.8262,,0.409557525,0.727286485,0.31772896,339.0117,339.0118,0,110,110,110,1,0.750905544,0.750905544,shape_difference3,1,,TRUE,,intensity,0.1,0.05,0.7,0.3,0.82,20,400,1E-11,3.5,0.01,0.5,0.1,,,,,,,,,,,,,,,,,,,,,,,,,,,,,,,,,,,,,,,,,,,,,,,,,,,,,,,,,,,,,,,,,,,,,,,,,,,,,,,,,
,,,,,509243,001,2025-03-14_00h08.13.599,Utility_discrimination_2024_2cat,2024.2.4,MacIntel,60.24096386,,,,,,,,1,"[0.5,0.5]","[0.924,0.383]",s,"[1.047733448565846,0.5]","[-0.04773344856584605,0.5]",339.0128,341.46,1,s,1,0.926,,0.766766454,1.086066804,0.31930035,341.4627,341.4627,0,111,111,111,1,0.547733449,0.547733449,shape_difference0,1,,TRUE,,intensity,0.1,0.05,0.7,0.3,0.82,20,400,1E-11,3.5,0.01,0.5,0.1,,,,,,,,,,,,,,,,,,,,,,,,,,,,,,,,,,,,,,,,,,,,,,,,,,,,,,,,,,,,,,,,,,,,,,,,,,,,,,,,,
,,,,,509243,001,2025-03-14_00h08.13.599,Utility_discrimination_2024_2cat,2024.2.4,MacIntel,60.24096386,,,,,,,,4,"[0.5,0.5]","[0,1]",s,"[1.3482076618239094,0.8515839117733304]","[-0.3482076618239094,0.14841608822666963]",341.4639,343.8936,1,d,1,0.903,,-0.046608171,0.287575015,0.334183186,343.896,343.896,0,112,112,112,1,0.91797366,0.91797366,shape_difference1,1,,TRUE,,intensity,0.1,0.05,0.7,0.3,0.82,20,400,1E-11,3.5,0.01,0.5,0.1,,,,,,,,,,,,,,,,,,,,,,,,,,,,,,,,,,,,,,,,,,,,,,,,,,,,,,,,,,,,,,,,,,,,,,,,,,,,,,,,,
,,,,,509243,001,2025-03-14_00h08.13.599,Utility_discrimination_2024_2cat,2024.2.4,MacIntel,60.24096386,,,,,,,,2,"[0.5,0.5]","[0.707,0.707]",d,"[0.5,0.5923746140650777]","[0.5,0.40762538593492226]",343.8975,347.0439,0,s,0,1.6282,,0.704310685,1.060367021,0.356056336,347.0469,347.047,0,113,113,113,1,0.092374614,0.092374614,shape_difference4,1,,TRUE,,intensity,0.1,0.05,0.7,0.3,0.82,20,400,1E-11,3.5,0.01,0.5,0.1,,,,,,,,,,,,,,,,,,,,,,,,,,,,,,,,,,,,,,,,,,,,,,,,,,,,,,,,,,,,,,,,,,,,,,,,,,,,,,,,,
,,,,,509243,001,2025-03-14_00h08.13.599,Utility_discrimination_2024_2cat,2024.2.4,MacIntel,60.24096386,,,,,,,,3,"[0.5,0.5]","[0.383,0.924]",d,"[1.1069247825071389,1.1069247825071389]","[-0.10692478250713877,-0.10692478250713877]",347.0479,349.4769,0,d,0,0.8999,,0.603859447,0.895234287,0.29137484,349.4792,349.4792,0,114,114,114,1,0.858450895,0.858450895,shape_difference2,1,,TRUE,,intensity,0.1,0.05,0.7,0.3,0.82,20,400,1E-11,3.5,0.01,0.5,0.1,,,,,,,,,,,,,,,,,,,,,,,,,,,,,,,,,,,,,,,,,,,,,,,,,,,,,,,,,,,,,,,,,,,,,,,,,,,,,,,,,
,,,,,509243,001,2025-03-14_00h08.13.599,Utility_discrimination_2024_2cat,2024.2.4,MacIntel,60.24096386,,,,,,,,2,"[0.5,0.5]","[0.707,0.707]",s,"[0.7825764237412345,1.181724844743866]","[0.21742357625876557,-0.18172484474386585]",349.4802,351.927,0,d,0,0.9167,,0.746957581,1.137235051,0.39027747,351.9298,351.9299,0,115,115,115,1,0.737797451,0.737797451,shape_difference3,1,,TRUE,,intensity,0.1,0.05,0.7,0.3,0.82,20,400,1E-11,3.5,0.01,0.5,0.1,,,,,,,,,,,,,,,,,,,,,,,,,,,,,,,,,,,,,,,,,,,,,,,,,,,,,,,,,,,,,,,,,,,,,,,,,,,,,,,,,
,,,,,509243,001,2025-03-14_00h08.13.599,Utility_discrimination_2024_2cat,2024.2.4,MacIntel,60.24096386,,,,,,,,0,"[0.5,0.5]","[1,0]",s,"[1.1616984229961054,1.1616984229961054]","[-0.16169842299610537,-0.16169842299610537]",351.9309,354.3937,1,s,1,0.9333,,0.407410633,0.696219606,0.288808972,354.3958,354.3959,0,116,116,116,1,0.935924219,0.935924219,shape_difference2,1,,TRUE,,intensity,0.1,0.05,0.7,0.3,0.82,20,400,1E-11,3.5,0.01,0.5,0.1,,,,,,,,,,,,,,,,,,,,,,,,,,,,,,,,,,,,,,,,,,,,,,,,,,,,,,,,,,,,,,,,,,,,,,,,,,,,,,,,,
,,,,,509243,001,2025-03-14_00h08.13.599,Utility_discrimination_2024_2cat,2024.2.4,MacIntel,60.24096386,,,,,,,,1,"[0.5,0.5]","[0.924,0.383]",s,"[1.0346951518587972,0.5]","[-0.034695151858797124,0.5]",354.397,356.5605,1,d,1,0.6452,,0.75277659,1.070148742,0.317372152,356.5637,356.5638,0,117,117,117,1,0.534695152,0.534695152,shape_difference0,1,,TRUE,,intensity,0.1,0.05,0.7,0.3,0.82,20,400,1E-11,3.5,0.01,0.5,0.1,,,,,,,,,,,,,,,,,,,,,,,,,,,,,,,,,,,,,,,,,,,,,,,,,,,,,,,,,,,,,,,,,,,,,,,,,,,,,,,,,
,,,,,509243,001,2025-03-14_00h08.13.599,Utility_discrimination_2024_2cat,2024.2.4,MacIntel,60.24096386,,,,,,,,4,"[0.5,0.5]","[0,1]",d,"[1.331168228337534,0.844521029711337]","[-0.3311682283375339,0.15547897028866292]",356.5649,358.6269,1,d,1,0.5439,,0.006864869,0.375031925,0.368167056,358.6297,358.6297,0,118,118,118,1,0.899532715,0.899532715,shape_difference1,1,,TRUE,,intensity,0.1,0.05,0.7,0.3,0.82,20,400,1E-11,3.5,0.01,0.5,0.1,,,,,,,,,,,,,,,,,,,,,,,,,,,,,,,,,,,,,,,,,,,,,,,,,,,,,,,,,,,,,,,,,,,,,,,,,,,,,,,,,
,,,,,509243,001,2025-03-14_00h08.13.599,Utility_discrimination_2024_2cat,2024.2.4,MacIntel,60.24096386,,,,,,,,1,"[0.5,0.5]","[0.924,0.383]",d,"[0.5,0.6427220137416938]","[0.5,0.35727798625830615]",358.63,361.0436,0,d,0,0.8947,,0.742479238,1.049668988,0.30718975,361.0454,361.0455,0,119,119,119,1,0.142722014,0.142722014,shape_difference4,1,,TRUE,,intensity,0.1,0.05,0.7,0.3,0.82,20,400,1E-11,3.5,0.01,0.5,0.1,,,,,,,,,,,,,,,,,,,,,,,,,,,,,,,,,,,,,,,,,,,,,,,,,,,,,,,,,,,,,,,,,,,,,,,,,,,,,,,,,
,,,,,509243,001,2025-03-14_00h08.13.599,Utility_discrimination_2024_2cat,2024.2.4,MacIntel,60.24096386,,,,,,,,0,"[0.5,0.5]","[1,0]",s,"[1.3211508607958489,0.8403688091826949]","[-0.32115086079584887,0.1596311908173051]",361.0464,364.1436,0,d,0,1.5684,,0.405566121,0.682144435,0.276578314,364.1462,364.1462,0,120,120,120,1,0.888691408,0.888691408,shape_difference1,1,,TRUE,,intensity,0.1,0.05,0.7,0.3,0.82,20,400,1E-11,3.5,0.01,0.5,0.1,,,,,,,,,,,,,,,,,,,,,,,,,,,,,,,,,,,,,,,,,,,,,,,,,,,,,,,,,,,,,,,,,,,,,,,,,,,,,,,,,
,,,,,509243,001,2025-03-14_00h08.13.599,Utility_discrimination_2024_2cat,2024.2.4,MacIntel,60.24096386,,,,,,,,2,"[0.5,0.5]","[0.707,0.707]",s,"[1.020698768291422,0.5]","[-0.02069876829142181,0.5]",364.1471,366.7605,0,d,0,1.084,,0.736281134,1.099632295,0.363351161,366.7624,366.7624,0,121,121,121,1,0.520698768,0.520698768,shape_difference0,1,,TRUE,,intensity,0.1,0.05,0.7,0.3,0.82,20,400,1E-11,3.5,0.01,0.5,0.1,,,,,,,,,,,,,,,,,,,,,,,,,,,,,,,,,,,,,,,,,,,,,,,,,,,,,,,,,,,,,,,,,,,,,,,,,,,,,,,,,
,,,,,509243,001,2025-03-14_00h08.13.599,Utility_discrimination_2024_2cat,2024.2.4,MacIntel,60.24096386,,,,,,,,4,"[0.5,0.5]","[0,1]",s,"[1.146474719492526,1.146474719492526]","[-0.146474719492526,-0.146474719492526]",366.7634,369.4437,0,d,0,1.159,,0.017028528,0.451015017,0.433986489,369.4462,369.4462,0,122,122,122,1,0.9143914,0.9143914,shape_difference2,1,,TRUE,,intensity,0.1,0.05,0.7,0.3,0.82,20,400,1E-11,3.5,0.01,0.5,0.1,,,,,,,,,,,,,,,,,,,,,,,,,,,,,,,,,,,,,,,,,,,,,,,,,,,,,,,,,,,,,,,,,,,,,,,,,,,,,,,,,
,,,,,509243,001,2025-03-14_00h08.13.599,Utility_discrimination_2024_2cat,2024.2.4,MacIntel,60.24096386,,,,,,,,3,"[0.5,0.5]","[0.383,0.924]",s,"[0.5,0.6786710129573479]","[0.5,0.3213289870426521]",369.4471,371.8937,0,d,0,0.9261,,0.615854231,0.946932174,0.331077943,371.8955,371.8956,0,123,123,123,1,0.178671013,0.178671013,shape_difference4,1,,TRUE,,intensity,0.1,0.05,0.7,0.3,0.82,20,400,1E-11,3.5,0.01,0.5,0.1,,,,,,,,,,,,,,,,,,,,,,,,,,,,,,,,,,,,,,,,,,,,,,,,,,,,,,,,,,,,,,,,,,,,,,,,,,,,,,,,,
,,,,,509243,001,2025-03-14_00h08.13.599,Utility_discrimination_2024_2cat,2024.2.4,MacIntel,60.24096386,,,,,,,,2,"[0.5,0.5]","[0.707,0.707]",s,"[0.7942894005481422,1.2099827835678418]","[0.20571059945185777,-0.20998278356784184]",371.8964,374.2107,1,s,1,0.7842,,0.806864251,1.165867665,0.359003414,374.2126,374.2127,0,124,124,124,1,0.768379636,0.768379636,shape_difference3,1,,TRUE,,intensity,0.1,0.05,0.7,0.3,0.82,20,400,1E-11,3.5,0.01,0.5,0.1,,,,,,,,,,,,,,,,,,,,,,,,,,,,,,,,,,,,,,,,,,,,,,,,,,,,,,,,,,,,,,,,,,,,,,,,,,,,,,,,,
,,,,,509243,001,2025-03-14_00h08.13.599,Utility_discrimination_2024_2cat,2024.2.4,MacIntel,60.24096386,,,,,,,,3,"[0.5,0.5]","[0.383,0.924]",s,"[1.183982820048334,1.183982820048334]","[-0.183982820048334,-0.183982820048334]",374.2142,376.5108,1,d,1,0.7711,,0.613125479,0.909850347,0.296724868,376.5135,376.5135,0,125,125,125,1,0.967443876,0.967443876,shape_difference2,1,,TRUE,,intensity,0.1,0.05,0.7,0.3,0.82,20,400,1E-11,3.5,0.01,0.5,0.1,,,,,,,,,,,,,,,,,,,,,,,,,,,,,,,,,,,,,,,,,,,,,,,,,,,,,,,,,,,,,,,,,,,,,,,,,,,,,,,,,
,,,,,509243,001,2025-03-14_00h08.13.599,Utility_discrimination_2024_2cat,2024.2.4,MacIntel,60.24096386,,,,,,,,4,"[0.5,0.5]","[0,1]",d,"[0.7900833354355643,1.1998355142100818]","[0.20991666456443575,-0.19983551421008194]",376.5145,378.9606,1,d,1,0.9188,,0.072195678,0.567913521,0.495717843,378.9634,378.9634,0,126,126,126,1,0.757397743,0.757397743,shape_difference3,1,,TRUE,,intensity,0.1,0.05,0.7,0.3,0.82,20,400,1E-11,3.5,0.01,0.5,0.1,,,,,,,,,,,,,,,,,,,,,,,,,,,,,,,,,,,,,,,,,,,,,,,,,,,,,,,,,,,,,,,,,,,,,,,,,,,,,,,,,
,,,,,509243,001,2025-03-14_00h08.13.599,Utility_discrimination_2024_2cat,2024.2.4,MacIntel,60.24096386,,,,,,,,0,"[0.5,0.5]","[1,0]",d,"[0.5,0.7615095879778963]","[0.5,0.23849041202210375]",378.9644,382.594,0,d,0,2.0995,,0.413133344,0.725553548,0.312420205,382.5961,382.5962,0,127,127,127,1,0.261509588,0.261509588,shape_difference4,1,,TRUE,,intensity,0.1,0.05,0.7,0.3,0.82,20,400,1E-11,3.5,0.01,0.5,0.1,,,,,,,,,,,,,,,,,,,,,,,,,,,,,,,,,,,,,,,,,,,,,,,,,,,,,,,,,,,,,,,,,,,,,,,,,,,,,,,,,
,,,,,509243,001,2025-03-14_00h08.13.599,Utility_discrimination_2024_2cat,2024.2.4,MacIntel,60.24096386,,,,,,,,1,"[0.5,0.5]","[0.924,0.383]",s,"[1.0543215759701368,0.5]","[-0.05432157597013687,0.5]",382.5969,385.0775,1,d,1,0.9495,,0.805165076,1.089215438,0.284050362,385.0794,385.0795,0,128,128,128,1,0.554321576,0.554321576,shape_difference0,1,,TRUE,,intensity,0.1,0.05,0.7,0.3,0.82,20,400,1E-11,3.5,0.01,0.5,0.1,,,,,,,,,,,,,,,,,,,,,,,,,,,,,,,,,,,,,,,,,,,,,,,,,,,,,,,,,,,,,,,,,,,,,,,,,,,,,,,,,
,,,,,509243,001,2025-03-14_00h08.13.599,Utility_discrimination_2024_2cat,2024.2.4,MacIntel,60.24096386,,,,,,,,2,"[0.5,0.5]","[0.707,0.707]",d,"[1.3625953822120467,0.8575476530164653]","[-0.3625953822120468,0.1424523469835347]",385.0803,387.8274,1,d,1,1.2261,,0.804149777,1.134909868,0.330760091,387.8302,387.8303,0,129,129,129,1,0.933544786,0.933544786,shape_difference1,1,,TRUE,,intensity,0.1,0.05,0.7,0.3,0.82,20,400,1E-11,3.5,0.01,0.5,0.1,,,,,,,,,,,,,,,,,,,,,,,,,,,,,,,,,,,,,,,,,,,,,,,,,,,,,,,,,,,,,,,,,,,,,,,,,,,,,,,,,
,,,,,509243,001,2025-03-14_00h08.13.599,Utility_discrimination_2024_2cat,2024.2.4,MacIntel,60.24096386,,,,,,,,4,"[0.5,0.5]","[0,1]",d,"[1.1731945094436964,1.1731945094436964]","[-0.1731945094436964,-0.1731945094436964]",387.8313,390.344,1,s,1,0.9934,,0.146987325,0.688457677,0.541470352,390.3459,390.3459,0,130,130,130,1,0.952184596,0.952184596,shape_difference2,1,,TRUE,,intensity,0.1,0.05,0.7,0.3,0.82,20,400,1E-11,3.5,0.01,0.5,0.1,,,,,,,,,,,,,,,,,,,,,,,,,,,,,,,,,,,,,,,,,,,,,,,,,,,,,,,,,,,,,,,,,,,,,,,,,,,,,,,,,
,,,,,509243,001,2025-03-14_00h08.13.599,Utility_discrimination_2024_2cat,2024.2.4,MacIntel,60.24096386,,,,,,,,1,"[0.5,0.5]","[0.924,0.383]",s,"[0.5,0.884444951707377]","[0.5,0.11555504829262297]",390.3468,392.611,1,d,1,0.7364,,0.802973296,1.076173459,0.273200162,392.6129,392.613,0,131,131,131,1,0.384444952,0.384444952,shape_difference4,1,,TRUE,,intensity,0.1,0.05,0.7,0.3,0.82,20,400,1E-11,3.5,0.01,0.5,0.1,,,,,,,,,,,,,,,,,,,,,,,,,,,,,,,,,,,,,,,,,,,,,,,,,,,,,,,,,,,,,,,,,,,,,,,,,,,,,,,,,
,,,,,509243,001,2025-03-14_00h08.13.599,Utility_discrimination_2024_2cat,2024.2.4,MacIntel,60.24096386,,,,,,,,3,"[0.5,0.5]","[0.383,0.924]",d,"[1.3496382502659336,0.8521768937790613]","[-0.34963825026593365,0.14782310622093875]",392.6144,395.1107,1,s,1,0.967,,0.611020285,0.890803187,0.279782902,395.1136,395.1137,0,132,132,132,1,0.919521916,0.919521916,shape_difference1,1,,TRUE,,intensity,0.1,0.05,0.7,0.3,0.82,20,400,1E-11,3.5,0.01,0.5,0.1,,,,,,,,,,,,,,,,,,,,,,,,,,,,,,,,,,,,,,,,,,,,,,,,,,,,,,,,,,,,,,,,,,,,,,,,,,,,,,,,,
,,,,,509243,001,2025-03-14_00h08.13.599,Utility_discrimination_2024_2cat,2024.2.4,MacIntel,60.24096386,,,,,,,,0,"[0.5,0.5]","[1,0]",s,"[0.7862407850446756,1.1905652359824552]","[0.21375921495532435,-0.19056523598245512]",395.1154,397.4774,1,d,1,0.8422,,0.41128112,0.693450068,0.282168948,397.4809,397.4809,0,133,133,133,1,0.747364974,0.747364974,shape_difference3,1,,TRUE,,intensity,0.1,0.05,0.7,0.3,0.82,20,400,1E-11,3.5,0.01,0.5,0.1,,,,,,,,,,,,,,,,,,,,,,,,,,,,,,,,,,,,,,,,,,,,,,,,,,,,,,,,,,,,,,,,,,,,,,,,,,,,,,,,,
,,,,,509243,001,2025-03-14_00h08.13.599,Utility_discrimination_2024_2cat,2024.2.4,MacIntel,60.24096386,,,,,,,,4,"[0.5,0.5]","[0,1]",d,"[1.0435844276809632,0.5]","[-0.04358442768096327,0.5]",397.482,399.7444,1,d,1,0.7333,,0.137224662,0.64085203,0.503627368,399.7471,399.7471,0,134,134,134,1,0.543584428,0.543584428,shape_difference0,1,,TRUE,,intensity,0.1,0.05,0.7,0.3,0.82,20,400,1E-11,3.5,0.01,0.5,0.1,,,,,,,,,,,,,,,,,,,,,,,,,,,,,,,,,,,,,,,,,,,,,,,,,,,,,,,,,,,,,,,,,,,,,,,,,,,,,,,,,
,,,,,509243,001,2025-03-14_00h08.13.599,Utility_discrimination_2024_2cat,2024.2.4,MacIntel,60.24096386,,,,,,,,3,"[0.5,0.5]","[0.383,0.924]",d,"[0.5,0.8530794458357548]","[0.5,0.1469205541642452]",399.7481,402.1437,1,d,1,0.8678,,0.608907096,0.880177987,0.271270891,402.1461,402.1461,0,135,135,135,1,0.353079446,0.353079446,shape_difference4,1,,TRUE,,intensity,0.1,0.05,0.7,0.3,0.82,20,400,1E-11,3.5,0.01,0.5,0.1,,,,,,,,,,,,,,,,,,,,,,,,,,,,,,,,,,,,,,,,,,,,,,,,,,,,,,,,,,,,,,,,,,,,,,,,,,,,,,,,,
,,,,,509243,001,2025-03-14_00h08.13.599,Utility_discrimination_2024_2cat,2024.2.4,MacIntel,60.24096386,,,,,,,,1,"[0.5,0.5]","[0.924,0.383]",d,"[0.7823137644475954,1.1810911706255305]","[0.21768623555240463,-0.18109117062553037]",402.1482,404.5944,1,d,1,0.9169,,0.800915983,1.059894809,0.258978826,404.5968,404.5969,0,136,136,136,1,0.737111657,0.737111657,shape_difference3,1,,TRUE,,intensity,0.1,0.05,0.7,0.3,0.82,20,400,1E-11,3.5,0.01,0.5,0.1,,,,,,,,,,,,,,,,,,,,,,,,,,,,,,,,,,,,,,,,,,,,,,,,,,,,,,,,,,,,,,,,,,,,,,,,,,,,,,,,,
,,,,,509243,001,2025-03-14_00h08.13.599,Utility_discrimination_2024_2cat,2024.2.4,MacIntel,60.24096386,,,,,,,,2,"[0.5,0.5]","[0.707,0.707]",d,"[1.3351256644386746,0.8461613955411389]","[-0.33512566443867464,0.15383860445886105]",404.598,406.9445,1,d,1,0.8183,,0.802001849,1.097587815,0.295585966,406.9476,406.9476,0,137,137,137,1,0.903815654,0.903815654,shape_difference1,1,,TRUE,,intensity,0.1,0.05,0.7,0.3,0.82,20,400,1E-11,3.5,0.01,0.5,0.1,,,,,,,,,,,,,,,,,,,,,,,,,,,,,,,,,,,,,,,,,,,,,,,,,,,,,,,,,,,,,,,,,,,,,,,,,,,,,,,,,
,,,,,509243,001,2025-03-14_00h08.13.599,Utility_discrimination_2024_2cat,2024.2.4,MacIntel,60.24096386,,,,,,,,0,"[0.5,0.5]","[1,0]",d,"[1.1632737005294351,1.1632737005294351]","[-0.16327370052943502,-0.16327370052943502]",406.9489,409.3272,0,d,0,0.8503,,0.409540985,0.681193491,0.271652506,409.3298,409.3299,0,138,138,138,1,0.938152335,0.938152335,shape_difference2,1,,TRUE,,intensity,0.1,0.05,0.7,0.3,0.82,20,400,1E-11,3.5,0.01,0.5,0.1,,,,,,,,,,,,,,,,,,,,,,,,,,,,,,,,,,,,,,,,,,,,,,,,,,,,,,,,,,,,,,,,,,,,,,,,,,,,,,,,,
,,,,,509243,001,2025-03-14_00h08.13.599,Utility_discrimination_2024_2cat,2024.2.4,MacIntel,60.24096386,,,,,,,,4,"[0.5,0.5]","[0,1]",s,"[1.0325783699409712,0.5]","[-0.032578369940971186,0.5]",409.331,411.6277,1,d,1,0.7752,,0.130562758,0.584715878,0.45415312,411.6302,411.6302,0,139,139,139,1,0.53257837,0.53257837,shape_difference0,1,,TRUE,,intensity,0.1,0.05,0.7,0.3,0.82,20,400,1E-11,3.5,0.01,0.5,0.1,,,,,,,,,,,,,,,,,,,,,,,,,,,,,,,,,,,,,,,,,,,,,,,,,,,,,,,,,,,,,,,,,,,,,,,,,,,,,,,,,
,,,,,509243,001,2025-03-14_00h08.13.599,Utility_discrimination_2024_2cat,2024.2.4,MacIntel,60.24096386,,,,,,,,0,"[0.5,0.5]","[1,0]",d,"[0.5,0.8256917683693075]","[0.5,0.17430823163069248]",411.6311,415.2612,1,s,1,2.1081,,0.408105325,0.66636874,0.258263414,415.2637,415.2638,0,140,140,140,1,0.325691768,0.325691768,shape_difference4,1,,TRUE,,intensity,0.1,0.05,0.7,0.3,0.82,20,400,1E-11,3.5,0.01,0.5,0.1,,,,,,,,,,,,,,,,,,,,,,,,,,,,,,,,,,,,,,,,,,,,,,,,,,,,,,,,,,,,,,,,,,,,,,,,,,,,,,,,,
,,,,,509243,001,2025-03-14_00h08.13.599,Utility_discrimination_2024_2cat,2024.2.4,MacIntel,60.24096386,,,,,,,,2,"[0.5,0.5]","[0.707,0.707]",s,"[1.0205922448171734,0.5]","[-0.020592244817173366,0.5]",415.2646,418.6444,1,d,1,1.8611,,0.815422035,1.150897042,0.335475007,418.6462,418.6463,0,141,141,141,1,0.520592245,0.520592245,shape_difference0,1,,TRUE,,intensity,0.1,0.05,0.7,0.3,0.82,20,400,1E-11,3.5,0.01,0.5,0.1,,,,,,,,,,,,,,,,,,,,,,,,,,,,,,,,,,,,,,,,,,,,,,,,,,,,,,,,,,,,,,,,,,,,,,,,,,,,,,,,,
,,,,,509243,001,2025-03-14_00h08.13.599,Utility_discrimination_2024_2cat,2024.2.4,MacIntel,60.24096386,,,,,,,,3,"[0.5,0.5]","[0.383,0.924]",d,"[1.1863806909801293,1.1863806909801293]","[-0.18638069098012944,-0.18638069098012944]",418.6478,420.9769,1,d,1,0.806,,0.607107431,0.867243918,0.260136487,420.978,420.9781,0,142,142,142,1,0.970835489,0.970835489,shape_difference2,1,,TRUE,,intensity,0.1,0.05,0.7,0.3,0.82,20,400,1E-11,3.5,0.01,0.5,0.1,,,,,,,,,,,,,,,,,,,,,,,,,,,,,,,,,,,,,,,,,,,,,,,,,,,,,,,,,,,,,,,,,,,,,,,,,,,,,,,,,
,,,,,509243,001,2025-03-14_00h08.13.599,Utility_discrimination_2024_2cat,2024.2.4,MacIntel,60.24096386,,,,,,,,1,"[0.5,0.5]","[0.924,0.383]",d,"[0.7780425027402504,1.170786612355069]","[0.22195749725974961,-0.17078661235506887]",420.9785,423.1938,1,d,1,0.683,,0.788783464,1.039004377,0.250220912,423.1961,423.1961,0,143,143,143,1,0.725959537,0.725959537,shape_difference3,1,,TRUE,,intensity,0.1,0.05,0.7,0.3,0.82,20,400,1E-11,3.5,0.01,0.5,0.1,,,,,,,,,,,,,,,,,,,,,,,,,,,,,,,,,,,,,,,,,,,,,,,,,,,,,,,,,,,,,,,,,,,,,,,,,,,,,,,,,
,,,,,509243,001,2025-03-14_00h08.13.599,Utility_discrimination_2024_2cat,2024.2.4,MacIntel,60.24096386,,,,,,,,3,"[0.5,0.5]","[0.383,0.924]",d,"[1.3248652799755745,0.8419084439725595]","[-0.32486527997557446,0.15809155602744046]",423.1973,425.4771,1,d,1,0.752,,0.605523071,0.851059777,0.245536705,425.4797,425.4798,0,144,144,144,1,0.892711342,0.892711342,shape_difference1,1,,TRUE,,intensity,0.1,0.05,0.7,0.3,0.82,20,400,1E-11,3.5,0.01,0.5,0.1,,,,,,,,,,,,,,,,,,,,,,,,,,,,,,,,,,,,,,,,,,,,,,,,,,,,,,,,,,,,,,,,,,,,,,,,,,,,,,,,,
,,,,,509243,001,2025-03-14_00h08.13.599,Utility_discrimination_2024_2cat,2024.2.4,MacIntel,60.24096386,,,,,,,,1,"[0.5,0.5]","[0.924,0.383]",d,"[0.7732736797090984,1.1592816711519762]","[0.22672632029090162,-0.15928167115197622]",425.481,427.5949,1,d,1,0.5833,,0.772172607,1.011573322,0.239400715,427.5972,427.5972,0,145,145,145,1,0.713508302,0.713508302,shape_difference3,1,,TRUE,,intensity,0.1,0.05,0.7,0.3,0.82,20,400,1E-11,3.5,0.01,0.5,0.1,,,,,,,,,,,,,,,,,,,,,,,,,,,,,,,,,,,,,,,,,,,,,,,,,,,,,,,,,,,,,,,,,,,,,,,,,,,,,,,,,
,,,,,509243,001,2025-03-14_00h08.13.599,Utility_discrimination_2024_2cat,2024.2.4,MacIntel,60.24096386,,,,,,,,2,"[0.5,0.5]","[0.707,0.707]",d,"[1.3176449802472896,0.838915614106831]","[-0.3176449802472895,0.16108438589316898]",427.5984,430.3436,0,d,0,1.2167,,0.812595375,1.117524082,0.304928707,430.3461,430.3461,0,146,146,146,1,0.884897165,0.884897165,shape_difference1,1,,TRUE,,intensity,0.1,0.05,0.7,0.3,0.82,20,400,1E-11,3.5,0.01,0.5,0.1,,,,,,,,,,,,,,,,,,,,,,,,,,,,,,,,,,,,,,,,,,,,,,,,,,,,,,,,,,,,,,,,,,,,,,,,,,,,,,,,,
,,,,,509243,001,2025-03-14_00h08.13.599,Utility_discrimination_2024_2cat,2024.2.4,MacIntel,60.24096386,,,,,,,,4,"[0.5,0.5]","[0,1]",s,"[1.1780666333200056,1.1780666333200056]","[-0.17806663332000572,-0.17806663332000572]",430.3477,432.6446,0,d,0,0.7774,,0.123451186,0.545469718,0.422018532,432.6466,432.6466,0,147,147,147,1,0.95907586,0.95907586,shape_difference2,1,,TRUE,,intensity,0.1,0.05,0.7,0.3,0.82,20,400,1E-11,3.5,0.01,0.5,0.1,,,,,,,,,,,,,,,,,,,,,,,,,,,,,,,,,,,,,,,,,,,,,,,,,,,,,,,,,,,,,,,,,,,,,,,,,,,,,,,,,
,,,,,509243,001,2025-03-14_00h08.13.599,Utility_discrimination_2024_2cat,2024.2.4,MacIntel,60.24096386,,,,,,,,0,"[0.5,0.5]","[1,0]",s,"[0.5,0.7977226741025192]","[0.5,0.20227732589748082]",432.6478,434.8271,1,s,1,0.6584,,0.406888407,0.647912721,0.241024313,434.8289,434.829,0,148,148,148,1,0.297722674,0.297722674,shape_difference4,1,,TRUE,,intensity,0.1,0.05,0.7,0.3,0.82,20,400,1E-11,3.5,0.01,0.5,0.1,,,,,,,,,,,,,,,,,,,,,,,,,,,,,,,,,,,,,,,,,,,,,,,,,,,,,,,,,,,,,,,,,,,,,,,,,,,,,,,,,
,,,,,509243,001,2025-03-14_00h08.13.599,Utility_discrimination_2024_2cat,2024.2.4,MacIntel,60.24096386,,,,,,,,3,"[0.5,0.5]","[0.383,0.924]",s,"[1.0072056200344632,0.5]","[-0.007205620034463345,0.5]",434.8298,437.0945,1,s,1,0.7367,,0.604077333,0.830333102,0.226255768,437.097,437.097,0,149,149,149,1,0.50720562,0.50720562,shape_difference0,1,,TRUE,,intensity,0.1,0.05,0.7,0.3,0.82,20,400,1E-11,3.5,0.01,0.5,0.1,,,,,,,,,,,,,,,,,,,,,,,,,,,,,,,,,,,,,,,,,,,,,,,,,,,,,,,,,,,,,,,,,,,,,,,,,,,,,,,,,
,,,,,509243,001,2025-03-14_00h08.13.599,Utility_discrimination_2024_2cat,2024.2.4,MacIntel,60.24096386,,,,,,,,2,"[0.5,0.5]","[0.707,0.707]",s,"[0.7679390842020252,1.1464117853855647]","[0.23206091579797483,-0.14641178538556465]",437.0983,439.2449,0,s,0,0.6175,,0.851746775,1.186266658,0.334519883,439.2481,439.2482,0,150,150,150,1,0.699579854,0.699579854,shape_difference3,1,,TRUE,,intensity,0.1,0.05,0.7,0.3,0.82,20,400,1E-11,3.5,0.01,0.5,0.1,,,,,,,,,,,,,,,,,,,,,,,,,,,,,,,,,,,,,,,,,,,,,,,,,,,,,,,,,,,,,,,,,,,,,,,,,,,,,,,,,
,,,,,509243,001,2025-03-14_00h08.13.599,Utility_discrimination_2024_2cat,2024.2.4,MacIntel,60.24096386,,,,,,,,4,"[0.5,0.5]","[0,1]",d,"[1.2154970314219287,1.2154970314219287]","[-0.21549703142192878,-0.21549703142192878]",439.2492,441.161,1,d,1,0.3839,,0.118407708,0.495526665,0.377118957,441.1629,441.163,0,151,151,151,1,1.012018432,1.012018432,shape_difference2,1,,TRUE,,intensity,0.1,0.05,0.7,0.3,0.82,20,400,1E-11,3.5,0.01,0.5,0.1,,,,,,,,,,,,,,,,,,,,,,,,,,,,,,,,,,,,,,,,,,,,,,,,,,,,,,,,,,,,,,,,,,,,,,,,,,,,,,,,,
,,,,,509243,001,2025-03-14_00h08.13.599,Utility_discrimination_2024_2cat,2024.2.4,MacIntel,60.24096386,,,,,,,,1,"[0.5,0.5]","[0.924,0.383]",d,"[0.5,0.781534704405496]","[0.5,0.218465295594504]",441.1641,443.1284,0,d,0,0.4335,,0.806663314,1.065082039,0.258418724,443.1317,443.1317,0,152,152,152,1,0.281534704,0.281534704,shape_difference4,1,,TRUE,,intensity,0.1,0.05,0.7,0.3,0.82,20,400,1E-11,3.5,0.01,0.5,0.1,,,,,,,,,,,,,,,,,,,,,,,,,,,,,,,,,,,,,,,,,,,,,,,,,,,,,,,,,,,,,,,,,,,,,,,,,,,,,,,,,
,,,,,509243,001,2025-03-14_00h08.13.599,Utility_discrimination_2024_2cat,2024.2.4,MacIntel,60.24096386,,,,,,,,0,"[0.5,0.5]","[1,0]",s,"[1.3492874468289306,0.8520314849951086]","[-0.34928744682893054,0.1479685150048914]",443.133,446.2446,0,d,0,1.5934,,0.405824972,0.624375991,0.218551018,446.2463,446.2464,0,153,153,153,1,0.919142258,0.919142258,shape_difference1,1,,TRUE,,intensity,0.1,0.05,0.7,0.3,0.82,20,400,1E-11,3.5,0.01,0.5,0.1,,,,,,,,,,,,,,,,,,,,,,,,,,,,,,,,,,,,,,,,,,,,,,,,,,,,,,,,,,,,,,,,,,,,,,,,,,,,,,,,,
,,,,,509243,001,2025-03-14_00h08.13.599,Utility_discrimination_2024_2cat,2024.2.4,MacIntel,60.24096386,,,,,,,,1,"[0.5,0.5]","[0.924,0.383]",s,"[0.9956843276789841,0.5]","[0.004315672321015929,0.5]",446.248,449.2282,1,d,1,1.4507,,0.81315215,1.090641825,0.277489675,449.2305,449.2306,0,154,154,154,1,0.495684328,0.495684328,shape_difference0,1,,TRUE,,intensity,0.1,0.05,0.7,0.3,0.82,20,400,1E-11,3.5,0.01,0.5,0.1,,,,,,,,,,,,,,,,,,,,,,,,,,,,,,,,,,,,,,,,,,,,,,,,,,,,,,,,,,,,,,,,,,,,,,,,,,,,,,,,,
,,,,,509243,001,2025-03-14_00h08.13.599,Utility_discrimination_2024_2cat,2024.2.4,MacIntel,60.24096386,,,,,,,,3,"[0.5,0.5]","[0.383,0.924]",d,"[1.377329489783229,0.8636549724967281]","[-0.377329489783229,0.13634502750327193]",449.2321,452.395,1,s,1,1.633,,0.610353707,0.869784417,0.259430709,452.3974,452.3975,0,155,155,155,1,0.94949079,0.94949079,shape_difference1,1,,TRUE,,intensity,0.1,0.05,0.7,0.3,0.82,20,400,1E-11,3.5,0.01,0.5,0.1,,,,,,,,,,,,,,,,,,,,,,,,,,,,,,,,,,,,,,,,,,,,,,,,,,,,,,,,,,,,,,,,,,,,,,,,,,,,,,,,,
,,,,,509243,001,2025-03-14_00h08.13.599,Utility_discrimination_2024_2cat,2024.2.4,MacIntel,60.24096386,,,,,,,,2,"[0.5,0.5]","[0.707,0.707]",s,"[0.7815449567457926,1.179236396953296]","[0.21845504325420745,-0.17923639695329596]",452.3989,454.7784,0,d,0,0.8605,,0.841262818,1.169601711,0.328338893,454.7817,454.7817,0,156,156,156,1,0.735104326,0.735104326,shape_difference3,1,,TRUE,,intensity,0.1,0.05,0.7,0.3,0.82,20,400,1E-11,3.5,0.01,0.5,0.1,,,,,,,,,,,,,,,,,,,,,,,,,,,,,,,,,,,,,,,,,,,,,,,,,,,,,,,,,,,,,,,,,,,,,,,,,,,,,,,,,
,,,,,509243,001,2025-03-14_00h08.13.599,Utility_discrimination_2024_2cat,2024.2.4,MacIntel,60.24096386,,,,,,,,4,"[0.5,0.5]","[0,1]",s,"[1.2033780891916996,1.2033780891916996]","[-0.20337808919169953,-0.20337808919169953]",454.783,456.9775,1,d,1,0.6683,,0.18449193,0.591224261,0.406732331,456.98,456.9801,0,157,157,157,1,0.994877071,0.994877071,shape_difference2,1,,TRUE,,intensity,0.1,0.05,0.7,0.3,0.82,20,400,1E-11,3.5,0.01,0.5,0.1,,,,,,,,,,,,,,,,,,,,,,,,,,,,,,,,,,,,,,,,,,,,,,,,,,,,,,,,,,,,,,,,,,,,,,,,,,,,,,,,,
,,,,,509243,001,2025-03-14_00h08.13.599,Utility_discrimination_2024_2cat,2024.2.4,MacIntel,60.24096386,,,,,,,,0,"[0.5,0.5]","[1,0]",d,"[0.5,0.8499614862437994]","[0.5,0.1500385137562006]",456.9813,459.0785,0,d,0,0.5677,,0.404864126,0.59915013,0.194286004,459.0836,459.0836,0,158,158,158,1,0.349961486,0.349961486,shape_difference4,1,,TRUE,,intensity,0.1,0.05,0.7,0.3,0.82,20,400,1E-11,3.5,0.01,0.5,0.1,,,,,,,,,,,,,,,,,,,,,,,,,,,,,,,,,,,,,,,,,,,,,,,,,,,,,,,,,,,,,,,,,,,,,,,,,,,,,,,,,
,,,,,509243,001,2025-03-14_00h08.13.599,Utility_discrimination_2024_2cat,2024.2.4,MacIntel,60.24096386,,,,,,,,1,"[0.5,0.5]","[0.924,0.383]",s,"[0.988502281571229,0.5]","[0.011497718428771009,0.5]",459.0849,461.4275,1,s,1,0.8168,,0.811194446,1.080471919,0.269277472,461.4298,461.4298,0,159,159,159,1,0.488502282,0.488502282,shape_difference0,1,,TRUE,,intensity,0.1,0.05,0.7,0.3,0.82,20,400,1E-11,3.5,0.01,0.5,0.1,,,,,,,,,,,,,,,,,,,,,,,,,,,,,,,,,,,,,,,,,,,,,,,,,,,,,,,,,,,,,,,,,,,,,,,,,,,,,,,,,
,,,,,509243,001,2025-03-14_00h08.13.599,Utility_discrimination_2024_2cat,2024.2.4,MacIntel,60.24096386,,,,,,,,0,"[0.5,0.5]","[1,0]",s,"[1.3685080814857051,0.859998479663447]","[-0.368508081485705,0.140001520336553]",461.4312,463.9118,1,s,1,0.9505,,0.403965002,0.594486992,0.190521991,463.915,463.915,0,160,160,160,1,0.939943811,0.939943811,shape_difference1,1,,TRUE,,intensity,0.1,0.05,0.7,0.3,0.82,20,400,1E-11,3.5,0.01,0.5,0.1,,,,,,,,,,,,,,,,,,,,,,,,,,,,,,,,,,,,,,,,,,,,,,,,,,,,,,,,,,,,,,,,,,,,,,,,,,,,,,,,,
,,,,,509243,001,2025-03-14_00h08.13.599,Utility_discrimination_2024_2cat,2024.2.4,MacIntel,60.24096386,,,,,,,,4,"[0.5,0.5]","[0,1]",s,"[0.9826873981490124,0.5]","[0.017312601850987597,0.5]",463.916,466.2116,1,d,1,0.7659,,0.216294563,0.661793443,0.445498879,466.2141,466.2141,0,161,161,161,1,0.482687398,0.482687398,shape_difference0,1,,TRUE,,intensity,0.1,0.05,0.7,0.3,0.82,20,400,1E-11,3.5,0.01,0.5,0.1,,,,,,,,,,,,,,,,,,,,,,,,,,,,,,,,,,,,,,,,,,,,,,,,,,,,,,,,,,,,,,,,,,,,,,,,,,,,,,,,,
,,,,,509243,001,2025-03-14_00h08.13.599,Utility_discrimination_2024_2cat,2024.2.4,MacIntel,60.24096386,,,,,,,,3,"[0.5,0.5]","[0.383,0.924]",d,"[0.5,0.8941218070711372]","[0.5,0.1058781929288628]",466.2153,469.1454,1,d,1,1.4002,,0.617162932,0.890488638,0.273325706,469.1481,469.1481,0,162,162,162,1,0.394121807,0.394121807,shape_difference4,1,,TRUE,,intensity,0.1,0.05,0.7,0.3,0.82,20,400,1E-11,3.5,0.01,0.5,0.1,,,,,,,,,,,,,,,,,,,,,,,,,,,,,,,,,,,,,,,,,,,,,,,,,,,,,,,,,,,,,,,,,,,,,,,,,,,,,,,,,
,,,,,509243,001,2025-03-14_00h08.13.599,Utility_discrimination_2024_2cat,2024.2.4,MacIntel,60.24096386,,,,,,,,2,"[0.5,0.5]","[0.707,0.707]",d,"[0.7899946929585631,1.1996216613412853]","[0.21000530704143694,-0.19962166134128523]",469.1492,471.4287,1,d,1,0.7537,,0.83354151,1.147953385,0.314411875,471.4315,471.4315,0,163,163,163,1,0.7571663,0.7571663,shape_difference3,1,,TRUE,,intensity,0.1,0.05,0.7,0.3,0.82,20,400,1E-11,3.5,0.01,0.5,0.1,,,,,,,,,,,,,,,,,,,,,,,,,,,,,,,,,,,,,,,,,,,,,,,,,,,,,,,,,,,,,,,,,,,,,,,,,,,,,,,,,
,,,,,509243,001,2025-03-14_00h08.13.599,Utility_discrimination_2024_2cat,2024.2.4,MacIntel,60.24096386,,,,,,,,4,"[0.5,0.5]","[0,1]",d,"[1.195764331013031,1.195764331013031]","[-0.19576433101303103,-0.19576433101303103]",471.4325,473.9454,1,d,1,0.9844,,0.212347903,0.609967125,0.397619222,473.948,473.9481,0,164,164,164,1,0.984107965,0.984107965,shape_difference2,1,,TRUE,,intensity,0.1,0.05,0.7,0.3,0.82,20,400,1E-11,3.5,0.01,0.5,0.1,,,,,,,,,,,,,,,,,,,,,,,,,,,,,,,,,,,,,,,,,,,,,,,,,,,,,,,,,,,,,,,,,,,,,,,,,,,,,,,,,
,,,,,509243,001,2025-03-14_00h08.13.599,Utility_discrimination_2024_2cat,2024.2.4,MacIntel,60.24096386,,,,,,,,2,"[0.5,0.5]","[0.707,0.707]",d,"[0.5,0.8749825640382938]","[0.5,0.12501743596170622]",473.9493,476.2943,0,d,0,0.8168,,0.827750448,1.118989065,0.291238618,476.2972,476.2973,0,165,165,165,1,0.374982564,0.374982564,shape_difference4,1,,TRUE,,intensity,0.1,0.05,0.7,0.3,0.82,20,400,1E-11,3.5,0.01,0.5,0.1,,,,,,,,,,,,,,,,,,,,,,,,,,,,,,,,,,,,,,,,,,,,,,,,,,,,,,,,,,,,,,,,,,,,,,,,,,,,,,,,,
,,,,,509243,001,2025-03-14_00h08.13.599,Utility_discrimination_2024_2cat,2024.2.4,MacIntel,60.24096386,,,,,,,,3,"[0.5,0.5]","[0.383,0.924]",s,"[1.1894089668290588,1.1894089668290588]","[-0.18940896682905872,-0.18940896682905872]",476.2985,479.4453,1,s,1,1.6211,,0.614939056,0.879565552,0.264626496,479.4478,479.4479,0,166,166,166,1,0.975118765,0.975118765,shape_difference2,1,,TRUE,,intensity,0.1,0.05,0.7,0.3,0.82,20,400,1E-11,3.5,0.01,0.5,0.1,,,,,,,,,,,,,,,,,,,,,,,,,,,,,,,,,,,,,,,,,,,,,,,,,,,,,,,,,,,,,,,,,,,,,,,,,,,,,,,,,
,,,,,509243,001,2025-03-14_00h08.13.599,Utility_discrimination_2024_2cat,2024.2.4,MacIntel,60.24096386,,,,,,,,0,"[0.5,0.5]","[1,0]",s,"[0.7872154849522426,1.1929167313208149]","[0.21278451504775742,-0.192916731320815]",479.4495,481.7786,1,s,1,0.7992,,0.403093635,0.589690197,0.186596561,481.7817,481.7818,0,167,167,167,1,0.749909882,0.749909882,shape_difference3,1,,TRUE,,intensity,0.1,0.05,0.7,0.3,0.82,20,400,1E-11,3.5,0.01,0.5,0.1,,,,,,,,,,,,,,,,,,,,,,,,,,,,,,,,,,,,,,,,,,,,,,,,,,,,,,,,,,,,,,,,,,,,,,,,,,,,,,,,,
,,,,,509243,001,2025-03-14_00h08.13.599,Utility_discrimination_2024_2cat,2024.2.4,MacIntel,60.24096386,,,,,,,,1,"[0.5,0.5]","[0.924,0.383]",s,"[0.9779374128483469,0.5]","[0.0220625871516531,0.5]",481.783,483.9953,1,d,1,0.6941,,0.809607804,1.068154991,0.258547187,483.9976,483.9977,0,168,168,168,1,0.477937413,0.477937413,shape_difference0,1,,TRUE,,intensity,0.1,0.05,0.7,0.3,0.82,20,400,1E-11,3.5,0.01,0.5,0.1,,,,,,,,,,,,,,,,,,,,,,,,,,,,,,,,,,,,,,,,,,,,,,,,,,,,,,,,,,,,,,,,,,,,,,,,,,,,,,,,,
,,,,,509243,001,2025-03-14_00h08.13.599,Utility_discrimination_2024_2cat,2024.2.4,MacIntel,60.24096386,,,,,,,,1,"[0.5,0.5]","[0.924,0.383]",d,"[1.3589939008120384,0.8560548311807475]","[-0.3589939008120384,0.14394516881925246]",483.9989,486.4279,0,d,0,0.9001,,0.815622986,1.090487692,0.274864705,486.4304,486.4304,0,169,169,169,1,0.929647079,0.929647079,shape_difference1,1,,TRUE,,intensity,0.1,0.05,0.7,0.3,0.82,20,400,1E-11,3.5,0.01,0.5,0.1,,,,,,,,,,,,,,,,,,,,,,,,,,,,,,,,,,,,,,,,,,,,,,,,,,,,,,,,,,,,,,,,,,,,,,,,,,,,,,,,,
,,,,,509243,001,2025-03-14_00h08.13.599,Utility_discrimination_2024_2cat,2024.2.4,MacIntel,60.24096386,,,,,,,,3,"[0.5,0.5]","[0.383,0.924]",s,"[1.3818534447208566,0.8655301616104849]","[-0.3818534447208567,0.13446983838951504]",486.4316,489.2788,1,s,1,1.3164,,0.61288137,0.869167948,0.256286579,489.2813,489.2813,0,170,170,170,1,0.954386845,0.954386845,shape_difference1,1,,TRUE,,intensity,0.1,0.05,0.7,0.3,0.82,20,400,1E-11,3.5,0.01,0.5,0.1,,,,,,,,,,,,,,,,,,,,,,,,,,,,,,,,,,,,,,,,,,,,,,,,,,,,,,,,,,,,,,,,,,,,,,,,,,,,,,,,,
,,,,,509243,001,2025-03-14_00h08.13.599,Utility_discrimination_2024_2cat,2024.2.4,MacIntel,60.24096386,,,,,,,,4,"[0.5,0.5]","[0,1]",s,"[0.7843463587432972,1.1859948707018448]","[0.21565364125670283,-0.18599487070184484]",489.283,491.5787,1,s,1,0.7664,,0.264050959,0.709676766,0.445625807,491.5807,491.5807,0,171,171,171,1,0.742418691,0.742418691,shape_difference3,1,,TRUE,,intensity,0.1,0.05,0.7,0.3,0.82,20,400,1E-11,3.5,0.01,0.5,0.1,,,,,,,,,,,,,,,,,,,,,,,,,,,,,,,,,,,,,,,,,,,,,,,,,,,,,,,,,,,,,,,,,,,,,,,,,,,,,,,,,
,,,,,509243,001,2025-03-14_00h08.13.599,Utility_discrimination_2024_2cat,2024.2.4,MacIntel,60.24096386,,,,,,,,0,"[0.5,0.5]","[1,0]",s,"[0.5,0.9564301325490633]","[0.5,0.04356986745093672]",491.5818,496.129,1,d,1,3.0178,,0.40222067,0.584594939,0.18237427,496.1315,496.1315,0,172,172,172,1,0.456430133,0.456430133,shape_difference4,1,,TRUE,,intensity,0.1,0.05,0.7,0.3,0.82,20,400,1E-11,3.5,0.01,0.5,0.1,,,,,,,,,,,,,,,,,,,,,,,,,,,,,,,,,,,,,,,,,,,,,,,,,,,,,,,,,,,,,,,,,,,,,,,,,,,,,,,,,
,,,,,509243,001,2025-03-14_00h08.13.599,Utility_discrimination_2024_2cat,2024.2.4,MacIntel,60.24096386,,,,,,,,2,"[0.5,0.5]","[0.707,0.707]",d,"[0.9740195426013258,0.5]","[0.02598045739867416,0.5]",496.1335,499.1624,0,d,0,1.499,,0.823330658,1.096096551,0.272765894,499.1647,499.1648,0,173,173,173,1,0.474019543,0.474019543,shape_difference0,1,,TRUE,,intensity,0.1,0.05,0.7,0.3,0.82,20,400,1E-11,3.5,0.01,0.5,0.1,,,,,,,,,,,,,,,,,,,,,,,,,,,,,,,,,,,,,,,,,,,,,,,,,,,,,,,,,,,,,,,,,,,,,,,,,,,,,,,,,
,,,,,509243,001,2025-03-14_00h08.13.599,Utility_discrimination_2024_2cat,2024.2.4,MacIntel,60.24096386,,,,,,,,3,"[0.5,0.5]","[0.383,0.924]",s,"[1.1839451187607613,1.1839451187607613]","[-0.18394511876076114,-0.18394511876076114]",499.166,501.9791,1,d,1,1.284,,0.611226377,0.856421815,0.245195438,501.9824,501.9824,0,174,174,174,1,0.96739055,0.96739055,shape_difference2,1,,TRUE,,intensity,0.1,0.05,0.7,0.3,0.82,20,400,1E-11,3.5,0.01,0.5,0.1,,,,,,,,,,,,,,,,,,,,,,,,,,,,,,,,,,,,,,,,,,,,,,,,,,,,,,,,,,,,,,,,,,,,,,,,,,,,,,,,,
,,,,,509243,001,2025-03-14_00h08.13.599,Utility_discrimination_2024_2cat,2024.2.4,MacIntel,60.24096386,,,,,,,,2,"[0.5,0.5]","[0.707,0.707]",d,"[0.7812289934482455,1.1784741251858455]","[0.21877100655175452,-0.1784741251858455]",501.9835,504.7121,0,d,0,1.2088,,0.819901457,1.087559575,0.267658118,504.7134,504.7135,0,175,175,175,1,0.734279356,0.734279356,shape_difference3,1,,TRUE,,intensity,0.1,0.05,0.7,0.3,0.82,20,400,1E-11,3.5,0.01,0.5,0.1,,,,,,,,,,,,,,,,,,,,,,,,,,,,,,,,,,,,,,,,,,,,,,,,,,,,,,,,,,,,,,,,,,,,,,,,,,,,,,,,,
,,,,,509243,001,2025-03-14_00h08.13.599,Utility_discrimination_2024_2cat,2024.2.4,MacIntel,60.24096386,,,,,,,,0,"[0.5,0.5]","[1,0]",s,"[1.17909059540939,1.17909059540939]","[-0.17909059540938999,-0.17909059540938999]",504.7143,507.6125,1,d,1,1.3669,,0.40635208,0.596694759,0.190342678,507.6156,507.6157,0,176,176,176,1,0.96052418,0.96052418,shape_difference2,1,,TRUE,,intensity,0.1,0.05,0.7,0.3,0.82,20,400,1E-11,3.5,0.01,0.5,0.1,,,,,,,,,,,,,,,,,,,,,,,,,,,,,,,,,,,,,,,,,,,,,,,,,,,,,,,,,,,,,,,,,,,,,,,,,,,,,,,,,
,,,,,509243,001,2025-03-14_00h08.13.599,Utility_discrimination_2024_2cat,2024.2.4,MacIntel,60.24096386,,,,,,,,1,"[0.5,0.5]","[0.924,0.383]",d,"[0.9889995968274037,0.5]","[0.011000403172596318,0.5]",507.617,510.8959,1,s,1,1.7498,,0.813665583,1.079024951,0.265359368,510.899,510.899,0,177,177,177,1,0.488999597,0.488999597,shape_difference0,1,,TRUE,,intensity,0.1,0.05,0.7,0.3,0.82,20,400,1E-11,3.5,0.01,0.5,0.1,,,,,,,,,,,,,,,,,,,,,,,,,,,,,,,,,,,,,,,,,,,,,,,,,,,,,,,,,,,,,,,,,,,,,,,,,,,,,,,,,
,,,,,509243,001,2025-03-14_00h08.13.599,Utility_discrimination_2024_2cat,2024.2.4,MacIntel,60.24096386,,,,,,,,4,"[0.5,0.5]","[0,1]",s,"[1.374573980401589,0.8625128078937323]","[-0.37457398040158907,0.13748719210626775]",510.9001,513.3458,0,d,0,0.9276,,0.253116531,0.669894332,0.416777801,513.3481,513.3482,0,178,178,178,1,0.946508637,0.946508637,shape_difference1,1,,TRUE,,intensity,0.1,0.05,0.7,0.3,0.82,20,400,1E-11,3.5,0.01,0.5,0.1,,,,,,,,,,,,,,,,,,,,,,,,,,,,,,,,,,,,,,,,,,,,,,,,,,,,,,,,,,,,,,,,,,,,,,,,,,,,,,,,,
,,,,,509243,001,2025-03-14_00h08.13.599,Utility_discrimination_2024_2cat,2024.2.4,MacIntel,60.24096386,,,,,,,,3,"[0.5,0.5]","[0.383,0.924]",s,"[0.5,0.9340279592016302]","[0.5,0.06597204079836982]",513.3494,515.6784,1,s,1,0.8001,,0.617400055,0.879702607,0.262302551,515.6821,515.6821,0,179,179,179,1,0.434027959,0.434027959,shape_difference4,1,,TRUE,,intensity,0.1,0.05,0.7,0.3,0.82,20,400,1E-11,3.5,0.01,0.5,0.1,,,,,,,,,,,,,,,,,,,,,,,,,,,,,,,,,,,,,,,,,,,,,,,,,,,,,,,,,,,,,,,,,,,,,,,,,,,,,,,,,
,,,,,509243,001,2025-03-14_00h08.13.599,Utility_discrimination_2024_2cat,2024.2.4,MacIntel,60.24096386,,,,,,,,1,"[0.5,0.5]","[0.924,0.383]",s,"[0.7887576030688941,1.1966371416074624]","[0.21124239693110597,-0.19663714160746237]",515.6832,518.2959,1,d,1,1.084,,0.821951946,1.095178261,0.273226315,518.2984,518.2985,0,180,180,180,1,0.7539363,0.7539363,shape_difference3,1,,TRUE,,intensity,0.1,0.05,0.7,0.3,0.82,20,400,1E-11,3.5,0.01,0.5,0.1,,,,,,,,,,,,,,,,,,,,,,,,,,,,,,,,,,,,,,,,,,,,,,,,,,,,,,,,,,,,,,,,,,,,,,,,,,,,,,,,,
,,,,,509243,001,2025-03-14_00h08.13.599,Utility_discrimination_2024_2cat,2024.2.4,MacIntel,60.24096386,,,,,,,,0,"[0.5,0.5]","[1,0]",d,"[1.3912627602714087,0.8694303432726727]","[-0.3912627602714086,0.1305696567273274]",518.2997,520.5792,0,d,0,0.7493,,0.4056941,0.592596766,0.186902665,520.5821,520.5822,0,181,181,181,1,0.964570087,0.964570087,shape_difference1,1,,TRUE,,intensity,0.1,0.05,0.7,0.3,0.82,20,400,1E-11,3.5,0.01,0.5,0.1,,,,,,,,,,,,,,,,,,,,,,,,,,,,,,,,,,,,,,,,,,,,,,,,,,,,,,,,,,,,,,,,,,,,,,,,,,,,,,,,,
,,,,,509243,001,2025-03-14_00h08.13.599,Utility_discrimination_2024_2cat,2024.2.4,MacIntel,60.24096386,,,,,,,,2,"[0.5,0.5]","[0.707,0.707]",s,"[0.9834040825023949,0.5]","[0.01659591749760514,0.5]",520.5834,522.6625,1,d,1,0.5504,,0.817199796,1.078083973,0.260884177,522.6644,522.6644,0,182,182,182,1,0.483404083,0.483404083,shape_difference0,1,,TRUE,,intensity,0.1,0.05,0.7,0.3,0.82,20,400,1E-11,3.5,0.01,0.5,0.1,,,,,,,,,,,,,,,,,,,,,,,,,,,,,,,,,,,,,,,,,,,,,,,,,,,,,,,,,,,,,,,,,,,,,,,,,,,,,,,,,
,,,,,509243,001,2025-03-14_00h08.13.599,Utility_discrimination_2024_2cat,2024.2.4,MacIntel,60.24096386,,,,,,,,4,"[0.5,0.5]","[0,1]",d,"[1.174622533063477,1.174622533063477]","[-0.17462253306347697,-0.17462253306347697]",522.6655,524.696,1,d,1,0.5009,,0.241204085,0.632157417,0.390953332,524.6986,524.6987,0,183,183,183,1,0.954204431,0.954204431,shape_difference2,1,,TRUE,,intensity,0.1,0.05,0.7,0.3,0.82,20,400,1E-11,3.5,0.01,0.5,0.1,,,,,,,,,,,,,,,,,,,,,,,,,,,,,,,,,,,,,,,,,,,,,,,,,,,,,,,,,,,,,,,,,,,,,,,,,,,,,,,,,
,,,,,509243,001,2025-03-14_00h08.13.599,Utility_discrimination_2024_2cat,2024.2.4,MacIntel,60.24096386,,,,,,,,4,"[0.5,0.5]","[0,1]",d,"[0.5,0.9108235752541121]","[0.5,0.08917642474588794]",524.7,527.1454,1,d,1,0.916,,0.232753962,0.592461855,0.359707893,527.148,527.1481,0,184,184,184,1,0.410823575,0.410823575,shape_difference4,1,,TRUE,,intensity,0.1,0.05,0.7,0.3,0.82,20,400,1E-11,3.5,0.01,0.5,0.1,,,,,,,,,,,,,,,,,,,,,,,,,,,,,,,,,,,,,,,,,,,,,,,,,,,,,,,,,,,,,,,,,,,,,,,,,,,,,,,,,
,,,,,509243,001,2025-03-14_00h08.13.599,Utility_discrimination_2024_2cat,2024.2.4,MacIntel,60.24096386,,,,,,,,0,"[0.5,0.5]","[1,0]",d,"[0.5,0.892131794295355]","[0.5,0.10786820570464495]",527.1497,529.9463,0,d,0,1.2668,,0.405095303,0.588326502,0.1832312,529.9495,529.9495,0,185,185,185,1,0.392131794,0.392131794,shape_difference4,1,,TRUE,,intensity,0.1,0.05,0.7,0.3,0.82,20,400,1E-11,3.5,0.01,0.5,0.1,,,,,,,,,,,,,,,,,,,,,,,,,,,,,,,,,,,,,,,,,,,,,,,,,,,,,,,,,,,,,,,,,,,,,,,,,,,,,,,,,
,,,,,509243,001,2025-03-14_00h08.13.599,Utility_discrimination_2024_2cat,2024.2.4,MacIntel,60.24096386,,,,,,,,3,"[0.5,0.5]","[0.383,0.924]",s,"[0.9788400644882884,0.5]","[0.02115993551171158,0.5]",529.9509,533.1121,0,d,0,1.6336,,0.615291222,0.868078355,0.252787133,533.1152,533.1153,0,186,186,186,1,0.478840064,0.478840064,shape_difference0,1,,TRUE,,intensity,0.1,0.05,0.7,0.3,0.82,20,400,1E-11,3.5,0.01,0.5,0.1,,,,,,,,,,,,,,,,,,,,,,,,,,,,,,,,,,,,,,,,,,,,,,,,,,,,,,,,,,,,,,,,,,,,,,,,,,,,,,,,,
,,,,,509243,001,2025-03-14_00h08.13.599,Utility_discrimination_2024_2cat,2024.2.4,MacIntel,60.24096386,,,,,,,,2,"[0.5,0.5]","[0.707,0.707]",s,"[0.786418923331387,1.1909950004130587]","[0.2135810766686131,-0.19099500041305872]",533.1167,538.5963,1,s,1,3.95,,0.815041202,1.067140497,0.252099295,538.6005,538.6005,0,187,187,187,1,0.747830087,0.747830087,shape_difference3,1,,TRUE,,intensity,0.1,0.05,0.7,0.3,0.82,20,400,1E-11,3.5,0.01,0.5,0.1,,,,,,,,,,,,,,,,,,,,,,,,,,,,,,,,,,,,,,,,,,,,,,,,,,,,,,,,,,,,,,,,,,,,,,,,,,,,,,,,,
,,,,,509243,001,2025-03-14_00h08.13.599,Utility_discrimination_2024_2cat,2024.2.4,MacIntel,60.24096386,,,,,,,,1,"[0.5,0.5]","[0.924,0.383]",s,"[1.1703592166912185,1.1703592166912185]","[-0.17035921669121845,-0.17035921669121845]",538.602,547.8788,0,d,0,7.7496,,0.876824621,1.161278784,0.284454163,547.8813,547.8813,0,188,188,188,1,0.948174281,0.948174281,shape_difference2,1,,TRUE,,intensity,0.1,0.05,0.7,0.3,0.82,20,400,1E-11,3.5,0.01,0.5,0.1,,,,,,,,,,,,,,,,,,,,,,,,,,,,,,,,,,,,,,,,,,,,,,,,,,,,,,,,,,,,,,,,,,,,,,,,,,,,,,,,,
,,,,,509243,001,2025-03-14_00h08.13.599,Utility_discrimination_2024_2cat,2024.2.4,MacIntel,60.24096386,,,,,,,,3,"[0.5,0.5]","[0.383,0.924]",s,"[1.4199590534570192,0.8813250189112969]","[-0.4199590534570191,0.11867498108870311]",547.8828,549.9621,1,d,1,0.5515,,0.613304328,0.856429789,0.243125461,549.9651,549.9652,0,189,189,189,1,0.995626681,0.995626681,shape_difference1,1,,TRUE,,intensity,0.1,0.05,0.7,0.3,0.82,20,400,1E-11,3.5,0.01,0.5,0.1,,,,,,,,,,,,,,,,,,,,,,,,,,,,,,,,,,,,,,,,,,,,,,,,,,,,,,,,,,,,,,,,,,,,,,,,,,,,,,,,,
,,,,,509243,001,2025-03-14_00h08.13.599,Utility_discrimination_2024_2cat,2024.2.4,MacIntel,60.24096386,,,,,,,,4,"[0.5,0.5]","[0,1]",d,"[0.7838881791944199,1.1848894975865378]","[0.21611182080558006,-0.18488949758653794]",549.9663,552.1964,0,d,0,0.6997,,0.303955677,0.673386887,0.369431211,552.1996,552.1996,0,190,190,190,1,0.7412224,0.7412224,shape_difference3,1,,TRUE,,intensity,0.1,0.05,0.7,0.3,0.82,20,400,1E-11,3.5,0.01,0.5,0.1,,,,,,,,,,,,,,,,,,,,,,,,,,,,,,,,,,,,,,,,,,,,,,,,,,,,,,,,,,,,,,,,,,,,,,,,,,,,,,,,,
