Consent.started,Consent.stopped,key_resp.keys,key_resp.rt,key_resp.duration,participant,session,date,expName,psychopyVersion,OS,frameRate,SetupExperiment.started,SetupExperiment.stopped,DiscrimInstructions_Pre.started,DiscrimInstructions_Pre.stopped,KeyboardResponse.keys,KeyboardResponse.rt,KeyboardResponse.duration,feature_index,feature_center,feature_vector,correct_answer,coord1,coord2,DiscriminationTrial.started,DiscriminationTrial.stopped,PreTest.response,Resp_s_or_d.keys,Resp_s_or_d.corr,Resp_s_or_d.rt,Resp_s_or_d.duration,PreTest.CI_lower,PreTest.CI_upper,PreTest.CI_width,CrashPretest_2.started,CrashPretest_2.stopped,PreTest.thisRepN,PreTest.thisTrialN,PreTest.thisN,PreTest.thisIndex,PreTest.ran,PreTest.intensity,intensity,PreTest.label,PreTest.nReps,PreTest.method,PreTest.autoLog,PreTest.seed,PreTest.varName,PreTest.startVal,PreTest.minVal,PreTest.maxVal,PreTest.startValSd,PreTest.pThreshold,PreTest.nTrials,PreTest.maxTrials,PreTest.stopInterval,PreTest.beta,PreTest.delta,PreTest.gamma,PreTest.grain,WelcomeToCategorizationTask.started,WelcomeToCategorizationTask.stopped,PressAnyKey3.keys,PressAnyKey3.rt,PressAnyKey3.duration,shape_coordinates,category_center,category_sigma,subspace_center,subspace_vector1,subspace_vector2,CategorizationTrial.started,CategorizationTrial.stopped,Respond_1or2.keys,Respond_1or2.rt,Respond_1or2.duration,Feedback.started,Feedback.stopped,xcoord,ycoord,shape_coord,numeric_response_minus1,correctness,truecategory,mixture_index,respAifA,respBifA,respAifB,respBifB,trial_number,D,muAx,muAy,muBx,muBy,sigmaA,sigmaB,priorA,priorB,TrialLoop.thisRepN,TrialLoop.thisTrialN,TrialLoop.thisN,TrialLoop.thisIndex,TrialLoop.ran,DiscriminationInstructions_Post.started,DiscriminationInstructions_Post.stopped,key_resp_2.keys,key_resp_2.rt,key_resp_2.duration,PostTest.response,PostTest.CI_lower,PostTest.CI_upper,PostTest.CI_width,CrashPosttest.started,CrashPosttest.stopped,PostTest.thisRepN,PostTest.thisTrialN,PostTest.thisN,PostTest.thisIndex,PostTest.ran,PostTest.intensity,PostTest.label,PostTest.nReps,PostTest.method,PostTest.autoLog,PostTest.seed,PostTest.varName,PostTest.startVal,PostTest.minVal,PostTest.maxVal,PostTest.startValSd,PostTest.pThreshold,PostTest.nTrials,PostTest.maxTrials,PostTest.stopInterval,PostTest.beta,PostTest.delta,PostTest.gamma,PostTest.grain,Thanks.started,Thanks.stopped
0.0004,9.5997,y,9.5745,,516600,001,2025-03-12_14h14.48.442,Utility_discrimination_2024_2cat,2024.2.4,MacIntel,59.88023952,,,,,,,,,,,,,,,,,,,,,,,,,,,,,,,,,,,,,,,,,,,,,,,,,,,,,,,,,,,,,,,,,,,,,,,,,,,,,,,,,,,,,,,,,,,,,,,,,,,,,,,,,,,,,,,,,,,,,,,,,,,,,,,,,,,
,,,,,516600,001,2025-03-12_14h14.48.442,Utility_discrimination_2024_2cat,2024.2.4,MacIntel,59.88023952,9.5999,9.6001,,,,,,,,,,,,,,,,,,,,,,,,,,,,,,,,,,,,,,,,,,,,,,,,,,,,,,,,,,,,,,,,,,,,,,,,,,,,,,,,,,,,,,,,,,,,,,,,,,,,,,,,,,,,,,,,,,,,,,,,,,,,,,,,,
,,,,,516600,001,2025-03-12_14h14.48.442,Utility_discrimination_2024_2cat,2024.2.4,MacIntel,59.88023952,,,9.6003,31.467,space,21.8429,,,,,,,,,,,,,,,,,,,,,,,,,,,,,,,,,,,,,,,,,,,,,,,,,,,,,,,,,,,,,,,,,,,,,,,,,,,,,,,,,,,,,,,,,,,,,,,,,,,,,,,,,,,,,,,,,,,,,,,,,,,,,
,,,,,516600,001,2025-03-12_14h14.48.442,Utility_discrimination_2024_2cat,2024.2.4,MacIntel,59.88023952,,,,,,,,0,"[0.5,0.5]","[1,0]",,"[0.6185239449756466,0.5]","[0.3814760550243534,0.5]",31.5023,34.7333,1,s,1,1.6985,,-0.447967632,0.547967632,0.995935263,34.7374,34.7376,0,0,0,0,1,0.118523945,0.118523945,shape_difference1,1,,TRUE,,intensity,0.1,4.94066E-324,1.79769E+308,0.3,0.82,20,400,0.25,1,0.01,0.5,0.1,,,,,,,,,,,,,,,,,,,,,,,,,,,,,,,,,,,,,,,,,,,,,,,,,,,,,,,,,,,,,,,,,,,,,,,,,,,,,,,,,
,,,,,516600,001,2025-03-12_14h14.48.442,Utility_discrimination_2024_2cat,2024.2.4,MacIntel,59.88023952,,,,,,,,4,"[0.5,0.5]","[0,1]",s,"[0.6185239449756466,0.5]","[0.3814760550243534,0.5]",34.7404,37.6662,1,s,1,1.4048,,-0.447967632,0.547967632,0.995935263,37.6689,37.669,0,1,1,1,1,0.118523945,0.118523945,shape_difference0,1,,TRUE,,intensity,0.1,4.94066E-324,1.79769E+308,0.3,0.82,20,400,0.25,1,0.01,0.5,0.1,,,,,,,,,,,,,,,,,,,,,,,,,,,,,,,,,,,,,,,,,,,,,,,,,,,,,,,,,,,,,,,,,,,,,,,,,,,,,,,,,
,,,,,516600,001,2025-03-12_14h14.48.442,Utility_discrimination_2024_2cat,2024.2.4,MacIntel,59.88023952,,,,,,,,3,"[0.5,0.5]","[0.383,0.924]",s,"[0.5,0.6185239449756466]","[0.5,0.3814760550243534]",37.6705,40.9991,1,s,1,1.7993,,-0.447967632,0.547967632,0.995935263,41.002,41.0021,0,2,2,2,1,0.118523945,0.118523945,shape_difference4,1,,TRUE,,intensity,0.1,4.94066E-324,1.79769E+308,0.3,0.82,20,400,0.25,1,0.01,0.5,0.1,,,,,,,,,,,,,,,,,,,,,,,,,,,,,,,,,,,,,,,,,,,,,,,,,,,,,,,,,,,,,,,,,,,,,,,,,,,,,,,,,
,,,,,516600,001,2025-03-12_14h14.48.442,Utility_discrimination_2024_2cat,2024.2.4,MacIntel,59.88023952,,,,,,,,2,"[0.5,0.5]","[0.707,0.707]",s,"[0.5453946709256726,0.6095161251574974]","[0.4546053290743273,0.3904838748425025]",41.0042,43.5005,1,d,1,0.9775,,-0.447967632,0.547967632,0.995935263,43.503,43.503,0,3,3,3,1,0.118523945,0.118523945,shape_difference3,1,,TRUE,,intensity,0.1,4.94066E-324,1.79769E+308,0.3,0.82,20,400,0.25,1,0.01,0.5,0.1,,,,,,,,,,,,,,,,,,,,,,,,,,,,,,,,,,,,,,,,,,,,,,,,,,,,,,,,,,,,,,,,,,,,,,,,,,,,,,,,,
,,,,,516600,001,2025-03-12_14h14.48.442,Utility_discrimination_2024_2cat,2024.2.4,MacIntel,59.88023952,,,,,,,,0,"[0.5,0.5]","[1,0]",d,"[0.5837964290977822,0.5837964290977822]","[0.4162035709022178,0.4162035709022178]",43.5042,45.7662,1,d,1,0.7424,,-0.474094002,0.500085323,0.974179326,45.7684,45.7684,0,4,4,4,1,0.118523945,0.118523945,shape_difference2,1,,TRUE,,intensity,0.1,4.94066E-324,1.79769E+308,0.3,0.82,20,400,0.25,1,0.01,0.5,0.1,,,,,,,,,,,,,,,,,,,,,,,,,,,,,,,,,,,,,,,,,,,,,,,,,,,,,,,,,,,,,,,,,,,,,,,,,,,,,,,,,
,,,,,516600,001,2025-03-12_14h14.48.442,Utility_discrimination_2024_2cat,2024.2.4,MacIntel,59.88023952,,,,,,,,4,"[0.5,0.5]","[0,1]",d,"[0.5776618410169618,0.5]","[0.42233815898303817,0.5]",45.7696,48.2661,1,d,1,0.9624,,-0.474094002,0.500085323,0.974179326,48.2688,48.2688,0,5,5,5,1,0.077661841,0.077661841,shape_difference0,1,,TRUE,,intensity,0.1,4.94066E-324,1.79769E+308,0.3,0.82,20,400,0.25,1,0.01,0.5,0.1,,,,,,,,,,,,,,,,,,,,,,,,,,,,,,,,,,,,,,,,,,,,,,,,,,,,,,,,,,,,,,,,,,,,,,,,,,,,,,,,,
,,,,,516600,001,2025-03-12_14h14.48.442,Utility_discrimination_2024_2cat,2024.2.4,MacIntel,59.88023952,,,,,,,,1,"[0.5,0.5]","[0.924,0.383]",d,"[0.5,0.5776618410169618]","[0.5,0.42233815898303817]",48.2698,50.6162,1,s,1,0.8162,,-0.474094002,0.500085323,0.974179326,50.6201,50.6201,0,6,6,6,1,0.077661841,0.077661841,shape_difference4,1,,TRUE,,intensity,0.1,4.94066E-324,1.79769E+308,0.3,0.82,20,400,0.25,1,0.01,0.5,0.1,,,,,,,,,,,,,,,,,,,,,,,,,,,,,,,,,,,,,,,,,,,,,,,,,,,,,,,,,,,,,,,,,,,,,,,,,,,,,,,,,
,,,,,516600,001,2025-03-12_14h14.48.442,Utility_discrimination_2024_2cat,2024.2.4,MacIntel,59.88023952,,,,,,,,3,"[0.5,0.5]","[0.383,0.924]",s,"[0.5717595410996728,0.5297444851094963]","[0.42824045890032725,0.4702555148905036]",50.6213,52.8993,1,s,1,0.7614,,-0.474094002,0.500085323,0.974179326,52.9024,52.9024,0,7,7,7,1,0.077661841,0.077661841,shape_difference1,1,,TRUE,,intensity,0.1,4.94066E-324,1.79769E+308,0.3,0.82,20,400,0.25,1,0.01,0.5,0.1,,,,,,,,,,,,,,,,,,,,,,,,,,,,,,,,,,,,,,,,,,,,,,,,,,,,,,,,,,,,,,,,,,,,,,,,,,,,,,,,,
,,,,,516600,001,2025-03-12_14h14.48.442,Utility_discrimination_2024_2cat,2024.2.4,MacIntel,59.88023952,,,,,,,,2,"[0.5,0.5]","[0.707,0.707]",s,"[0.5297444851094963,0.5717595410996728]","[0.4702555148905036,0.42824045890032725]",52.9034,55.2828,1,d,1,0.8508,,-0.474094002,0.500085323,0.974179326,55.2856,55.2856,0,8,8,8,1,0.077661841,0.077661841,shape_difference3,1,,TRUE,,intensity,0.1,4.94066E-324,1.79769E+308,0.3,0.82,20,400,0.25,1,0.01,0.5,0.1,,,,,,,,,,,,,,,,,,,,,,,,,,,,,,,,,,,,,,,,,,,,,,,,,,,,,,,,,,,,,,,,,,,,,,,,,,,,,,,,,
,,,,,516600,001,2025-03-12_14h14.48.442,Utility_discrimination_2024_2cat,2024.2.4,MacIntel,59.88023952,,,,,,,,0,"[0.5,0.5]","[1,0]",d,"[0.554906921598992,0.554906921598992]","[0.445093078401008,0.445093078401008]",55.2866,57.566,1,d,1,0.7554,,-0.494469577,0.465077661,0.959547238,57.5692,57.5692,0,9,9,9,1,0.077661841,0.077661841,shape_difference2,1,,TRUE,,intensity,0.1,4.94066E-324,1.79769E+308,0.3,0.82,20,400,0.25,1,0.01,0.5,0.1,,,,,,,,,,,,,,,,,,,,,,,,,,,,,,,,,,,,,,,,,,,,,,,,,,,,,,,,,,,,,,,,,,,,,,,,,,,,,,,,,
,,,,,516600,001,2025-03-12_14h14.48.442,Utility_discrimination_2024_2cat,2024.2.4,MacIntel,59.88023952,,,,,,,,1,"[0.5,0.5]","[0.924,0.383]",d,"[0.5396107526214748,0.5]","[0.4603892473785251,0.5]",57.57,60.8658,1,d,1,1.7696,,-0.494469577,0.465077661,0.959547238,60.8689,60.8689,0,10,10,10,1,0.039610753,0.039610753,shape_difference0,1,,TRUE,,intensity,0.1,4.94066E-324,1.79769E+308,0.3,0.82,20,400,0.25,1,0.01,0.5,0.1,,,,,,,,,,,,,,,,,,,,,,,,,,,,,,,,,,,,,,,,,,,,,,,,,,,,,,,,,,,,,,,,,,,,,,,,,,,,,,,,,
,,,,,516600,001,2025-03-12_14h14.48.442,Utility_discrimination_2024_2cat,2024.2.4,MacIntel,59.88023952,,,,,,,,2,"[0.5,0.5]","[0.707,0.707]",d,"[0.5366003354222428,0.5151709182540248]","[0.4633996645777572,0.4848290817459751]",60.8696,63.1325,0,s,0,0.7436,,-0.494469577,0.465077661,0.959547238,63.1365,63.1365,0,11,11,11,1,0.039610753,0.039610753,shape_difference1,1,,TRUE,,intensity,0.1,4.94066E-324,1.79769E+308,0.3,0.82,20,400,0.25,1,0.01,0.5,0.1,,,,,,,,,,,,,,,,,,,,,,,,,,,,,,,,,,,,,,,,,,,,,,,,,,,,,,,,,,,,,,,,,,,,,,,,,,,,,,,,,
,,,,,516600,001,2025-03-12_14h14.48.442,Utility_discrimination_2024_2cat,2024.2.4,MacIntel,59.88023952,,,,,,,,4,"[0.5,0.5]","[0,1]",d,"[0.5280048021033827,0.5280048021033827]","[0.47199519789661726,0.47199519789661726]",63.1374,66.266,0,s,0,1.6018,,-0.494469577,0.465077661,0.959547238,66.2684,66.2684,0,12,12,12,1,0.039610753,0.039610753,shape_difference2,1,,TRUE,,intensity,0.1,4.94066E-324,1.79769E+308,0.3,0.82,20,400,0.25,1,0.01,0.5,0.1,,,,,,,,,,,,,,,,,,,,,,,,,,,,,,,,,,,,,,,,,,,,,,,,,,,,,,,,,,,,,,,,,,,,,,,,,,,,,,,,,
,,,,,516600,001,2025-03-12_14h14.48.442,Utility_discrimination_2024_2cat,2024.2.4,MacIntel,59.88023952,,,,,,,,3,"[0.5,0.5]","[0.383,0.924]",d,"[0.5,0.5396107526214748]","[0.5,0.4603892473785251]",66.2692,68.4993,1,s,1,0.7001,,-0.494469577,0.465077661,0.959547238,68.5026,68.5026,0,13,13,13,1,0.039610753,0.039610753,shape_difference4,1,,TRUE,,intensity,0.1,4.94066E-324,1.79769E+308,0.3,0.82,20,400,0.25,1,0.01,0.5,0.1,,,,,,,,,,,,,,,,,,,,,,,,,,,,,,,,,,,,,,,,,,,,,,,,,,,,,,,,,,,,,,,,,,,,,,,,,,,,,,,,,
,,,,,516600,001,2025-03-12_14h14.48.442,Utility_discrimination_2024_2cat,2024.2.4,MacIntel,59.88023952,,,,,,,,4,"[0.5,0.5]","[0,1]",s,"[0.5151709182540248,0.5366003354222428]","[0.4848290817459751,0.4633996645777572]",68.5035,70.7494,0,s,0,0.7165,,-0.524534899,0.421957495,0.946492394,70.7525,70.7525,0,14,14,14,1,0.039610753,0.039610753,shape_difference3,1,,TRUE,,intensity,0.1,4.94066E-324,1.79769E+308,0.3,0.82,20,400,0.25,1,0.01,0.5,0.1,,,,,,,,,,,,,,,,,,,,,,,,,,,,,,,,,,,,,,,,,,,,,,,,,,,,,,,,,,,,,,,,,,,,,,,,,,,,,,,,,
,,,,,516600,001,2025-03-12_14h14.48.442,Utility_discrimination_2024_2cat,2024.2.4,MacIntel,59.88023952,,,,,,,,3,"[0.5,0.5]","[0.383,0.924]",d,"[0.5,0.49949415756311455]","[0.5,0.5005058424368855]",70.7535,73.1659,1,s,1,0.8855,,-0.281923373,0.569663629,0.851587002,73.1692,73.1692,0,15,15,15,1,-0.000505842,-0.000505842,shape_difference4,1,,TRUE,,intensity,0.1,4.94066E-324,1.79769E+308,0.3,0.82,20,400,0.25,1,0.01,0.5,0.1,,,,,,,,,,,,,,,,,,,,,,,,,,,,,,,,,,,,,,,,,,,,,,,,,,,,,,,,,,,,,,,,,,,,,,,,,,,,,,,,,
,,,,,516600,001,2025-03-12_14h14.48.442,Utility_discrimination_2024_2cat,2024.2.4,MacIntel,59.88023952,,,,,,,,0,"[0.5,0.5]","[1,0]",s,"[0.56899246440646,0.6664465720928696]","[0.43100753559354,0.33355342790713044]",73.1704,75.3993,1,s,1,0.6995,,-0.524534899,0.421957495,0.946492394,75.403,75.403,0,16,16,16,1,0.180136983,0.180136983,shape_difference3,1,,TRUE,,intensity,0.1,4.94066E-324,1.79769E+308,0.3,0.82,20,400,0.25,1,0.01,0.5,0.1,,,,,,,,,,,,,,,,,,,,,,,,,,,,,,,,,,,,,,,,,,,,,,,,,,,,,,,,,,,,,,,,,,,,,,,,,,,,,,,,,
,,,,,516600,001,2025-03-12_14h14.48.442,Utility_discrimination_2024_2cat,2024.2.4,MacIntel,59.88023952,,,,,,,,2,"[0.5,0.5]","[0.707,0.707]",s,"[0.49949415756311455,0.5]","[0.5005058424368855,0.5]",75.4043,77.8993,0,s,0,0.971,,-0.281923373,0.569663629,0.851587002,77.9018,77.9018,0,17,17,17,1,-0.000505842,-0.000505842,shape_difference0,1,,TRUE,,intensity,0.1,4.94066E-324,1.79769E+308,0.3,0.82,20,400,0.25,1,0.01,0.5,0.1,,,,,,,,,,,,,,,,,,,,,,,,,,,,,,,,,,,,,,,,,,,,,,,,,,,,,,,,,,,,,,,,,,,,,,,,,,,,,,,,,
,,,,,516600,001,2025-03-12_14h14.48.442,Utility_discrimination_2024_2cat,2024.2.4,MacIntel,59.88023952,,,,,,,,1,"[0.5,0.5]","[0.924,0.383]",d,"[0.627356846828635,0.627356846828635]","[0.372643153171365,0.372643153171365]",77.9041,80.0994,1,s,1,0.6672,,-0.281923373,0.569663629,0.851587002,80.1028,80.1029,0,18,18,18,1,0.180136983,0.180136983,shape_difference2,1,,TRUE,,intensity,0.1,4.94066E-324,1.79769E+308,0.3,0.82,20,400,0.25,1,0.01,0.5,0.1,,,,,,,,,,,,,,,,,,,,,,,,,,,,,,,,,,,,,,,,,,,,,,,,,,,,,,,,,,,,,,,,,,,,,,,,,,,,,,,,,
,,,,,516600,001,2025-03-12_14h14.48.442,Utility_discrimination_2024_2cat,2024.2.4,MacIntel,59.88023952,,,,,,,,2,"[0.5,0.5]","[0.707,0.707]",s,"[0.6664465720928696,0.56899246440646]","[0.33355342790713044,0.43100753559354]",80.104,82.4482,1,d,1,0.8183,,-0.296519843,0.533845492,0.830365335,82.4505,82.4505,0,19,19,19,1,0.180136983,0.180136983,shape_difference1,1,,TRUE,,intensity,0.1,4.94066E-324,1.79769E+308,0.3,0.82,20,400,0.25,1,0.01,0.5,0.1,,,,,,,,,,,,,,,,,,,,,,,,,,,,,,,,,,,,,,,,,,,,,,,,,,,,,,,,,,,,,,,,,,,,,,,,,,,,,,,,,
,,,,,516600,001,2025-03-12_14h14.48.442,Utility_discrimination_2024_2cat,2024.2.4,MacIntel,59.88023952,,,,,,,,4,"[0.5,0.5]","[0,1]",d,"[0.6061483801432651,0.6061483801432651]","[0.3938516198567349,0.3938516198567349]",82.4523,84.6493,1,d,1,0.6681,,-0.55117234,0.380931536,0.932103876,84.6525,84.6526,0,20,20,20,1,0.150139152,0.150139152,shape_difference2,1,,TRUE,,intensity,0.1,4.94066E-324,1.79769E+308,0.3,0.82,20,400,0.25,1,0.01,0.5,0.1,,,,,,,,,,,,,,,,,,,,,,,,,,,,,,,,,,,,,,,,,,,,,,,,,,,,,,,,,,,,,,,,,,,,,,,,,,,,,,,,,
,,,,,516600,001,2025-03-12_14h14.48.442,Utility_discrimination_2024_2cat,2024.2.4,MacIntel,59.88023952,,,,,,,,0,"[0.5,0.5]","[1,0]",d,"[0.5,0.4634626966130838]","[0.5,0.5365373033869162]",84.6536,86.9993,0,s,0,0.8271,,-0.301350384,0.536331928,0.837682312,87.0017,87.0017,0,21,21,21,1,-0.036537303,-0.036537303,shape_difference4,1,,TRUE,,intensity,0.1,4.94066E-324,1.79769E+308,0.3,0.82,20,400,0.25,1,0.01,0.5,0.1,,,,,,,,,,,,,,,,,,,,,,,,,,,,,,,,,,,,,,,,,,,,,,,,,,,,,,,,,,,,,,,,,,,,,,,,,,,,,,,,,
,,,,,516600,001,2025-03-12_14h14.48.442,Utility_discrimination_2024_2cat,2024.2.4,MacIntel,59.88023952,,,,,,,,3,"[0.5,0.5]","[0.383,0.924]",d,"[0.6483243821068427,0.5]","[0.35167561789315727,0.5]",87.0034,89.216,1,s,1,0.6835,,-0.296519843,0.533845492,0.830365335,89.2194,89.2194,0,22,22,22,1,0.148324382,0.148324382,shape_difference0,1,,TRUE,,intensity,0.1,4.94066E-324,1.79769E+308,0.3,0.82,20,400,0.25,1,0.01,0.5,0.1,,,,,,,,,,,,,,,,,,,,,,,,,,,,,,,,,,,,,,,,,,,,,,,,,,,,,,,,,,,,,,,,,,,,,,,,,,,,,,,,,
,,,,,516600,001,2025-03-12_14h14.48.442,Utility_discrimination_2024_2cat,2024.2.4,MacIntel,59.88023952,,,,,,,,1,"[0.5,0.5]","[0.924,0.383]",s,"[0.5575032950422497,0.6387285760288217]","[0.4424967049577503,0.36127142397117823]",89.2204,91.4658,1,d,1,0.7163,,-0.296519843,0.533845492,0.830365335,91.468,91.468,0,23,23,23,1,0.150139152,0.150139152,shape_difference3,1,,TRUE,,intensity,0.1,4.94066E-324,1.79769E+308,0.3,0.82,20,400,0.25,1,0.01,0.5,0.1,,,,,,,,,,,,,,,,,,,,,,,,,,,,,,,,,,,,,,,,,,,,,,,,,,,,,,,,,,,,,,,,,,,,,,,,,,,,,,,,,
,,,,,516600,001,2025-03-12_14h14.48.442,Utility_discrimination_2024_2cat,2024.2.4,MacIntel,59.88023952,,,,,,,,2,"[0.5,0.5]","[0.707,0.707]",d,"[0.6387285760288217,0.5575032950422497]","[0.36127142397117823,0.4424967049577503]",91.4689,93.7993,1,d,1,0.8019,,-0.317095604,0.494191946,0.811287551,93.8027,93.8027,0,24,24,24,1,0.150139152,0.150139152,shape_difference1,1,,TRUE,,intensity,0.1,4.94066E-324,1.79769E+308,0.3,0.82,20,400,0.25,1,0.01,0.5,0.1,,,,,,,,,,,,,,,,,,,,,,,,,,,,,,,,,,,,,,,,,,,,,,,,,,,,,,,,,,,,,,,,,,,,,,,,,,,,,,,,,
,,,,,516600,001,2025-03-12_14h14.48.442,Utility_discrimination_2024_2cat,2024.2.4,MacIntel,59.88023952,,,,,,,,1,"[0.5,0.5]","[0.924,0.383]",d,"[0.5854574367451483,0.5854574367451483]","[0.4145425632548517,0.4145425632548517]",93.8039,96.0826,1,s,1,0.7606,,-0.317095604,0.494191946,0.811287551,96.0851,96.0851,0,25,25,25,1,0.120873319,0.120873319,shape_difference2,1,,TRUE,,intensity,0.1,4.94066E-324,1.79769E+308,0.3,0.82,20,400,0.25,1,0.01,0.5,0.1,,,,,,,,,,,,,,,,,,,,,,,,,,,,,,,,,,,,,,,,,,,,,,,,,,,,,,,,,,,,,,,,,,,,,,,,,,,,,,,,,
,,,,,516600,001,2025-03-12_14h14.48.442,Utility_discrimination_2024_2cat,2024.2.4,MacIntel,59.88023952,,,,,,,,0,"[0.5,0.5]","[1,0]",s,"[0.6116869470332631,0.5462944812919261]","[0.3883130529667369,0.45370551870807385]",96.0862,98.9158,1,d,1,1.2997,,-0.328334048,0.495743451,0.824077498,98.9191,98.9191,0,26,26,26,1,0.120873319,0.120873319,shape_difference1,1,,TRUE,,intensity,0.1,4.94066E-324,1.79769E+308,0.3,0.82,20,400,0.25,1,0.01,0.5,0.1,,,,,,,,,,,,,,,,,,,,,,,,,,,,,,,,,,,,,,,,,,,,,,,,,,,,,,,,,,,,,,,,,,,,,,,,,,,,,,,,,
,,,,,516600,001,2025-03-12_14h14.48.442,Utility_discrimination_2024_2cat,2024.2.4,MacIntel,59.88023952,,,,,,,,4,"[0.5,0.5]","[0,1]",d,"[0.6164923149696548,0.5]","[0.38350768503034516,0.5]",98.9202,101.133,1,d,1,0.6958,,-0.331483843,0.496774529,0.828258372,101.1355,101.1356,0,27,27,27,1,0.116492315,0.116492315,shape_difference0,1,,TRUE,,intensity,0.1,4.94066E-324,1.79769E+308,0.3,0.82,20,400,0.25,1,0.01,0.5,0.1,,,,,,,,,,,,,,,,,,,,,,,,,,,,,,,,,,,,,,,,,,,,,,,,,,,,,,,,,,,,,,,,,,,,,,,,,,,,,,,,,
,,,,,516600,001,2025-03-12_14h14.48.442,Utility_discrimination_2024_2cat,2024.2.4,MacIntel,59.88023952,,,,,,,,3,"[0.5,0.5]","[0.383,0.924]",d,"[0.5,0.6158006938957499]","[0.5,0.3841993061042501]",101.1373,103.2491,1,s,1,0.5935,,-0.317095604,0.494191946,0.811287551,103.2524,103.2524,0,28,28,28,1,0.115800694,0.115800694,shape_difference4,1,,TRUE,,intensity,0.1,4.94066E-324,1.79769E+308,0.3,0.82,20,400,0.25,1,0.01,0.5,0.1,,,,,,,,,,,,,,,,,,,,,,,,,,,,,,,,,,,,,,,,,,,,,,,,,,,,,,,,,,,,,,,,,,,,,,,,,,,,,,,,,
,,,,,516600,001,2025-03-12_14h14.48.442,Utility_discrimination_2024_2cat,2024.2.4,MacIntel,59.88023952,,,,,,,,2,"[0.5,0.5]","[0.707,0.707]",s,"[0.5462944812919261,0.6116869470332631]","[0.45370551870807385,0.3883130529667369]",103.2534,105.4326,1,s,1,0.6506,,-0.340059859,0.465376222,0.805436081,105.4357,105.4357,0,29,29,29,1,0.120873319,0.120873319,shape_difference3,1,,TRUE,,intensity,0.1,4.94066E-324,1.79769E+308,0.3,0.82,20,400,0.25,1,0.01,0.5,0.1,,,,,,,,,,,,,,,,,,,,,,,,,,,,,,,,,,,,,,,,,,,,,,,,,,,,,,,,,,,,,,,,,,,,,,,,,,,,,,,,,
,,,,,516600,001,2025-03-12_14h14.48.442,Utility_discrimination_2024_2cat,2024.2.4,MacIntel,59.88023952,,,,,,,,0,"[0.5,0.5]","[1,0]",s,"[0.5642425746199065,0.5642425746199065]","[0.43575742538009354,0.43575742538009354]",105.4368,107.8326,1,s,1,0.8689,,-0.349653471,0.46629383,0.815947301,107.8354,107.8355,0,30,30,30,1,0.090866442,0.090866442,shape_difference2,1,,TRUE,,intensity,0.1,4.94066E-324,1.79769E+308,0.3,0.82,20,400,0.25,1,0.01,0.5,0.1,,,,,,,,,,,,,,,,,,,,,,,,,,,,,,,,,,,,,,,,,,,,,,,,,,,,,,,,,,,,,,,,,,,,,,,,,,,,,,,,,
,,,,,516600,001,2025-03-12_14h14.48.442,Utility_discrimination_2024_2cat,2024.2.4,MacIntel,59.88023952,,,,,,,,1,"[0.5,0.5]","[0.924,0.383]",s,"[0.5861091543077663,0.5]","[0.4138908456922337,0.5]",107.8366,110.0326,1,d,1,0.6679,,-0.340059859,0.465376222,0.805436081,110.0354,110.0354,0,31,31,31,1,0.086109154,0.086109154,shape_difference0,1,,TRUE,,intensity,0.1,4.94066E-324,1.79769E+308,0.3,0.82,20,400,0.25,1,0.01,0.5,0.1,,,,,,,,,,,,,,,,,,,,,,,,,,,,,,,,,,,,,,,,,,,,,,,,,,,,,,,,,,,,,,,,,,,,,,,,,,,,,,,,,
,,,,,516600,001,2025-03-12_14h14.48.442,Utility_discrimination_2024_2cat,2024.2.4,MacIntel,59.88023952,,,,,,,,3,"[0.5,0.5]","[0.383,0.924]",d,"[0.5839605925725511,0.5348018473542068]","[0.41603940742744894,0.46519815264579323]",110.0375,112.299,1,d,1,0.7337,,-0.340059859,0.465376222,0.805436081,112.301,112.301,0,32,32,32,1,0.090866442,0.090866442,shape_difference1,1,,TRUE,,intensity,0.1,4.94066E-324,1.79769E+308,0.3,0.82,20,400,0.25,1,0.01,0.5,0.1,,,,,,,,,,,,,,,,,,,,,,,,,,,,,,,,,,,,,,,,,,,,,,,,,,,,,,,,,,,,,,,,,,,,,,,,,,,,,,,,,
,,,,,516600,001,2025-03-12_14h14.48.442,Utility_discrimination_2024_2cat,2024.2.4,MacIntel,59.88023952,,,,,,,,4,"[0.5,0.5]","[0,1]",d,"[0.5348018473542068,0.5839605925725511]","[0.46519815264579323,0.41603940742744894]",112.3018,114.7325,1,d,1,0.9011,,-0.352403152,0.467242968,0.81964612,114.7351,114.7352,0,33,33,33,1,0.090866442,0.090866442,shape_difference3,1,,TRUE,,intensity,0.1,4.94066E-324,1.79769E+308,0.3,0.82,20,400,0.25,1,0.01,0.5,0.1,,,,,,,,,,,,,,,,,,,,,,,,,,,,,,,,,,,,,,,,,,,,,,,,,,,,,,,,,,,,,,,,,,,,,,,,,,,,,,,,,
,,,,,516600,001,2025-03-12_14h14.48.442,Utility_discrimination_2024_2cat,2024.2.4,MacIntel,59.88023952,,,,,,,,1,"[0.5,0.5]","[0.924,0.383]",d,"[0.5,0.585202460567929]","[0.5,0.414797539432071]",114.7361,116.8825,1,s,1,0.6162,,-0.358444828,0.430527186,0.788972014,116.8859,116.8859,0,34,34,34,1,0.085202461,0.085202461,shape_difference4,1,,TRUE,,intensity,0.1,4.94066E-324,1.79769E+308,0.3,0.82,20,400,0.25,1,0.01,0.5,0.1,,,,,,,,,,,,,,,,,,,,,,,,,,,,,,,,,,,,,,,,,,,,,,,,,,,,,,,,,,,,,,,,,,,,,,,,,,,,,,,,,
,,,,,516600,001,2025-03-12_14h14.48.442,Utility_discrimination_2024_2cat,2024.2.4,MacIntel,59.88023952,,,,,,,,0,"[0.5,0.5]","[1,0]",s,"[0.5594109319934972,0.5246259599063955]","[0.44058906800650277,0.4753740400936045]",116.8871,118.9991,1,s,1,0.5827,,-0.36675043,0.430632016,0.797382446,119.0014,119.0015,0,35,35,35,1,0.064297545,0.064297545,shape_difference1,1,,TRUE,,intensity,0.1,4.94066E-324,1.79769E+308,0.3,0.82,20,400,0.25,1,0.01,0.5,0.1,,,,,,,,,,,,,,,,,,,,,,,,,,,,,,,,,,,,,,,,,,,,,,,,,,,,,,,,,,,,,,,,,,,,,,,,,,,,,,,,,
,,,,,516600,001,2025-03-12_14h14.48.442,Utility_discrimination_2024_2cat,2024.2.4,MacIntel,59.88023952,,,,,,,,2,"[0.5,0.5]","[0.707,0.707]",s,"[0.5588402849896184,0.5]","[0.4411597150103816,0.5]",119.0025,121.2489,1,d,1,0.7188,,-0.358444828,0.430527186,0.788972014,121.2518,121.2518,0,36,36,36,1,0.058840285,0.058840285,shape_difference0,1,,TRUE,,intensity,0.1,4.94066E-324,1.79769E+308,0.3,0.82,20,400,0.25,1,0.01,0.5,0.1,,,,,,,,,,,,,,,,,,,,,,,,,,,,,,,,,,,,,,,,,,,,,,,,,,,,,,,,,,,,,,,,,,,,,,,,,,,,,,,,,
,,,,,516600,001,2025-03-12_14h14.48.442,Utility_discrimination_2024_2cat,2024.2.4,MacIntel,59.88023952,,,,,,,,3,"[0.5,0.5]","[0.383,0.924]",d,"[0.545458364631388,0.545458364631388]","[0.454541635368612,0.454541635368612]",121.2523,123.6492,1,d,1,0.8667,,-0.358444828,0.430527186,0.788972014,123.6517,123.6517,0,37,37,37,1,0.064297545,0.064297545,shape_difference2,1,,TRUE,,intensity,0.1,4.94066E-324,1.79769E+308,0.3,0.82,20,400,0.25,1,0.01,0.5,0.1,,,,,,,,,,,,,,,,,,,,,,,,,,,,,,,,,,,,,,,,,,,,,,,,,,,,,,,,,,,,,,,,,,,,,,,,,,,,,,,,,
,,,,,516600,001,2025-03-12_14h14.48.442,Utility_discrimination_2024_2cat,2024.2.4,MacIntel,59.88023952,,,,,,,,4,"[0.5,0.5]","[0,1]",d,"[0.5246259599063955,0.5594109319934972]","[0.4753740400936045,0.44058906800650277]",123.6528,126.5326,0,d,0,1.3512,,-0.36918415,0.431483779,0.800667928,126.536,126.5361,0,38,38,38,1,0.064297545,0.064297545,shape_difference3,1,,TRUE,,intensity,0.1,4.94066E-324,1.79769E+308,0.3,0.82,20,400,0.25,1,0.01,0.5,0.1,,,,,,,,,,,,,,,,,,,,,,,,,,,,,,,,,,,,,,,,,,,,,,,,,,,,,,,,,,,,,,,,,,,,,,,,,,,,,,,,,
,,,,,516600,001,2025-03-12_14h14.48.442,Utility_discrimination_2024_2cat,2024.2.4,MacIntel,59.88023952,,,,,,,,3,"[0.5,0.5]","[0.383,0.924]",s,"[0.5,0.5576648252657777]","[0.5,0.4423351747342224]",126.5371,129.0819,0,s,0,1.0271,,-0.206821616,0.532082507,0.738904123,129.0845,129.0845,0,39,39,39,1,0.057664825,0.057664825,shape_difference4,1,,TRUE,,intensity,0.1,4.94066E-324,1.79769E+308,0.3,0.82,20,400,0.25,1,0.01,0.5,0.1,,,,,,,,,,,,,,,,,,,,,,,,,,,,,,,,,,,,,,,,,,,,,,,,,,,,,,,,,,,,,,,,,,,,,,,,,,,,,,,,,
,,,,,516600,001,2025-03-12_14h14.48.442,Utility_discrimination_2024_2cat,2024.2.4,MacIntel,59.88023952,,,,,,,,1,"[0.5,0.5]","[0.924,0.383]",d,"[0.568969563868047,0.6663913237965415]","[0.431030436131953,0.3336086762034585]",129.0862,131.2824,1,d,1,0.6676,,-0.373377952,0.39344459,0.766822542,131.2856,131.2856,0,40,40,40,1,0.18007719,0.18007719,shape_difference3,1,,TRUE,,intensity,0.1,4.94066E-324,1.79769E+308,0.3,0.82,20,400,0.25,1,0.01,0.5,0.1,,,,,,,,,,,,,,,,,,,,,,,,,,,,,,,,,,,,,,,,,,,,,,,,,,,,,,,,,,,,,,,,,,,,,,,,,,,,,,,,,
,,,,,516600,001,2025-03-12_14h14.48.442,Utility_discrimination_2024_2cat,2024.2.4,MacIntel,59.88023952,,,,,,,,2,"[0.5,0.5]","[0.707,0.707]",d,"[0.5357379000783891,0.5148134369372543]","[0.46426209992161094,0.48518656306274566]",131.2866,133.6315,1,d,1,0.8171,,-0.373377952,0.39344459,0.766822542,133.634,133.634,0,41,41,41,1,0.038677381,0.038677381,shape_difference1,1,,TRUE,,intensity,0.1,4.94066E-324,1.79769E+308,0.3,0.82,20,400,0.25,1,0.01,0.5,0.1,,,,,,,,,,,,,,,,,,,,,,,,,,,,,,,,,,,,,,,,,,,,,,,,,,,,,,,,,,,,,,,,,,,,,,,,,,,,,,,,,
,,,,,516600,001,2025-03-12_14h14.48.442,Utility_discrimination_2024_2cat,2024.2.4,MacIntel,59.88023952,,,,,,,,0,"[0.5,0.5]","[1,0]",d,"[0.5273449083933128,0.5273449083933128]","[0.4726550916066871,0.4726550916066871]",133.6351,135.8825,1,d,1,0.721,,-0.380668368,0.392864662,0.77353303,135.8858,135.8858,0,42,42,42,1,0.038677381,0.038677381,shape_difference2,1,,TRUE,,intensity,0.1,4.94066E-324,1.79769E+308,0.3,0.82,20,400,0.25,1,0.01,0.5,0.1,,,,,,,,,,,,,,,,,,,,,,,,,,,,,,,,,,,,,,,,,,,,,,,,,,,,,,,,,,,,,,,,,,,,,,,,,,,,,,,,,
,,,,,516600,001,2025-03-12_14h14.48.442,Utility_discrimination_2024_2cat,2024.2.4,MacIntel,59.88023952,,,,,,,,4,"[0.5,0.5]","[0,1]",d,"[0.5324550970298148,0.5]","[0.4675449029701852,0.5]",135.8868,138.2656,1,d,1,0.8606,,-0.216911154,0.537734974,0.754646128,138.2679,138.2679,0,43,43,43,1,0.032455097,0.032455097,shape_difference0,1,,TRUE,,intensity,0.1,4.94066E-324,1.79769E+308,0.3,0.82,20,400,0.25,1,0.01,0.5,0.1,,,,,,,,,,,,,,,,,,,,,,,,,,,,,,,,,,,,,,,,,,,,,,,,,,,,,,,,,,,,,,,,,,,,,,,,,,,,,,,,,
,,,,,516600,001,2025-03-12_14h14.48.442,Utility_discrimination_2024_2cat,2024.2.4,MacIntel,59.88023952,,,,,,,,2,"[0.5,0.5]","[0.707,0.707]",d,"[0.5,0.6788145667434407]","[0.5,0.32118543325655935]",138.269,140.4994,1,d,1,0.7127,,-0.387740747,0.366939776,0.754680524,140.5029,140.5029,0,44,44,44,1,0.178814567,0.178814567,shape_difference4,1,,TRUE,,intensity,0.1,4.94066E-324,1.79769E+308,0.3,0.82,20,400,0.25,1,0.01,0.5,0.1,,,,,,,,,,,,,,,,,,,,,,,,,,,,,,,,,,,,,,,,,,,,,,,,,,,,,,,,,,,,,,,,,,,,,,,,,,,,,,,,,
,,,,,516600,001,2025-03-12_14h14.48.442,Utility_discrimination_2024_2cat,2024.2.4,MacIntel,59.88023952,,,,,,,,0,"[0.5,0.5]","[1,0]",d,"[0.508347230312363,0.508347230312363]","[0.491652769687637,0.491652769687637]",140.504,142.9649,0,d,0,0.944,,-0.394153069,0.365342259,0.759495327,142.9671,142.9671,0,45,45,45,1,0.011806549,0.011806549,shape_difference2,1,,TRUE,,intensity,0.1,4.94066E-324,1.79769E+308,0.3,0.82,20,400,0.25,1,0.01,0.5,0.1,,,,,,,,,,,,,,,,,,,,,,,,,,,,,,,,,,,,,,,,,,,,,,,,,,,,,,,,,,,,,,,,,,,,,,,,,,,,,,,,,
,,,,,516600,001,2025-03-12_14h14.48.442,Utility_discrimination_2024_2cat,2024.2.4,MacIntel,59.88023952,,,,,,,,3,"[0.5,0.5]","[0.383,0.924]",s,"[0.5046032189349858,0.5]","[0.4953967810650141,0.5]",142.9689,145.6821,1,d,1,1.1937,,-0.226817877,0.496194099,0.723011976,145.6846,145.6846,0,46,46,46,1,0.004603219,0.004603219,shape_difference0,1,,TRUE,,intensity,0.1,4.94066E-324,1.79769E+308,0.3,0.82,20,400,0.25,1,0.01,0.5,0.1,,,,,,,,,,,,,,,,,,,,,,,,,,,,,,,,,,,,,,,,,,,,,,,,,,,,,,,,,,,,,,,,,,,,,,,,,,,,,,,,,
,,,,,516600,001,2025-03-12_14h14.48.442,Utility_discrimination_2024_2cat,2024.2.4,MacIntel,59.88023952,,,,,,,,1,"[0.5,0.5]","[0.924,0.383]",d,"[0.5601025711540797,0.6449994144813829]","[0.4398974288459203,0.35500058551861713]",145.6856,147.7833,0,s,0,0.5796,,-0.387740747,0.366939776,0.754680524,147.7856,147.7857,0,47,47,47,1,0.156925773,0.156925773,shape_difference3,1,,TRUE,,intensity,0.1,4.94066E-324,1.79769E+308,0.3,0.82,20,400,0.25,1,0.01,0.5,0.1,,,,,,,,,,,,,,,,,,,,,,,,,,,,,,,,,,,,,,,,,,,,,,,,,,,,,,,,,,,,,,,,,,,,,,,,,,,,,,,,,
,,,,,516600,001,2025-03-12_14h14.48.442,Utility_discrimination_2024_2cat,2024.2.4,MacIntel,59.88023952,,,,,,,,4,"[0.5,0.5]","[0,1]",d,"[0.5109092514973457,0.5045219083587482]","[0.4890907485026543,0.49547809164125173]",147.7868,151.6656,0,s,0,2.3605,,-0.235700328,0.499254058,0.734954387,151.6689,151.6689,0,48,48,48,1,0.011806549,0.011806549,shape_difference1,1,,TRUE,,intensity,0.1,4.94066E-324,1.79769E+308,0.3,0.82,20,400,0.25,1,0.01,0.5,0.1,,,,,,,,,,,,,,,,,,,,,,,,,,,,,,,,,,,,,,,,,,,,,,,,,,,,,,,,,,,,,,,,,,,,,,,,,,,,,,,,,
,,,,,516600,001,2025-03-12_14h14.48.442,Utility_discrimination_2024_2cat,2024.2.4,MacIntel,59.88023952,,,,,,,,0,"[0.5,0.5]","[1,0]",d,"[0.5,0.654843658520565]","[0.5,0.34515634147943497]",151.6703,154.7991,1,d,1,1.6003,,-0.412051478,0.332347796,0.744399274,154.8032,154.8032,0,49,49,49,1,0.154843659,0.154843659,shape_difference4,1,,TRUE,,intensity,0.1,4.94066E-324,1.79769E+308,0.3,0.82,20,400,0.25,1,0.01,0.5,0.1,,,,,,,,,,,,,,,,,,,,,,,,,,,,,,,,,,,,,,,,,,,,,,,,,,,,,,,,,,,,,,,,,,,,,,,,,,,,,,,,,
,,,,,516600,001,2025-03-12_14h14.48.442,Utility_discrimination_2024_2cat,2024.2.4,MacIntel,59.88023952,,,,,,,,4,"[0.5,0.5]","[0,1]",d,"[0.47992825604454337,0.5]","[0.5200717439554566,0.5]",154.8044,157.5815,1,d,1,1.2599,,-0.250998182,0.475096106,0.726094287,157.5838,157.5838,0,50,50,50,1,-0.020071744,-0.020071744,shape_difference0,1,,TRUE,,intensity,0.1,4.94066E-324,1.79769E+308,0.3,0.82,20,400,0.25,1,0.01,0.5,0.1,,,,,,,,,,,,,,,,,,,,,,,,,,,,,,,,,,,,,,,,,,,,,,,,,,,,,,,,,,,,,,,,,,,,,,,,,,,,,,,,,
,,,,,516600,001,2025-03-12_14h14.48.442,Utility_discrimination_2024_2cat,2024.2.4,MacIntel,59.88023952,,,,,,,,1,"[0.5,0.5]","[0.924,0.383]",d,"[0.5,0.6315496040588556]","[0.5,0.36845039594114437]",157.5857,160.0326,1,d,1,0.9184,,-0.270467599,0.456487272,0.72695487,160.0363,160.0364,0,51,51,51,1,0.131549604,0.131549604,shape_difference4,1,,TRUE,,intensity,0.1,4.94066E-324,1.79769E+308,0.3,0.82,20,400,0.25,1,0.01,0.5,0.1,,,,,,,,,,,,,,,,,,,,,,,,,,,,,,,,,,,,,,,,,,,,,,,,,,,,,,,,,,,,,,,,,,,,,,,,,,,,,,,,,
,,,,,516600,001,2025-03-12_14h14.48.442,Utility_discrimination_2024_2cat,2024.2.4,MacIntel,59.88023952,,,,,,,,3,"[0.5,0.5]","[0.383,0.924]",d,"[0.6018877720097209,0.5422327020343324]","[0.3981122279902791,0.4577672979656676]",160.0375,162.5814,1,s,1,1.0173,,-0.100665125,0.591882706,0.69254783,162.5839,162.5839,0,52,52,52,1,0.110268152,0.110268152,shape_difference1,1,,TRUE,,intensity,0.1,4.94066E-324,1.79769E+308,0.3,0.82,20,400,0.25,1,0.01,0.5,0.1,,,,,,,,,,,,,,,,,,,,,,,,,,,,,,,,,,,,,,,,,,,,,,,,,,,,,,,,,,,,,,,,,,,,,,,,,,,,,,,,,
,,,,,516600,001,2025-03-12_14h14.48.442,Utility_discrimination_2024_2cat,2024.2.4,MacIntel,59.88023952,,,,,,,,2,"[0.5,0.5]","[0.707,0.707]",s,"[0.5999772829659367,0.7411984581214766]","[0.4000227170340633,0.25880154187852344]",162.586,165.2824,1,s,1,1.1693,,-0.270467599,0.456487272,0.72695487,165.2855,165.2855,0,53,53,53,1,0.261037292,0.261037292,shape_difference3,1,,TRUE,,intensity,0.1,4.94066E-324,1.79769E+308,0.3,0.82,20,400,0.25,1,0.01,0.5,0.1,,,,,,,,,,,,,,,,,,,,,,,,,,,,,,,,,,,,,,,,,,,,,,,,,,,,,,,,,,,,,,,,,,,,,,,,,,,,,,,,,
,,,,,516600,001,2025-03-12_14h14.48.442,Utility_discrimination_2024_2cat,2024.2.4,MacIntel,59.88023952,,,,,,,,4,"[0.5,0.5]","[0,1]",s,"[0.57795958312865,0.57795958312865]","[0.4220404168713499,0.4220404168713499]",165.2867,167.6323,1,s,1,0.8175,,-0.265584245,0.447148646,0.712732891,167.6352,167.6352,0,54,54,54,1,0.110268152,0.110268152,shape_difference2,1,,TRUE,,intensity,0.1,4.94066E-324,1.79769E+308,0.3,0.82,20,400,0.25,1,0.01,0.5,0.1,,,,,,,,,,,,,,,,,,,,,,,,,,,,,,,,,,,,,,,,,,,,,,,,,,,,,,,,,,,,,,,,,,,,,,,,,,,,,,,,,
,,,,,516600,001,2025-03-12_14h14.48.442,Utility_discrimination_2024_2cat,2024.2.4,MacIntel,59.88023952,,,,,,,,1,"[0.5,0.5]","[0.924,0.383]",s,"[0.5,0.6069703876571211]","[0.5,0.3930296123428789]",167.6363,170.399,1,d,1,1.2362,,-0.28247114,0.424117852,0.706588992,170.4024,170.4024,0,55,55,55,1,0.106970388,0.106970388,shape_difference4,1,,TRUE,,intensity,0.1,4.94066E-324,1.79769E+308,0.3,0.82,20,400,0.25,1,0.01,0.5,0.1,,,,,,,,,,,,,,,,,,,,,,,,,,,,,,,,,,,,,,,,,,,,,,,,,,,,,,,,,,,,,,,,,,,,,,,,,,,,,,,,,
,,,,,516600,001,2025-03-12_14h14.48.442,Utility_discrimination_2024_2cat,2024.2.4,MacIntel,59.88023952,,,,,,,,0,"[0.5,0.5]","[1,0]",d,"[0.5802793965958323,0.5332759836539002]","[0.41972060340416767,0.46672401634609983]",170.4036,172.8489,1,d,1,0.9275,,-0.432460069,0.295894979,0.728355048,172.8513,172.8514,0,56,56,56,1,0.086882464,0.086882464,shape_difference1,1,,TRUE,,intensity,0.1,4.94066E-324,1.79769E+308,0.3,0.82,20,400,0.25,1,0.01,0.5,0.1,,,,,,,,,,,,,,,,,,,,,,,,,,,,,,,,,,,,,,,,,,,,,,,,,,,,,,,,,,,,,,,,,,,,,,,,,,,,,,,,,
,,,,,516600,001,2025-03-12_14h14.48.442,Utility_discrimination_2024_2cat,2024.2.4,MacIntel,59.88023952,,,,,,,,3,"[0.5,0.5]","[0.383,0.924]",d,"[0.4570047549824835,0.5]","[0.5429952450175165,0.5]",172.8524,175.3489,1,s,1,0.9773,,-0.11944057,0.568837407,0.688277977,175.3521,175.3521,0,57,57,57,1,-0.042995245,-0.042995245,shape_difference0,1,,TRUE,,intensity,0.1,4.94066E-324,1.79769E+308,0.3,0.82,20,400,0.25,1,0.01,0.5,0.1,,,,,,,,,,,,,,,,,,,,,,,,,,,,,,,,,,,,,,,,,,,,,,,,,,,,,,,,,,,,,,,,,,,,,,,,,,,,,,,,,
,,,,,516600,001,2025-03-12_14h14.48.442,Utility_discrimination_2024_2cat,2024.2.4,MacIntel,59.88023952,,,,,,,,2,"[0.5,0.5]","[0.707,0.707]",s,"[0.5918920450023175,0.7216925576557216]","[0.4081079549976825,0.27830744234427834]",175.3532,177.6314,1,d,1,0.7501,,-0.28247114,0.424117852,0.706588992,177.6342,177.6342,0,58,58,58,1,0.23992701,0.23992701,shape_difference3,1,,TRUE,,intensity,0.1,4.94066E-324,1.79769E+308,0.3,0.82,20,400,0.25,1,0.01,0.5,0.1,,,,,,,,,,,,,,,,,,,,,,,,,,,,,,,,,,,,,,,,,,,,,,,,,,,,,,,,,,,,,,,,,,,,,,,,,,,,,,,,,
,,,,,516600,001,2025-03-12_14h14.48.442,Utility_discrimination_2024_2cat,2024.2.4,MacIntel,59.88023952,,,,,,,,4,"[0.5,0.5]","[0,1]",d,"[0.5614259019407505,0.5614259019407505]","[0.4385740980592495,0.4385740980592495]",177.6352,180.4653,1,s,1,1.3075,,-0.277670727,0.413482789,0.691153515,180.4671,180.4671,0,59,59,59,1,0.086882464,0.086882464,shape_difference2,1,,TRUE,,intensity,0.1,4.94066E-324,1.79769E+308,0.3,0.82,20,400,0.25,1,0.01,0.5,0.1,,,,,,,,,,,,,,,,,,,,,,,,,,,,,,,,,,,,,,,,,,,,,,,,,,,,,,,,,,,,,,,,,,,,,,,,,,,,,,,,,
,,,,,516600,001,2025-03-12_14h14.48.442,Utility_discrimination_2024_2cat,2024.2.4,MacIntel,59.88023952,,,,,,,,3,"[0.5,0.5]","[0.383,0.924]",s,"[0.5,0.5849055458222778]","[0.5,0.4150944541777221]",180.4677,183.3147,0,s,0,1.317,,-0.13710916,0.542197791,0.679306951,183.3203,183.3203,0,60,60,60,1,0.084905546,0.084905546,shape_difference4,1,,TRUE,,intensity,0.1,4.94066E-324,1.79769E+308,0.3,0.82,20,400,0.25,1,0.01,0.5,0.1,,,,,,,,,,,,,,,,,,,,,,,,,,,,,,,,,,,,,,,,,,,,,,,,,,,,,,,,,,,,,,,,,,,,,,,,,,,,,,,,,
,,,,,516600,001,2025-03-12_14h14.48.442,Utility_discrimination_2024_2cat,2024.2.4,MacIntel,59.88023952,,,,,,,,0,"[0.5,0.5]","[1,0]",d,"[0.583446971784518,0.7013185428952862]","[0.41655302821548207,0.29868145710471383]",183.3239,185.448,1,d,1,0.6022,,-0.449110019,0.271654433,0.720764452,185.4514,185.4514,0,61,61,61,1,0.217877211,0.217877211,shape_difference3,1,,TRUE,,intensity,0.1,4.94066E-324,1.79769E+308,0.3,0.82,20,400,0.25,1,0.01,0.5,0.1,,,,,,,,,,,,,,,,,,,,,,,,,,,,,,,,,,,,,,,,,,,,,,,,,,,,,,,,,,,,,,,,,,,,,,,,,,,,,,,,,
,,,,,516600,001,2025-03-12_14h14.48.442,Utility_discrimination_2024_2cat,2024.2.4,MacIntel,59.88023952,,,,,,,,2,"[0.5,0.5]","[0.707,0.707]",d,"[0.4347402449722949,0.5]","[0.5652597550277051,0.5]",185.4526,187.7491,1,s,1,0.7648,,-0.29256292,0.392380771,0.684943691,187.752,187.752,0,62,62,62,1,-0.065259755,-0.065259755,shape_difference0,1,,TRUE,,intensity,0.1,4.94066E-324,1.79769E+308,0.3,0.82,20,400,0.25,1,0.01,0.5,0.1,,,,,,,,,,,,,,,,,,,,,,,,,,,,,,,,,,,,,,,,,,,,,,,,,,,,,,,,,,,,,,,,,,,,,,,,,,,,,,,,,
,,,,,516600,001,2025-03-12_14h14.48.442,Utility_discrimination_2024_2cat,2024.2.4,MacIntel,59.88023952,,,,,,,,1,"[0.5,0.5]","[0.924,0.383]",s,"[0.5466593854964985,0.5466593854964985]","[0.45334061450350155,0.45334061450350155]",187.7529,189.8657,1,d,1,0.5836,,-0.29256292,0.392380771,0.684943691,189.8694,189.8695,0,63,63,63,1,0.065996302,0.065996302,shape_difference2,1,,TRUE,,intensity,0.1,4.94066E-324,1.79769E+308,0.3,0.82,20,400,0.25,1,0.01,0.5,0.1,,,,,,,,,,,,,,,,,,,,,,,,,,,,,,,,,,,,,,,,,,,,,,,,,,,,,,,,,,,,,,,,,,,,,,,,,,,,,,,,,
,,,,,516600,001,2025-03-12_14h14.48.442,Utility_discrimination_2024_2cat,2024.2.4,MacIntel,59.88023952,,,,,,,,0,"[0.5,0.5]","[1,0]",d,"[0.5609805830251267,0.525276583656519]","[0.4390194169748733,0.47472341634348103]",189.8705,192.3646,1,s,1,0.9715,,-0.465059095,0.243616338,0.708675433,192.3681,192.3682,0,64,64,64,1,0.065996302,0.065996302,shape_difference1,1,,TRUE,,intensity,0.1,4.94066E-324,1.79769E+308,0.3,0.82,20,400,0.25,1,0.01,0.5,0.1,,,,,,,,,,,,,,,,,,,,,,,,,,,,,,,,,,,,,,,,,,,,,,,,,,,,,,,,,,,,,,,,,,,,,,,,,,,,,,,,,
,,,,,516600,001,2025-03-12_14h14.48.442,Utility_discrimination_2024_2cat,2024.2.4,MacIntel,59.88023952,,,,,,,,3,"[0.5,0.5]","[0.383,0.924]",s,"[0.41127558591182806,0.5]","[0.588724414088172,0.5]",192.3691,194.7987,1,d,1,0.9001,,-0.151617139,0.510187888,0.661805027,194.8016,194.8016,0,65,65,65,1,-0.088724414,-0.088724414,shape_difference0,1,,TRUE,,intensity,0.1,4.94066E-324,1.79769E+308,0.3,0.82,20,400,0.25,1,0.01,0.5,0.1,,,,,,,,,,,,,,,,,,,,,,,,,,,,,,,,,,,,,,,,,,,,,,,,,,,,,,,,,,,,,,,,,,,,,,,,,,,,,,,,,
,,,,,516600,001,2025-03-12_14h14.48.442,Utility_discrimination_2024_2cat,2024.2.4,MacIntel,59.88023952,,,,,,,,4,"[0.5,0.5]","[0,1]",d,"[0.5750972545811242,0.6811745776317462]","[0.4249027454188758,0.3188254223682539]",194.8026,197.7156,1,s,1,1.3833,,-0.177659062,0.49653059,0.674189651,197.7194,197.7195,0,66,66,66,1,0.196076383,0.196076383,shape_difference3,1,,TRUE,,intensity,0.1,4.94066E-324,1.79769E+308,0.3,0.82,20,400,0.25,1,0.01,0.5,0.1,,,,,,,,,,,,,,,,,,,,,,,,,,,,,,,,,,,,,,,,,,,,,,,,,,,,,,,,,,,,,,,,,,,,,,,,,,,,,,,,,
,,,,,516600,001,2025-03-12_14h14.48.442,Utility_discrimination_2024_2cat,2024.2.4,MacIntel,59.88023952,,,,,,,,1,"[0.5,0.5]","[0.924,0.383]",s,"[0.5,0.6753027848162247]","[0.5,0.32469721518377526]",197.7204,200.4497,0,s,0,1.2126,,-0.302893624,0.369648179,0.672541802,200.452,200.4521,0,67,67,67,1,0.175302785,0.175302785,shape_difference4,1,,TRUE,,intensity,0.1,4.94066E-324,1.79769E+308,0.3,0.82,20,400,0.25,1,0.01,0.5,0.1,,,,,,,,,,,,,,,,,,,,,,,,,,,,,,,,,,,,,,,,,,,,,,,,,,,,,,,,,,,,,,,,,,,,,,,,,,,,,,,,,
,,,,,516600,001,2025-03-12_14h14.48.442,Utility_discrimination_2024_2cat,2024.2.4,MacIntel,59.88023952,,,,,,,,2,"[0.5,0.5]","[0.707,0.707]",d,"[0.542382371676532,0.5175675847966578]","[0.457617628323468,0.48243241520334224]",200.453,202.9647,1,s,1,0.9832,,-0.302893624,0.369648179,0.672541802,202.9679,202.968,0,68,68,68,1,0.045868368,0.045868368,shape_difference1,1,,TRUE,,intensity,0.1,4.94066E-324,1.79769E+308,0.3,0.82,20,400,0.25,1,0.01,0.5,0.1,,,,,,,,,,,,,,,,,,,,,,,,,,,,,,,,,,,,,,,,,,,,,,,,,,,,,,,,,,,,,,,,,,,,,,,,,,,,,,,,,
,,,,,516600,001,2025-03-12_14h14.48.442,Utility_discrimination_2024_2cat,2024.2.4,MacIntel,59.88023952,,,,,,,,4,"[0.5,0.5]","[0,1]",s,"[0.5324289359040132,0.5324289359040132]","[0.46757106409598687,0.46757106409598687]",202.969,205.1988,1,d,1,0.7104,,-0.081889892,0.584860689,0.666750582,205.2026,205.2027,0,69,69,69,1,0.045868368,0.045868368,shape_difference2,1,,TRUE,,intensity,0.1,4.94066E-324,1.79769E+308,0.3,0.82,20,400,0.25,1,0.01,0.5,0.1,,,,,,,,,,,,,,,,,,,,,,,,,,,,,,,,,,,,,,,,,,,,,,,,,,,,,,,,,,,,,,,,,,,,,,,,,,,,,,,,,
,,,,,516600,001,2025-03-12_14h14.48.442,Utility_discrimination_2024_2cat,2024.2.4,MacIntel,59.88023952,,,,,,,,3,"[0.5,0.5]","[0.383,0.924]",d,"[0.5,0.7647479262319067]","[0.5,0.23525207376809332]",205.2037,207.616,0,s,0,0.8955,,-0.16367433,0.486541437,0.650215767,207.6184,207.6184,0,70,70,70,1,0.264747926,0.264747926,shape_difference4,1,,TRUE,,intensity,0.1,4.94066E-324,1.79769E+308,0.3,0.82,20,400,0.25,1,0.01,0.5,0.1,,,,,,,,,,,,,,,,,,,,,,,,,,,,,,,,,,,,,,,,,,,,,,,,,,,,,,,,,,,,,,,,,,,,,,,,,,,,,,,,,
,,,,,516600,001,2025-03-12_14h14.48.442,Utility_discrimination_2024_2cat,2024.2.4,MacIntel,59.88023952,,,,,,,,1,"[0.5,0.5]","[0.924,0.383]",d,"[0.5680342813133785,0.6641349241085164]","[0.4319657186866215,0.3358650758914836]",207.6194,209.7322,1,d,1,0.5936,,-0.323199132,0.343547461,0.666746593,209.7355,209.7355,0,71,71,71,1,0.177635199,0.177635199,shape_difference3,1,,TRUE,,intensity,0.1,4.94066E-324,1.79769E+308,0.3,0.82,20,400,0.25,1,0.01,0.5,0.1,,,,,,,,,,,,,,,,,,,,,,,,,,,,,,,,,,,,,,,,,,,,,,,,,,,,,,,,,,,,,,,,,,,,,,,,,,,,,,,,,
,,,,,516600,001,2025-03-12_14h14.48.442,Utility_discrimination_2024_2cat,2024.2.4,MacIntel,59.88023952,,,,,,,,2,"[0.5,0.5]","[0.707,0.707]",d,"[0.5231126918199225,0.5095802607868294]","[0.4768873081800775,0.49041973921317067]",209.7365,211.9821,1,s,1,0.718,,-0.323199132,0.343547461,0.666746593,211.9856,211.9856,0,72,72,72,1,0.025013736,0.025013736,shape_difference1,1,,TRUE,,intensity,0.1,4.94066E-324,1.79769E+308,0.3,0.82,20,400,0.25,1,0.01,0.5,0.1,,,,,,,,,,,,,,,,,,,,,,,,,,,,,,,,,,,,,,,,,,,,,,,,,,,,,,,,,,,,,,,,,,,,,,,,,,,,,,,,,
,,,,,516600,001,2025-03-12_14h14.48.442,Utility_discrimination_2024_2cat,2024.2.4,MacIntel,59.88023952,,,,,,,,0,"[0.5,0.5]","[1,0]",s,"[0.5176847111652437,0.5176847111652437]","[0.4823152888347563,0.4823152888347563]",211.9865,214.4156,1,d,1,0.9007,,-0.478309966,0.209855128,0.688165095,214.418,214.418,0,73,73,73,1,0.025013736,0.025013736,shape_difference2,1,,TRUE,,intensity,0.1,4.94066E-324,1.79769E+308,0.3,0.82,20,400,0.25,1,0.01,0.5,0.1,,,,,,,,,,,,,,,,,,,,,,,,,,,,,,,,,,,,,,,,,,,,,,,,,,,,,,,,,,,,,,,,,,,,,,,,,,,,,,,,,
,,,,,516600,001,2025-03-12_14h14.48.442,Utility_discrimination_2024_2cat,2024.2.4,MacIntel,59.88023952,,,,,,,,4,"[0.5,0.5]","[0,1]",d,"[0.3892557588013673,0.5]","[0.6107442411986327,0.5]",214.419,216.7155,1,d,1,0.7676,,0.012683277,0.671595284,0.658912008,216.7185,216.7185,0,74,74,74,1,-0.110744241,-0.110744241,shape_difference0,1,,TRUE,,intensity,0.1,4.94066E-324,1.79769E+308,0.3,0.82,20,400,0.25,1,0.01,0.5,0.1,,,,,,,,,,,,,,,,,,,,,,,,,,,,,,,,,,,,,,,,,,,,,,,,,,,,,,,,,,,,,,,,,,,,,,,,,,,,,,,,,
,,,,,516600,001,2025-03-12_14h14.48.442,Utility_discrimination_2024_2cat,2024.2.4,MacIntel,59.88023952,,,,,,,,1,"[0.5,0.5]","[0.924,0.383]",d,"[0.5,0.8539754430489638]","[0.5,0.14602455695103622]",216.7203,218.8318,1,d,1,0.5936,,-0.339825552,0.312335844,0.652161396,218.8332,218.8333,0,75,75,75,1,0.353975443,0.353975443,shape_difference4,1,,TRUE,,intensity,0.1,4.94066E-324,1.79769E+308,0.3,0.82,20,400,0.25,1,0.01,0.5,0.1,,,,,,,,,,,,,,,,,,,,,,,,,,,,,,,,,,,,,,,,,,,,,,,,,,,,,,,,,,,,,,,,,,,,,,,,,,,,,,,,,
,,,,,516600,001,2025-03-12_14h14.48.442,Utility_discrimination_2024_2cat,2024.2.4,MacIntel,59.88023952,,,,,,,,0,"[0.5,0.5]","[1,0]",d,"[0.5034908814962448,0.5014469779362141]","[0.49650911850375523,0.498553022063786]",218.8337,221.3655,1,s,1,1.0041,,-0.489481365,0.185180808,0.674662172,221.3679,221.368,0,76,76,76,1,0.00377801,0.00377801,shape_difference1,1,,TRUE,,intensity,0.1,4.94066E-324,1.79769E+308,0.3,0.82,20,400,0.25,1,0.01,0.5,0.1,,,,,,,,,,,,,,,,,,,,,,,,,,,,,,,,,,,,,,,,,,,,,,,,,,,,,,,,,,,,,,,,,,,,,,,,,,,,,,,,,
,,,,,516600,001,2025-03-12_14h14.48.442,Utility_discrimination_2024_2cat,2024.2.4,MacIntel,59.88023952,,,,,,,,3,"[0.5,0.5]","[0.383,0.924]",s,"[0.36973735619394005,0.5]","[0.6302626438060599,0.5]",221.369,223.4148,1,d,1,0.5202,,-0.173817415,0.465689291,0.639506705,223.4174,223.4174,0,77,77,77,1,-0.130262644,-0.130262644,shape_difference0,1,,TRUE,,intensity,0.1,4.94066E-324,1.79769E+308,0.3,0.82,20,400,0.25,1,0.01,0.5,0.1,,,,,,,,,,,,,,,,,,,,,,,,,,,,,,,,,,,,,,,,,,,,,,,,,,,,,,,,,,,,,,,,,,,,,,,,,,,,,,,,,
,,,,,516600,001,2025-03-12_14h14.48.442,Utility_discrimination_2024_2cat,2024.2.4,MacIntel,59.88023952,,,,,,,,2,"[0.5,0.5]","[0.707,0.707]",d,"[0.5612890593843857,0.6478618560605023]","[0.43871094061561433,0.3521381439394977]",223.4184,225.6821,1,d,1,0.7315,,-0.339825552,0.312335844,0.652161396,225.6856,225.6857,0,78,78,78,1,0.160023654,0.160023654,shape_difference3,1,,TRUE,,intensity,0.1,4.94066E-324,1.79769E+308,0.3,0.82,20,400,0.25,1,0.01,0.5,0.1,,,,,,,,,,,,,,,,,,,,,,,,,,,,,,,,,,,,,,,,,,,,,,,,,,,,,,,,,,,,,,,,,,,,,,,,,,,,,,,,,
,,,,,516600,001,2025-03-12_14h14.48.442,Utility_discrimination_2024_2cat,2024.2.4,MacIntel,59.88023952,,,,,,,,4,"[0.5,0.5]","[0,1]",d,"[0.5026710532660661,0.5026710532660661]","[0.4973289467339339,0.4973289467339339]",225.6866,228.0155,0,s,0,0.8014,,0.004998805,0.647203241,0.642204436,228.0188,228.0188,0,79,79,79,1,0.00377801,0.00377801,shape_difference2,1,,TRUE,,intensity,0.1,4.94066E-324,1.79769E+308,0.3,0.82,20,400,0.25,1,0.01,0.5,0.1,,,,,,,,,,,,,,,,,,,,,,,,,,,,,,,,,,,,,,,,,,,,,,,,,,,,,,,,,,,,,,,,,,,,,,,,,,,,,,,,,
,,,,,516600,001,2025-03-12_14h14.48.442,Utility_discrimination_2024_2cat,2024.2.4,MacIntel,59.88023952,,,,,,,,2,"[0.5,0.5]","[0.707,0.707]",d,"[0.5,0.8350840197843695]","[0.5,0.16491598021563048]",228.0198,230.4988,1,d,1,0.9536,,-0.255570892,0.388653124,0.644224016,230.5013,230.5013,0,80,80,80,1,0.33508402,0.33508402,shape_difference4,1,,TRUE,,intensity,0.1,4.94066E-324,1.79769E+308,0.3,0.82,20,400,0.25,1,0.01,0.5,0.1,,,,,,,,,,,,,,,,,,,,,,,,,,,,,,,,,,,,,,,,,,,,,,,,,,,,,,,,,,,,,,,,,,,,,,,,,,,,,,,,,
,,,,,516600,001,2025-03-12_14h14.48.442,Utility_discrimination_2024_2cat,2024.2.4,MacIntel,59.88023952,,,,,,,,0,"[0.5,0.5]","[1,0]",d,"[0.5573200724144001,0.5573200724144001]","[0.4426799275856,0.4426799275856]",230.5023,232.9161,1,s,1,0.895,,-0.499040205,0.162810061,0.661850266,232.9188,232.9189,0,81,81,81,1,0.081075067,0.081075067,shape_difference2,1,,TRUE,,intensity,0.1,4.94066E-324,1.79769E+308,0.3,0.82,20,400,0.25,1,0.01,0.5,0.1,,,,,,,,,,,,,,,,,,,,,,,,,,,,,,,,,,,,,,,,,,,,,,,,,,,,,,,,,,,,,,,,,,,,,,,,,,,,,,,,,
,,,,,516600,001,2025-03-12_14h14.48.442,Utility_discrimination_2024_2cat,2024.2.4,MacIntel,59.88023952,,,,,,,,1,"[0.5,0.5]","[0.924,0.383]",s,"[0.3509227699364416,0.5]","[0.6490772300635583,0.5]",232.92,235.1488,1,d,1,0.7006,,-0.35359744,0.28825047,0.64184791,235.1523,235.1524,0,82,82,82,1,-0.14907723,-0.14907723,shape_difference0,1,,TRUE,,intensity,0.1,4.94066E-324,1.79769E+308,0.3,0.82,20,400,0.25,1,0.01,0.5,0.1,,,,,,,,,,,,,,,,,,,,,,,,,,,,,,,,,,,,,,,,,,,,,,,,,,,,,,,,,,,,,,,,,,,,,,,,,,,,,,,,,
,,,,,516600,001,2025-03-12_14h14.48.442,Utility_discrimination_2024_2cat,2024.2.4,MacIntel,59.88023952,,,,,,,,3,"[0.5,0.5]","[0.383,0.924]",d,"[0.48643192298719534,0.4943760027100604]","[0.5135680770128047,0.5056239972899396]",235.1534,237.6644,1,s,1,0.9827,,-0.182455426,0.441624374,0.6240798,237.6667,237.6668,0,83,83,83,1,-0.014684066,-0.014684066,shape_difference1,1,,TRUE,,intensity,0.1,4.94066E-324,1.79769E+308,0.3,0.82,20,400,0.25,1,0.01,0.5,0.1,,,,,,,,,,,,,,,,,,,,,,,,,,,,,,,,,,,,,,,,,,,,,,,,,,,,,,,,,,,,,,,,,,,,,,,,,,,,,,,,,
,,,,,516600,001,2025-03-12_14h14.48.442,Utility_discrimination_2024_2cat,2024.2.4,MacIntel,59.88023952,,,,,,,,1,"[0.5,0.5]","[0.924,0.383]",s,"[0.5547381682769822,0.6320576174619623]","[0.4452618317230178,0.3679423825380377]",237.668,239.9824,1,d,1,0.795,,-0.365138407,0.268347655,0.633486062,239.9847,239.9847,0,84,84,84,1,0.142919499,0.142919499,shape_difference3,1,,TRUE,,intensity,0.1,4.94066E-324,1.79769E+308,0.3,0.82,20,400,0.25,1,0.01,0.5,0.1,,,,,,,,,,,,,,,,,,,,,,,,,,,,,,,,,,,,,,,,,,,,,,,,,,,,,,,,,,,,,,,,,,,,,,,,,,,,,,,,,
,,,,,516600,001,2025-03-12_14h14.48.442,Utility_discrimination_2024_2cat,2024.2.4,MacIntel,59.88023952,,,,,,,,4,"[0.5,0.5]","[0,1]",d,"[0.4707396921675584,0.4878715390694533]","[0.5292603078324416,0.5121284609305466]",239.9859,242.2987,1,s,1,0.7894,,-0.006963218,0.618618854,0.625582072,242.3019,242.3019,0,85,85,85,1,-0.031667,-0.031667,shape_difference1,1,,TRUE,,intensity,0.1,4.94066E-324,1.79769E+308,0.3,0.82,20,400,0.25,1,0.01,0.5,0.1,,,,,,,,,,,,,,,,,,,,,,,,,,,,,,,,,,,,,,,,,,,,,,,,,,,,,,,,,,,,,,,,,,,,,,,,,,,,,,,,,
,,,,,516600,001,2025-03-12_14h14.48.442,Utility_discrimination_2024_2cat,2024.2.4,MacIntel,59.88023952,,,,,,,,2,"[0.5,0.5]","[0.707,0.707]",s,"[0.5,0.8152420536203593]","[0.5,0.18475794637964071]",242.3033,244.616,1,d,1,0.7943,,-0.266336434,0.368127296,0.63446373,244.6194,244.6194,0,86,86,86,1,0.315242054,0.315242054,shape_difference4,1,,TRUE,,intensity,0.1,4.94066E-324,1.79769E+308,0.3,0.82,20,400,0.25,1,0.01,0.5,0.1,,,,,,,,,,,,,,,,,,,,,,,,,,,,,,,,,,,,,,,,,,,,,,,,,,,,,,,,,,,,,,,,,,,,,,,,,,,,,,,,,
,,,,,516600,001,2025-03-12_14h14.48.442,Utility_discrimination_2024_2cat,2024.2.4,MacIntel,59.88023952,,,,,,,,3,"[0.5,0.5]","[0.383,0.924]",d,"[0.5451291867543487,0.5451291867543487]","[0.4548708132456512,0.4548708132456512]",244.6206,247.1988,1,s,1,1.0614,,-0.190930837,0.413527226,0.604458063,247.2013,247.2013,0,87,87,87,1,0.063831947,0.063831947,shape_difference2,1,,TRUE,,intensity,0.1,4.94066E-324,1.79769E+308,0.3,0.82,20,400,0.25,1,0.01,0.5,0.1,,,,,,,,,,,,,,,,,,,,,,,,,,,,,,,,,,,,,,,,,,,,,,,,,,,,,,,,,,,,,,,,,,,,,,,,,,,,,,,,,
,,,,,516600,001,2025-03-12_14h14.48.442,Utility_discrimination_2024_2cat,2024.2.4,MacIntel,59.88023952,,,,,,,,0,"[0.5,0.5]","[1,0]",s,"[0.5479181801018557,0.615604173404999]","[0.45208181989814433,0.384395826595001]",247.2024,249.4822,1,d,1,0.7505,,-0.517762367,0.136835868,0.654598235,249.4852,249.4852,0,88,88,88,1,0.125112742,0.125112742,shape_difference3,1,,TRUE,,intensity,0.1,4.94066E-324,1.79769E+308,0.3,0.82,20,400,0.25,1,0.01,0.5,0.1,,,,,,,,,,,,,,,,,,,,,,,,,,,,,,,,,,,,,,,,,,,,,,,,,,,,,,,,,,,,,,,,,,,,,,,,,,,,,,,,,
,,,,,516600,001,2025-03-12_14h14.48.442,Utility_discrimination_2024_2cat,2024.2.4,MacIntel,59.88023952,,,,,,,,3,"[0.5,0.5]","[0.383,0.924]",d,"[0.33245685653300394,0.5]","[0.6675431434669961,0.5]",249.4863,252.0818,0,d,0,1.072,,-0.19834074,0.391081924,0.589422664,252.0858,252.0858,0,89,89,89,1,-0.167543143,-0.167543143,shape_difference0,1,,TRUE,,intensity,0.1,4.94066E-324,1.79769E+308,0.3,0.82,20,400,0.25,1,0.01,0.5,0.1,,,,,,,,,,,,,,,,,,,,,,,,,,,,,,,,,,,,,,,,,,,,,,,,,,,,,,,,,,,,,,,,,,,,,,,,,,,,,,,,,
,,,,,516600,001,2025-03-12_14h14.48.442,Utility_discrimination_2024_2cat,2024.2.4,MacIntel,59.88023952,,,,,,,,4,"[0.5,0.5]","[0,1]",s,"[0.5409660897783438,0.5988320286036283]","[0.45903391022165624,0.40116797139637167]",252.0866,255.1486,1,s,1,1.5426,,-0.023793915,0.592699247,0.616493162,255.1506,255.1506,0,90,90,90,1,0.10696107,0.10696107,shape_difference3,1,,TRUE,,intensity,0.1,4.94066E-324,1.79769E+308,0.3,0.82,20,400,0.25,1,0.01,0.5,0.1,,,,,,,,,,,,,,,,,,,,,,,,,,,,,,,,,,,,,,,,,,,,,,,,,,,,,,,,,,,,,,,,,,,,,,,,,,,,,,,,,
,,,,,516600,001,2025-03-12_14h14.48.442,Utility_discrimination_2024_2cat,2024.2.4,MacIntel,59.88023952,,,,,,,,1,"[0.5,0.5]","[0.924,0.383]",s,"[0.5,0.795801103646987]","[0.5,0.20419889635301303]",255.1515,257.782,1,s,1,1.0998,,-0.374923866,0.245497808,0.620421674,257.7848,257.7848,0,91,91,91,1,0.295801104,0.295801104,shape_difference4,1,,TRUE,,intensity,0.1,4.94066E-324,1.79769E+308,0.3,0.82,20,400,0.25,1,0.01,0.5,0.1,,,,,,,,,,,,,,,,,,,,,,,,,,,,,,,,,,,,,,,,,,,,,,,,,,,,,,,,,,,,,,,,,,,,,,,,,,,,,,,,,
,,,,,516600,001,2025-03-12_14h14.48.442,Utility_discrimination_2024_2cat,2024.2.4,MacIntel,59.88023952,,,,,,,,0,"[0.5,0.5]","[1,0]",s,"[0.45559661131623413,0.4815946992793481]","[0.5444033886837658,0.5184053007206518]",257.786,260.2653,1,s,1,0.9498,,-0.430397528,0.198539706,0.628937234,260.2677,260.2678,0,92,92,92,1,-0.048055615,-0.048055615,shape_difference1,1,,TRUE,,intensity,0.1,4.94066E-324,1.79769E+308,0.3,0.82,20,400,0.25,1,0.01,0.5,0.1,,,,,,,,,,,,,,,,,,,,,,,,,,,,,,,,,,,,,,,,,,,,,,,,,,,,,,,,,,,,,,,,,,,,,,,,,,,,,,,,,
,,,,,516600,001,2025-03-12_14h14.48.442,Utility_discrimination_2024_2cat,2024.2.4,MacIntel,59.88023952,,,,,,,,2,"[0.5,0.5]","[0.707,0.707]",s,"[0.4016114824022111,0.5]","[0.5983885175977889,0.5]",260.2689,262.5487,1,d,1,0.7533,,-0.275462029,0.344542263,0.620004292,262.552,262.552,0,93,93,93,1,-0.098388518,-0.098388518,shape_difference0,1,,TRUE,,intensity,0.1,4.94066E-324,1.79769E+308,0.3,0.82,20,400,0.25,1,0.01,0.5,0.1,,,,,,,,,,,,,,,,,,,,,,,,,,,,,,,,,,,,,,,,,,,,,,,,,,,,,,,,,,,,,,,,,,,,,,,,,,,,,,,,,
,,,,,516600,001,2025-03-12_14h14.48.442,Utility_discrimination_2024_2cat,2024.2.4,MacIntel,59.88023952,,,,,,,,4,"[0.5,0.5]","[0,1]",d,"[0.5333406514282784,0.5333406514282784]","[0.46665934857172164,0.46665934857172164]",262.5531,265.332,1,d,1,1.2501,,-0.0377428,0.574561903,0.612304703,265.3346,265.3347,0,94,94,94,1,0.047157923,0.047157923,shape_difference2,1,,TRUE,,intensity,0.1,4.94066E-324,1.79769E+308,0.3,0.82,20,400,0.25,1,0.01,0.5,0.1,,,,,,,,,,,,,,,,,,,,,,,,,,,,,,,,,,,,,,,,,,,,,,,,,,,,,,,,,,,,,,,,,,,,,,,,,,,,,,,,,
,,,,,516600,001,2025-03-12_14h14.48.442,Utility_discrimination_2024_2cat,2024.2.4,MacIntel,59.88023952,,,,,,,,1,"[0.5,0.5]","[0.924,0.383]",d,"[0.5,0.7794852490798647]","[0.5,0.22051475092013528]",265.3357,268.3321,1,s,1,1.468,,-0.383319137,0.218790753,0.60210989,268.3355,268.3356,0,95,95,95,1,0.279485249,0.279485249,shape_difference4,1,,TRUE,,intensity,0.1,4.94066E-324,1.79769E+308,0.3,0.82,20,400,0.25,1,0.01,0.5,0.1,,,,,,,,,,,,,,,,,,,,,,,,,,,,,,,,,,,,,,,,,,,,,,,,,,,,,,,,,,,,,,,,,,,,,,,,,,,,,,,,,
,,,,,516600,001,2025-03-12_14h14.48.442,Utility_discrimination_2024_2cat,2024.2.4,MacIntel,59.88023952,,,,,,,,0,"[0.5,0.5]","[1,0]",s,"[0.4407458414260657,0.47543902301534974]","[0.5592541585739343,0.5245609769846502]",268.3366,271.0318,1,s,1,1.1688,,-0.444950284,0.180723254,0.625673538,271.0337,271.0338,0,96,96,96,1,-0.064127877,-0.064127877,shape_difference1,1,,TRUE,,intensity,0.1,4.94066E-324,1.79769E+308,0.3,0.82,20,400,0.25,1,0.01,0.5,0.1,,,,,,,,,,,,,,,,,,,,,,,,,,,,,,,,,,,,,,,,,,,,,,,,,,,,,,,,,,,,,,,,,,,,,,,,,,,,,,,,,
,,,,,516600,001,2025-03-12_14h14.48.442,Utility_discrimination_2024_2cat,2024.2.4,MacIntel,59.88023952,,,,,,,,2,"[0.5,0.5]","[0.707,0.707]",s,"[0.3845470217233924,0.5]","[0.6154529782766076,0.5]",271.0345,273.2652,1,d,1,0.7036,,-0.284317933,0.317170947,0.601488879,273.2688,273.2688,0,97,97,97,1,-0.115452978,-0.115452978,shape_difference0,1,,TRUE,,intensity,0.1,4.94066E-324,1.79769E+308,0.3,0.82,20,400,0.25,1,0.01,0.5,0.1,,,,,,,,,,,,,,,,,,,,,,,,,,,,,,,,,,,,,,,,,,,,,,,,,,,,,,,,,,,,,,,,,,,,,,,,,,,,,,,,,
,,,,,516600,001,2025-03-12_14h14.48.442,Utility_discrimination_2024_2cat,2024.2.4,MacIntel,59.88023952,,,,,,,,3,"[0.5,0.5]","[0.383,0.924]",d,"[0.521155909902567,0.521155909902567]","[0.47884409009743295,0.47884409009743295]",273.27,275.6987,0,s,0,0.9025,,-0.213344805,0.374231024,0.587575829,275.7019,275.702,0,98,98,98,1,0.029923493,0.029923493,shape_difference2,1,,TRUE,,intensity,0.1,4.94066E-324,1.79769E+308,0.3,0.82,20,400,0.25,1,0.01,0.5,0.1,,,,,,,,,,,,,,,,,,,,,,,,,,,,,,,,,,,,,,,,,,,,,,,,,,,,,,,,,,,,,,,,,,,,,,,,,,,,,,,,,
,,,,,516600,001,2025-03-12_14h14.48.442,Utility_discrimination_2024_2cat,2024.2.4,MacIntel,59.88023952,,,,,,,,4,"[0.5,0.5]","[0,1]",d,"[0.534670345271867,0.5836433395070629]","[0.46532965472813304,0.41635666049293707]",275.7032,278.4986,0,d,0,1.2683,,-0.049418637,0.553914577,0.603333214,278.5035,278.5035,0,99,99,99,1,0.090523095,0.090523095,shape_difference3,1,,TRUE,,intensity,0.1,4.94066E-324,1.79769E+308,0.3,0.82,20,400,0.25,1,0.01,0.5,0.1,,,,,,,,,,,,,,,,,,,,,,,,,,,,,,,,,,,,,,,,,,,,,,,,,,,,,,,,,,,,,,,,,,,,,,,,,,,,,,,,,
,,,,,516600,001,2025-03-12_14h14.48.442,Utility_discrimination_2024_2cat,2024.2.4,MacIntel,59.88023952,,,,,,,,1,"[0.5,0.5]","[0.924,0.383]",s,"[0.5,0.7639238088599655]","[0.5,0.23607619114003453]",278.5046,280.766,1,d,1,0.7451,,-0.391651239,0.194461547,0.586112786,280.7684,280.7685,0,100,100,100,1,0.263923809,0.263923809,shape_difference4,1,,TRUE,,intensity,0.1,4.94066E-324,1.79769E+308,0.3,0.82,20,400,0.25,1,0.01,0.5,0.1,,,,,,,,,,,,,,,,,,,,,,,,,,,,,,,,,,,,,,,,,,,,,,,,,,,,,,,,,,,,,,,,,,,,,,,,,,,,,,,,,
,,,,,516600,001,2025-03-12_14h14.48.442,Utility_discrimination_2024_2cat,2024.2.4,MacIntel,59.88023952,,,,,,,,0,"[0.5,0.5]","[1,0]",d,"[0.425086792847081,0.46894831348531607]","[0.574913207152919,0.5310516865146839]",280.7696,283.1319,1,s,1,0.8344,,-0.457149257,0.160576532,0.617725789,283.1356,283.1356,0,101,101,101,1,-0.0810749,-0.0810749,shape_difference1,1,,TRUE,,intensity,0.1,4.94066E-324,1.79769E+308,0.3,0.82,20,400,0.25,1,0.01,0.5,0.1,,,,,,,,,,,,,,,,,,,,,,,,,,,,,,,,,,,,,,,,,,,,,,,,,,,,,,,,,,,,,,,,,,,,,,,,,,,,,,,,,
,,,,,516600,001,2025-03-12_14h14.48.442,Utility_discrimination_2024_2cat,2024.2.4,MacIntel,59.88023952,,,,,,,,3,"[0.5,0.5]","[0.383,0.924]",s,"[0.36857043460789213,0.5]","[0.6314295653921078,0.5]",283.1367,285.532,1,s,1,0.8669,,-0.151793114,0.440982949,0.592776063,285.5347,285.5347,0,102,102,102,1,-0.131429565,-0.131429565,shape_difference0,1,,TRUE,,intensity,0.1,4.94066E-324,1.79769E+308,0.3,0.82,20,400,0.25,1,0.01,0.5,0.1,,,,,,,,,,,,,,,,,,,,,,,,,,,,,,,,,,,,,,,,,,,,,,,,,,,,,,,,,,,,,,,,,,,,,,,,,,,,,,,,,
,,,,,516600,001,2025-03-12_14h14.48.442,Utility_discrimination_2024_2cat,2024.2.4,MacIntel,59.88023952,,,,,,,,2,"[0.5,0.5]","[0.707,0.707]",s,"[0.5603227885468348,0.6455306961286564]","[0.4396772114531652,0.35446930387134357]",285.5358,287.9653,1,s,1,0.9025,,-0.215297238,0.383210856,0.598508093,287.9682,287.9683,0,103,103,103,1,0.157500753,0.157500753,shape_difference3,1,,TRUE,,intensity,0.1,4.94066E-324,1.79769E+308,0.3,0.82,20,400,0.25,1,0.01,0.5,0.1,,,,,,,,,,,,,,,,,,,,,,,,,,,,,,,,,,,,,,,,,,,,,,,,,,,,,,,,,,,,,,,,,,,,,,,,,,,,,,,,,
,,,,,516600,001,2025-03-12_14h14.48.442,Utility_discrimination_2024_2cat,2024.2.4,MacIntel,59.88023952,,,,,,,,0,"[0.5,0.5]","[1,0]",s,"[0.5645514596991348,0.5645514596991348]","[0.4354485403008652,0.4354485403008652]",287.9694,290.2654,1,s,1,0.7775,,-0.467487321,0.137360403,0.604847725,290.2677,290.2677,0,104,104,104,1,0.091303338,0.091303338,shape_difference2,1,,TRUE,,intensity,0.1,4.94066E-324,1.79769E+308,0.3,0.82,20,400,0.25,1,0.01,0.5,0.1,,,,,,,,,,,,,,,,,,,,,,,,,,,,,,,,,,,,,,,,,,,,,,,,,,,,,,,,,,,,,,,,,,,,,,,,,,,,,,,,,
,,,,,516600,001,2025-03-12_14h14.48.442,Utility_discrimination_2024_2cat,2024.2.4,MacIntel,59.88023952,,,,,,,,2,"[0.5,0.5]","[0.707,0.707]",s,"[0.35314161821613793,0.5]","[0.646858381783862,0.5]",290.2688,292.9985,1,s,1,1.2103,,-0.229822099,0.364189536,0.594011635,293.0008,293.0009,0,105,105,105,1,-0.146858382,-0.146858382,shape_difference0,1,,TRUE,,intensity,0.1,4.94066E-324,1.79769E+308,0.3,0.82,20,400,0.25,1,0.01,0.5,0.1,,,,,,,,,,,,,,,,,,,,,,,,,,,,,,,,,,,,,,,,,,,,,,,,,,,,,,,,,,,,,,,,,,,,,,,,,,,,,,,,,
,,,,,516600,001,2025-03-12_14h14.48.442,Utility_discrimination_2024_2cat,2024.2.4,MacIntel,59.88023952,,,,,,,,4,"[0.5,0.5]","[0,1]",s,"[0.5538097756999323,0.5538097756999323]","[0.4461902243000678,0.4461902243000678]",293.002,295.6985,1,s,1,1.1772,,-0.059289181,0.529994224,0.589283405,295.7009,295.701,0,106,106,106,1,0.076110008,0.076110008,shape_difference2,1,,TRUE,,intensity,0.1,4.94066E-324,1.79769E+308,0.3,0.82,20,400,0.25,1,0.01,0.5,0.1,,,,,,,,,,,,,,,,,,,,,,,,,,,,,,,,,,,,,,,,,,,,,,,,,,,,,,,,,,,,,,,,,,,,,,,,,,,,,,,,,
,,,,,516600,001,2025-03-12_14h14.48.442,Utility_discrimination_2024_2cat,2024.2.4,MacIntel,59.88023952,,,,,,,,1,"[0.5,0.5]","[0.924,0.383]",s,"[0.5,0.7488546376355814]","[0.5,0.25114536236441865]",295.7019,297.9651,1,d,1,0.7448,,-0.398984044,0.178924174,0.577908219,297.9679,297.9679,0,107,107,107,1,0.248854638,0.248854638,shape_difference4,1,,TRUE,,intensity,0.1,4.94066E-324,1.79769E+308,0.3,0.82,20,400,0.25,1,0.01,0.5,0.1,,,,,,,,,,,,,,,,,,,,,,,,,,,,,,,,,,,,,,,,,,,,,,,,,,,,,,,,,,,,,,,,,,,,,,,,,,,,,,,,,
,,,,,516600,001,2025-03-12_14h14.48.442,Utility_discrimination_2024_2cat,2024.2.4,MacIntel,59.88023952,,,,,,,,3,"[0.5,0.5]","[0.383,0.924]",d,"[0.40899921948982715,0.462279979507147]","[0.5910007805101728,0.5377200204928531]",297.969,300.8152,1,d,1,1.3162,,-0.161228274,0.415025757,0.576254031,300.8301,300.8301,0,108,108,108,1,-0.098485693,-0.098485693,shape_difference1,1,,TRUE,,intensity,0.1,4.94066E-324,1.79769E+308,0.3,0.82,20,400,0.25,1,0.01,0.5,0.1,,,,,,,,,,,,,,,,,,,,,,,,,,,,,,,,,,,,,,,,,,,,,,,,,,,,,,,,,,,,,,,,,,,,,,,,,,,,,,,,,
,,,,,516600,001,2025-03-12_14h14.48.442,Utility_discrimination_2024_2cat,2024.2.4,MacIntel,59.88023952,,,,,,,,2,"[0.5,0.5]","[0.707,0.707]",d,"[0.5547264805786777,0.6320294205083504]","[0.4452735194213223,0.3679705794916496]",300.8316,303.382,1,s,1,1.033,,-0.242003863,0.342412499,0.584416362,303.3858,303.3859,0,109,109,109,1,0.142888983,0.142888983,shape_difference3,1,,TRUE,,intensity,0.1,4.94066E-324,1.79769E+308,0.3,0.82,20,400,0.25,1,0.01,0.5,0.1,,,,,,,,,,,,,,,,,,,,,,,,,,,,,,,,,,,,,,,,,,,,,,,,,,,,,,,,,,,,,,,,,,,,,,,,,,,,,,,,,
,,,,,516600,001,2025-03-12_14h14.48.442,Utility_discrimination_2024_2cat,2024.2.4,MacIntel,59.88023952,,,,,,,,3,"[0.5,0.5]","[0.383,0.924]",s,"[0.54353152408978,0.54353152408978]","[0.45646847591021994,0.45646847591021994]",303.387,306.032,1,d,1,1.1162,,-0.170328713,0.393477662,0.563806375,306.0344,306.0344,0,110,110,110,1,0.06157217,0.06157217,shape_difference2,1,,TRUE,,intensity,0.1,4.94066E-324,1.79769E+308,0.3,0.82,20,400,0.25,1,0.01,0.5,0.1,,,,,,,,,,,,,,,,,,,,,,,,,,,,,,,,,,,,,,,,,,,,,,,,,,,,,,,,,,,,,,,,,,,,,,,,,,,,,,,,,
,,,,,516600,001,2025-03-12_14h14.48.442,Utility_discrimination_2024_2cat,2024.2.4,MacIntel,59.88023952,,,,,,,,1,"[0.5,0.5]","[0.924,0.383]",d,"[0.5488999209724305,0.6179726552964119]","[0.45110007902756954,0.3820273447035881]",306.0355,308.5817,1,s,1,1.0184,,-0.415072445,0.161433027,0.576505472,308.585,308.585,0,111,111,111,1,0.127676034,0.127676034,shape_difference3,1,,TRUE,,intensity,0.1,4.94066E-324,1.79769E+308,0.3,0.82,20,400,0.25,1,0.01,0.5,0.1,,,,,,,,,,,,,,,,,,,,,,,,,,,,,,,,,,,,,,,,,,,,,,,,,,,,,,,,,,,,,,,,,,,,,,,,,,,,,,,,,
,,,,,516600,001,2025-03-12_14h14.48.442,Utility_discrimination_2024_2cat,2024.2.4,MacIntel,59.88023952,,,,,,,,4,"[0.5,0.5]","[0,1]",s,"[0.3954314375592095,0.4566561045294126]","[0.6045685624407905,0.5433438954705874]",308.5861,310.9159,1,d,1,0.8129,,-0.068740186,0.50207712,0.570817306,310.9206,310.9206,0,112,112,112,1,-0.11316944,-0.11316944,shape_difference1,1,,TRUE,,intensity,0.1,4.94066E-324,1.79769E+308,0.3,0.82,20,400,0.25,1,0.01,0.5,0.1,,,,,,,,,,,,,,,,,,,,,,,,,,,,,,,,,,,,,,,,,,,,,,,,,,,,,,,,,,,,,,,,,,,,,,,,,,,,,,,,,
,,,,,516600,001,2025-03-12_14h14.48.442,Utility_discrimination_2024_2cat,2024.2.4,MacIntel,59.88023952,,,,,,,,0,"[0.5,0.5]","[1,0]",d,"[0.5,0.7333105571856209]","[0.5,0.2666894428143791]",310.922,313.215,1,d,1,0.7773,,-0.476344817,0.110156202,0.586501019,313.2175,313.2175,0,113,113,113,1,0.233310557,0.233310557,shape_difference4,1,,TRUE,,intensity,0.1,4.94066E-324,1.79769E+308,0.3,0.82,20,400,0.25,1,0.01,0.5,0.1,,,,,,,,,,,,,,,,,,,,,,,,,,,,,,,,,,,,,,,,,,,,,,,,,,,,,,,,,,,,,,,,,,,,,,,,,,,,,,,,,
,,,,,516600,001,2025-03-12_14h14.48.442,Utility_discrimination_2024_2cat,2024.2.4,MacIntel,59.88023952,,,,,,,,4,"[0.5,0.5]","[0,1]",d,"[0.338009240523084,0.5]","[0.661990759476916,0.5]",313.2187,316.0818,1,s,1,1.3396,,-0.076861072,0.486933535,0.563794608,316.0842,316.0842,0,114,114,114,1,-0.161990759,-0.161990759,shape_difference0,1,,TRUE,,intensity,0.1,4.94066E-324,1.79769E+308,0.3,0.82,20,400,0.25,1,0.01,0.5,0.1,,,,,,,,,,,,,,,,,,,,,,,,,,,,,,,,,,,,,,,,,,,,,,,,,,,,,,,,,,,,,,,,,,,,,,,,,,,,,,,,,
,,,,,516600,001,2025-03-12_14h14.48.442,Utility_discrimination_2024_2cat,2024.2.4,MacIntel,59.88023952,,,,,,,,2,"[0.5,0.5]","[0.707,0.707]",s,"[0.5,0.7175866863615057]","[0.5,0.28241331363849437]",316.0855,318.9318,1,d,1,1.3277,,-0.252315503,0.317070109,0.569385612,318.9354,318.9354,0,115,115,115,1,0.217586686,0.217586686,shape_difference4,1,,TRUE,,intensity,0.1,4.94066E-324,1.79769E+308,0.3,0.82,20,400,0.25,1,0.01,0.5,0.1,,,,,,,,,,,,,,,,,,,,,,,,,,,,,,,,,,,,,,,,,,,,,,,,,,,,,,,,,,,,,,,,,,,,,,,,,,,,,,,,,
,,,,,516600,001,2025-03-12_14h14.48.442,Utility_discrimination_2024_2cat,2024.2.4,MacIntel,59.88023952,,,,,,,,3,"[0.5,0.5]","[0.383,0.924]",d,"[0.5335514843149035,0.5335514843149035]","[0.46644851568509654,0.46644851568509654]",318.9366,321.6142,1,s,1,1.1524,,-0.178183238,0.379016708,0.557199946,321.6174,321.6174,0,116,116,116,1,0.047456131,0.047456131,shape_difference2,1,,TRUE,,intensity,0.1,4.94066E-324,1.79769E+308,0.3,0.82,20,400,0.25,1,0.01,0.5,0.1,,,,,,,,,,,,,,,,,,,,,,,,,,,,,,,,,,,,,,,,,,,,,,,,,,,,,,,,,,,,,,,,,,,,,,,,,,,,,,,,,
,,,,,516600,001,2025-03-12_14h14.48.442,Utility_discrimination_2024_2cat,2024.2.4,MacIntel,59.88023952,,,,,,,,1,"[0.5,0.5]","[0.924,0.383]",s,"[0.5429708582153555,0.6036685978876983]","[0.45702914178464454,0.39633140211230167]",321.6186,324.2319,1,s,1,1.0848,,-0.430115887,0.141404231,0.571520118,324.2353,324.2354,0,117,117,117,1,0.112195452,0.112195452,shape_difference3,1,,TRUE,,intensity,0.1,4.94066E-324,1.79769E+308,0.3,0.82,20,400,0.25,1,0.01,0.5,0.1,,,,,,,,,,,,,,,,,,,,,,,,,,,,,,,,,,,,,,,,,,,,,,,,,,,,,,,,,,,,,,,,,,,,,,,,,,,,,,,,,
,,,,,516600,001,2025-03-12_14h14.48.442,Utility_discrimination_2024_2cat,2024.2.4,MacIntel,59.88023952,,,,,,,,0,"[0.5,0.5]","[1,0]",s,"[0.38273410516959394,0.4513930327705135]","[0.6172658948304061,0.5486069672294865]",324.2364,326.6986,1,s,1,0.9326,,-0.485081037,0.090792813,0.57587385,326.7013,326.7014,0,118,118,118,1,-0.126911142,-0.126911142,shape_difference1,1,,TRUE,,intensity,0.1,4.94066E-324,1.79769E+308,0.3,0.82,20,400,0.25,1,0.01,0.5,0.1,,,,,,,,,,,,,,,,,,,,,,,,,,,,,,,,,,,,,,,,,,,,,,,,,,,,,,,,,,,,,,,,,,,,,,,,,,,,,,,,,
,,,,,516600,001,2025-03-12_14h14.48.442,Utility_discrimination_2024_2cat,2024.2.4,MacIntel,59.88023952,,,,,,,,1,"[0.5,0.5]","[0.924,0.383]",s,"[0.3220807945065133,0.5]","[0.6779192054934867,0.5]",326.7025,328.9317,0,d,0,0.7039,,-0.442839187,0.118118063,0.560957249,328.9348,328.9348,0,119,119,119,1,-0.177919205,-0.177919205,shape_difference0,1,,TRUE,,intensity,0.1,4.94066E-324,1.79769E+308,0.3,0.82,20,400,0.25,1,0.01,0.5,0.1,,,,,,,,,,,,,,,,,,,,,,,,,,,,,,,,,,,,,,,,,,,,,,,,,,,,,,,,,,,,,,,,,,,,,,,,,,,,,,,,,
,,,,,516600,001,2025-03-12_14h14.48.442,Utility_discrimination_2024_2cat,2024.2.4,MacIntel,59.88023952,,,,,,,,3,"[0.5,0.5]","[0.383,0.924]",s,"[0.3704770194828024,0.44631244422284994]","[0.6295229805171976,0.5536875557771501]",328.936,331.1651,1,s,1,0.7122,,-0.185039579,0.362833315,0.547872894,331.1673,331.1673,0,120,120,120,1,-0.140176386,-0.140176386,shape_difference1,1,,TRUE,,intensity,0.1,4.94066E-324,1.79769E+308,0.3,0.82,20,400,0.25,1,0.01,0.5,0.1,,,,,,,,,,,,,,,,,,,,,,,,,,,,,,,,,,,,,,,,,,,,,,,,,,,,,,,,,,,,,,,,,,,,,,,,,,,,,,,,,
,,,,,516600,001,2025-03-12_14h14.48.442,Utility_discrimination_2024_2cat,2024.2.4,MacIntel,59.88023952,,,,,,,,4,"[0.5,0.5]","[0,1]",s,"[0.537138073089168,0.5895968134057215]","[0.4628619269108319,0.41040318659427855]",331.1684,333.8307,1,d,1,1.1338,,-0.083919449,0.471421254,0.555340703,333.8337,333.8337,0,121,121,121,1,0.096966248,0.096966248,shape_difference3,1,,TRUE,,intensity,0.1,4.94066E-324,1.79769E+308,0.3,0.82,20,400,0.25,1,0.01,0.5,0.1,,,,,,,,,,,,,,,,,,,,,,,,,,,,,,,,,,,,,,,,,,,,,,,,,,,,,,,,,,,,,,,,,,,,,,,,,,,,,,,,,
,,,,,516600,001,2025-03-12_14h14.48.442,Utility_discrimination_2024_2cat,2024.2.4,MacIntel,59.88023952,,,,,,,,2,"[0.5,0.5]","[0.707,0.707]",d,"[0.5,0.7014498160552081]","[0.5,0.298550183944792]",333.8348,336.5974,1,s,1,1.2343,,-0.262178916,0.294741759,0.556920674,336.6,336.6001,0,122,122,122,1,0.201449816,0.201449816,shape_difference4,1,,TRUE,,intensity,0.1,4.94066E-324,1.79769E+308,0.3,0.82,20,400,0.25,1,0.01,0.5,0.1,,,,,,,,,,,,,,,,,,,,,,,,,,,,,,,,,,,,,,,,,,,,,,,,,,,,,,,,,,,,,,,,,,,,,,,,,,,,,,,,,
,,,,,516600,001,2025-03-12_14h14.48.442,Utility_discrimination_2024_2cat,2024.2.4,MacIntel,59.88023952,,,,,,,,0,"[0.5,0.5]","[1,0]",s,"[0.52323331348576,0.52323331348576]","[0.47676668651424003,0.47676668651424003]",336.6012,339.3319,1,d,1,1.2013,,-0.416352202,0.156612699,0.572964901,339.3349,339.3349,0,123,123,123,1,0.03286183,0.03286183,shape_difference2,1,,TRUE,,intensity,0.1,4.94066E-324,1.79769E+308,0.3,0.82,20,400,0.25,1,0.01,0.5,0.1,,,,,,,,,,,,,,,,,,,,,,,,,,,,,,,,,,,,,,,,,,,,,,,,,,,,,,,,,,,,,,,,,,,,,,,,,,,,,,,,,
,,,,,516600,001,2025-03-12_14h14.48.442,Utility_discrimination_2024_2cat,2024.2.4,MacIntel,59.88023952,,,,,,,,4,"[0.5,0.5]","[0,1]",d,"[0.37944361881689587,0.5]","[0.6205563811831041,0.5]",339.336,342.3648,1,s,1,1.5066,,-0.090126247,0.453905921,0.544032168,342.3668,342.3668,0,124,124,124,1,-0.120556381,-0.120556381,shape_difference0,1,,TRUE,,intensity,0.1,4.94066E-324,1.79769E+308,0.3,0.82,20,400,0.25,1,0.01,0.5,0.1,,,,,,,,,,,,,,,,,,,,,,,,,,,,,,,,,,,,,,,,,,,,,,,,,,,,,,,,,,,,,,,,,,,,,,,,,,,,,,,,,
,,,,,516600,001,2025-03-12_14h14.48.442,Utility_discrimination_2024_2cat,2024.2.4,MacIntel,59.88023952,,,,,,,,0,"[0.5,0.5]","[1,0]",s,"[0.5,0.6881209218402204]","[0.5,0.3118790781597795]",342.3676,344.6141,0,s,0,0.7168,,-0.430264301,0.134991099,0.5652554,344.6178,344.6179,0,125,125,125,1,0.188120922,0.188120922,shape_difference4,1,,TRUE,,intensity,0.1,4.94066E-324,1.79769E+308,0.3,0.82,20,400,0.25,1,0.01,0.5,0.1,,,,,,,,,,,,,,,,,,,,,,,,,,,,,,,,,,,,,,,,,,,,,,,,,,,,,,,,,,,,,,,,,,,,,,,,,,,,,,,,,
,,,,,516600,001,2025-03-12_14h14.48.442,Utility_discrimination_2024_2cat,2024.2.4,MacIntel,59.88023952,,,,,,,,3,"[0.5,0.5]","[0.383,0.924]",d,"[0.36588096718346175,0.5]","[0.6341190328165383,0.5]",344.6189,347.0316,0,d,0,0.8935,,-0.191093803,0.344432032,0.535525835,347.0348,347.0349,0,126,126,126,1,-0.134119033,-0.134119033,shape_difference0,1,,TRUE,,intensity,0.1,4.94066E-324,1.79769E+308,0.3,0.82,20,400,0.25,1,0.01,0.5,0.1,,,,,,,,,,,,,,,,,,,,,,,,,,,,,,,,,,,,,,,,,,,,,,,,,,,,,,,,,,,,,,,,,,,,,,,,,,,,,,,,,
,,,,,516600,001,2025-03-12_14h14.48.442,Utility_discrimination_2024_2cat,2024.2.4,MacIntel,59.88023952,,,,,,,,2,"[0.5,0.5]","[0.707,0.707]",s,"[0.5323234161411667,0.5779812963823447]","[0.4676765838588333,0.42201870361765526]",347.0359,349.8474,0,d,0,1.2902,,-0.270643199,0.280801118,0.551444316,349.8496,349.8496,0,127,127,127,1,0.084395342,0.084395342,shape_difference3,1,,TRUE,,intensity,0.1,4.94066E-324,1.79769E+308,0.3,0.82,20,400,0.25,1,0.01,0.5,0.1,,,,,,,,,,,,,,,,,,,,,,,,,,,,,,,,,,,,,,,,,,,,,,,,,,,,,,,,,,,,,,,,,,,,,,,,,,,,,,,,,
,,,,,516600,001,2025-03-12_14h14.48.442,Utility_discrimination_2024_2cat,2024.2.4,MacIntel,59.88023952,,,,,,,,1,"[0.5,0.5]","[0.924,0.383]",s,"[0.5127857244042795,0.5127857244042795]","[0.48721427559572045,0.48721427559572045]",349.8506,352.0147,0,s,0,0.6431,,-0.453695568,0.096281555,0.549977123,352.0169,352.0169,0,128,128,128,1,0.018084476,0.018084476,shape_difference2,1,,TRUE,,intensity,0.1,4.94066E-324,1.79769E+308,0.3,0.82,20,400,0.25,1,0.01,0.5,0.1,,,,,,,,,,,,,,,,,,,,,,,,,,,,,,,,,,,,,,,,,,,,,,,,,,,,,,,,,,,,,,,,,,,,,,,,,,,,,,,,,
,,,,,516600,001,2025-03-12_14h14.48.442,Utility_discrimination_2024_2cat,2024.2.4,MacIntel,59.88023952,,,,,,,,1,"[0.5,0.5]","[0.924,0.383]",d,"[0.35848236364328945,0.4413406334149133]","[0.6415176363567106,0.5586593665850867]",352.0176,354.1816,1,d,1,0.6424,,-0.464224222,0.084089381,0.548313604,354.1842,354.1843,0,129,129,129,1,-0.153157615,-0.153157615,shape_difference1,1,,TRUE,,intensity,0.1,4.94066E-324,1.79769E+308,0.3,0.82,20,400,0.25,1,0.01,0.5,0.1,,,,,,,,,,,,,,,,,,,,,,,,,,,,,,,,,,,,,,,,,,,,,,,,,,,,,,,,,,,,,,,,,,,,,,,,,,,,,,,,,
,,,,,516600,001,2025-03-12_14h14.48.442,Utility_discrimination_2024_2cat,2024.2.4,MacIntel,59.88023952,,,,,,,,0,"[0.5,0.5]","[1,0]",d,"[0.3459617538009088,0.4361508135343594]","[0.6540382461990912,0.5638491864656406]",354.1851,356.6807,1,s,1,0.97,,-0.366571349,0.194114778,0.560686128,356.6831,356.6831,0,130,130,130,1,-0.166708059,-0.166708059,shape_difference1,1,,TRUE,,intensity,0.1,4.94066E-324,1.79769E+308,0.3,0.82,20,400,0.25,1,0.01,0.5,0.1,,,,,,,,,,,,,,,,,,,,,,,,,,,,,,,,,,,,,,,,,,,,,,,,,,,,,,,,,,,,,,,,,,,,,,,,,,,,,,,,,
,,,,,516600,001,2025-03-12_14h14.48.442,Utility_discrimination_2024_2cat,2024.2.4,MacIntel,59.88023952,,,,,,,,4,"[0.5,0.5]","[0,1]",s,"[0.4289198815829153,0.5]","[0.5710801184170847,0.5]",356.6841,359.5651,1,s,1,1.3497,,-0.040536072,0.502403779,0.542939851,359.5686,359.5686,0,131,131,131,1,-0.071080118,-0.071080118,shape_difference0,1,,TRUE,,intensity,0.1,4.94066E-324,1.79769E+308,0.3,0.82,20,400,0.25,1,0.01,0.5,0.1,,,,,,,,,,,,,,,,,,,,,,,,,,,,,,,,,,,,,,,,,,,,,,,,,,,,,,,,,,,,,,,,,,,,,,,,,,,,,,,,,
,,,,,516600,001,2025-03-12_14h14.48.442,Utility_discrimination_2024_2cat,2024.2.4,MacIntel,59.88023952,,,,,,,,3,"[0.5,0.5]","[0.383,0.924]",s,"[0.5,0.7467426031653688]","[0.5,0.2532573968346312]",359.5696,361.8151,1,s,1,0.7166,,-0.142529672,0.3942137,0.536743372,361.8187,361.8187,0,132,132,132,1,0.246742603,0.246742603,shape_difference4,1,,TRUE,,intensity,0.1,4.94066E-324,1.79769E+308,0.3,0.82,20,400,0.25,1,0.01,0.5,0.1,,,,,,,,,,,,,,,,,,,,,,,,,,,,,,,,,,,,,,,,,,,,,,,,,,,,,,,,,,,,,,,,,,,,,,,,,,,,,,,,,
,,,,,516600,001,2025-03-12_14h14.48.442,Utility_discrimination_2024_2cat,2024.2.4,MacIntel,59.88023952,,,,,,,,2,"[0.5,0.5]","[0.707,0.707]",s,"[0.5542091368948616,0.6307813119865591]","[0.4457908631051384,0.36921868801344093]",361.8201,364.0483,1,s,1,0.7017,,-0.204728951,0.339073384,0.543802335,364.051,364.051,0,133,133,133,1,0.141538216,0.141538216,shape_difference3,1,,TRUE,,intensity,0.1,4.94066E-324,1.79769E+308,0.3,0.82,20,400,0.25,1,0.01,0.5,0.1,,,,,,,,,,,,,,,,,,,,,,,,,,,,,,,,,,,,,,,,,,,,,,,,,,,,,,,,,,,,,,,,,,,,,,,,,,,,,,,,,
,,,,,516600,001,2025-03-12_14h14.48.442,Utility_discrimination_2024_2cat,2024.2.4,MacIntel,59.88023952,,,,,,,,0,"[0.5,0.5]","[1,0]",s,"[0.5504471339569432,0.5504471339569432]","[0.4495528660430567,0.4495528660430567]",364.052,366.5651,1,s,1,0.9837,,-0.374627294,0.17962454,0.554251833,366.5693,366.5693,0,134,134,134,1,0.071353796,0.071353796,shape_difference2,1,,TRUE,,intensity,0.1,4.94066E-324,1.79769E+308,0.3,0.82,20,400,0.25,1,0.01,0.5,0.1,,,,,,,,,,,,,,,,,,,,,,,,,,,,,,,,,,,,,,,,,,,,,,,,,,,,,,,,,,,,,,,,,,,,,,,,,,,,,,,,,
,,,,,516600,001,2025-03-12_14h14.48.442,Utility_discrimination_2024_2cat,2024.2.4,MacIntel,59.88023952,,,,,,,,1,"[0.5,0.5]","[0.924,0.383]",s,"[0.41372672871174815,0.5]","[0.5862732712882519,0.5]",366.5704,368.5322,1,d,1,0.4447,,-0.473336269,0.070561496,0.543897766,368.5353,368.5353,0,135,135,135,1,-0.086273271,-0.086273271,shape_difference0,1,,TRUE,,intensity,0.1,4.94066E-324,1.79769E+308,0.3,0.82,20,400,0.25,1,0.01,0.5,0.1,,,,,,,,,,,,,,,,,,,,,,,,,,,,,,,,,,,,,,,,,,,,,,,,,,,,,,,,,,,,,,,,,,,,,,,,,,,,,,,,,
,,,,,516600,001,2025-03-12_14h14.48.442,Utility_discrimination_2024_2cat,2024.2.4,MacIntel,59.88023952,,,,,,,,2,"[0.5,0.5]","[0.707,0.707]",d,"[0.33321130629157913,0.430865725443371]","[0.6667886937084209,0.569134274556629]",368.5363,370.7974,1,d,1,0.7381,,-0.218751192,0.315146641,0.533897833,370.7997,370.7997,0,136,136,136,1,-0.180507244,-0.180507244,shape_difference1,1,,TRUE,,intensity,0.1,4.94066E-324,1.79769E+308,0.3,0.82,20,400,0.25,1,0.01,0.5,0.1,,,,,,,,,,,,,,,,,,,,,,,,,,,,,,,,,,,,,,,,,,,,,,,,,,,,,,,,,,,,,,,,,,,,,,,,,,,,,,,,,
,,,,,516600,001,2025-03-12_14h14.48.442,Utility_discrimination_2024_2cat,2024.2.4,MacIntel,59.88023952,,,,,,,,3,"[0.5,0.5]","[0.383,0.924]",d,"[0.5415482382806908,0.5415482382806908]","[0.45845176171930924,0.45845176171930924]",370.8005,373.0817,1,d,1,0.7505,,-0.152611031,0.381354508,0.533965538,373.085,373.0851,0,137,137,137,1,0.058766957,0.058766957,shape_difference2,1,,TRUE,,intensity,0.1,4.94066E-324,1.79769E+308,0.3,0.82,20,400,0.25,1,0.01,0.5,0.1,,,,,,,,,,,,,,,,,,,,,,,,,,,,,,,,,,,,,,,,,,,,,,,,,,,,,,,,,,,,,,,,,,,,,,,,,,,,,,,,,
,,,,,516600,001,2025-03-12_14h14.48.442,Utility_discrimination_2024_2cat,2024.2.4,MacIntel,59.88023952,,,,,,,,4,"[0.5,0.5]","[0,1]",d,"[0.5490878990335388,0.6184261585038899]","[0.45091210096646117,0.38157384149611007]",373.0861,375.4141,1,d,1,0.8003,,-0.051000213,0.488559699,0.539559912,375.4166,375.4166,0,138,138,138,1,0.128166838,0.128166838,shape_difference3,1,,TRUE,,intensity,0.1,4.94066E-324,1.79769E+308,0.3,0.82,20,400,0.25,1,0.01,0.5,0.1,,,,,,,,,,,,,,,,,,,,,,,,,,,,,,,,,,,,,,,,,,,,,,,,,,,,,,,,,,,,,,,,,,,,,,,,,,,,,,,,,
,,,,,516600,001,2025-03-12_14h14.48.442,Utility_discrimination_2024_2cat,2024.2.4,MacIntel,59.88023952,,,,,,,,2,"[0.5,0.5]","[0.707,0.707]",d,"[0.5,0.7331111145893516]","[0.5,0.26688888541064837]",375.4177,378.0317,0,d,0,1.0846,,-0.230640733,0.294836916,0.525477649,378.0342,378.0342,0,139,139,139,1,0.233111115,0.233111115,shape_difference4,1,,TRUE,,intensity,0.1,4.94066E-324,1.79769E+308,0.3,0.82,20,400,0.25,1,0.01,0.5,0.1,,,,,,,,,,,,,,,,,,,,,,,,,,,,,,,,,,,,,,,,,,,,,,,,,,,,,,,,,,,,,,,,,,,,,,,,,,,,,,,,,
,,,,,516600,001,2025-03-12_14h14.48.442,Utility_discrimination_2024_2cat,2024.2.4,MacIntel,59.88023952,,,,,,,,4,"[0.5,0.5]","[0,1]",s,"[0.5328678540820209,0.5328678540820209]","[0.46713214591797914,0.46713214591797914]",378.0353,380.1983,1,s,1,0.633,,0.008424487,0.546728021,0.538303534,380.2007,380.2007,0,140,140,140,1,0.046489185,0.046489185,shape_difference2,1,,TRUE,,intensity,0.1,4.94066E-324,1.79769E+308,0.3,0.82,20,400,0.25,1,0.01,0.5,0.1,,,,,,,,,,,,,,,,,,,,,,,,,,,,,,,,,,,,,,,,,,,,,,,,,,,,,,,,,,,,,,,,,,,,,,,,,,,,,,,,,
,,,,,516600,001,2025-03-12_14h14.48.442,Utility_discrimination_2024_2cat,2024.2.4,MacIntel,59.88023952,,,,,,,,1,"[0.5,0.5]","[0.924,0.383]",s,"[0.5,0.7815723528547238]","[0.5,0.21842764714527618]",380.2017,382.5802,1,s,1,0.8585,,-0.481307765,0.05531694,0.536624705,382.5815,382.5815,0,141,141,141,1,0.281572353,0.281572353,shape_difference4,1,,TRUE,,intensity,0.1,4.94066E-324,1.79769E+308,0.3,0.82,20,400,0.25,1,0.01,0.5,0.1,,,,,,,,,,,,,,,,,,,,,,,,,,,,,,,,,,,,,,,,,,,,,,,,,,,,,,,,,,,,,,,,,,,,,,,,,,,,,,,,,
,,,,,516600,001,2025-03-12_14h14.48.442,Utility_discrimination_2024_2cat,2024.2.4,MacIntel,59.88023952,,,,,,,,3,"[0.5,0.5]","[0.383,0.924]",s,"[0.32005577130212315,0.42541272771505756]","[0.6799442286978769,0.5745872722849424]",382.5819,384.5816,1,s,1,0.4829,,-0.161261235,0.367088068,0.528349303,384.5841,384.5841,0,142,142,142,1,-0.194744836,-0.194744836,shape_difference1,1,,TRUE,,intensity,0.1,4.94066E-324,1.79769E+308,0.3,0.82,20,400,0.25,1,0.01,0.5,0.1,,,,,,,,,,,,,,,,,,,,,,,,,,,,,,,,,,,,,,,,,,,,,,,,,,,,,,,,,,,,,,,,,,,,,,,,,,,,,,,,,
,,,,,516600,001,2025-03-12_14h14.48.442,Utility_discrimination_2024_2cat,2024.2.4,MacIntel,59.88023952,,,,,,,,0,"[0.5,0.5]","[1,0]",s,"[0.5438752325048348,0.6058504303771993]","[0.45612476749516523,0.3941495696228007]",384.5851,386.6483,1,s,1,0.5346,,-0.381637489,0.163451728,0.545089216,386.6515,386.6515,0,143,143,143,1,0.114556743,0.114556743,shape_difference3,1,,TRUE,,intensity,0.1,4.94066E-324,1.79769E+308,0.3,0.82,20,400,0.25,1,0.01,0.5,0.1,,,,,,,,,,,,,,,,,,,,,,,,,,,,,,,,,,,,,,,,,,,,,,,,,,,,,,,,,,,,,,,,,,,,,,,,,,,,,,,,,
,,,,,516600,001,2025-03-12_14h14.48.442,Utility_discrimination_2024_2cat,2024.2.4,MacIntel,59.88023952,,,,,,,,1,"[0.5,0.5]","[0.924,0.383]",s,"[0.39845930952351405,0.5]","[0.601540690476486,0.5]",386.6526,389.015,1,s,1,0.8327,,-0.488359103,0.037893229,0.526252331,389.0177,389.0177,0,144,144,144,1,-0.10154069,-0.10154069,shape_difference0,1,,TRUE,,intensity,0.1,4.94066E-324,1.79769E+308,0.3,0.82,20,400,0.25,1,0.01,0.5,0.1,,,,,,,,,,,,,,,,,,,,,,,,,,,,,,,,,,,,,,,,,,,,,,,,,,,,,,,,,,,,,,,,,,,,,,,,,,,,,,,,,
,,,,,516600,001,2025-03-12_14h14.48.442,Utility_discrimination_2024_2cat,2024.2.4,MacIntel,59.88023952,,,,,,,,2,"[0.5,0.5]","[0.707,0.707]",s,"[0.3081095407056368,0.42046098927517195]","[0.6918904592943632,0.579539010724828]",389.0188,391.1648,1,d,1,0.628,,-0.241958393,0.282503456,0.52446185,391.1683,391.1683,0,145,145,145,1,-0.207673657,-0.207673657,shape_difference1,1,,TRUE,,intensity,0.1,4.94066E-324,1.79769E+308,0.3,0.82,20,400,0.25,1,0.01,0.5,0.1,,,,,,,,,,,,,,,,,,,,,,,,,,,,,,,,,,,,,,,,,,,,,,,,,,,,,,,,,,,,,,,,,,,,,,,,,,,,,,,,,
,,,,,516600,001,2025-03-12_14h14.48.442,Utility_discrimination_2024_2cat,2024.2.4,MacIntel,59.88023952,,,,,,,,4,"[0.5,0.5]","[0,1]",d,"[0.5238720760489072,0.5238720760489072]","[0.4761279239510928,0.4761279239510928]",391.1693,393.5474,1,s,1,0.85,,0.0033195,0.525216124,0.521896624,393.5508,393.5508,0,146,146,146,1,0.033765313,0.033765313,shape_difference2,1,,TRUE,,intensity,0.1,4.94066E-324,1.79769E+308,0.3,0.82,20,400,0.25,1,0.01,0.5,0.1,,,,,,,,,,,,,,,,,,,,,,,,,,,,,,,,,,,,,,,,,,,,,,,,,,,,,,,,,,,,,,,,,,,,,,,,,,,,,,,,,
,,,,,516600,001,2025-03-12_14h14.48.442,Utility_discrimination_2024_2cat,2024.2.4,MacIntel,59.88023952,,,,,,,,0,"[0.5,0.5]","[1,0]",s,"[0.5,0.7693866473557649]","[0.5,0.23061335264423516]",393.553,396.2149,1,d,1,1.1322,,-0.387806088,0.145108666,0.532914754,396.2178,396.2178,0,147,147,147,1,0.269386647,0.269386647,shape_difference4,1,,TRUE,,intensity,0.1,4.94066E-324,1.79769E+308,0.3,0.82,20,400,0.25,1,0.01,0.5,0.1,,,,,,,,,,,,,,,,,,,,,,,,,,,,,,,,,,,,,,,,,,,,,,,,,,,,,,,,,,,,,,,,,,,,,,,,,,,,,,,,,
,,,,,516600,001,2025-03-12_14h14.48.442,Utility_discrimination_2024_2cat,2024.2.4,MacIntel,59.88023952,,,,,,,,3,"[0.5,0.5]","[0.383,0.924]",d,"[0.386089104643186,0.5]","[0.613910895356814,0.5]",396.2191,398.9151,0,d,0,1.1666,,-0.168750505,0.351021144,0.519771649,398.9187,398.9188,0,148,148,148,1,-0.113910895,-0.113910895,shape_difference0,1,,TRUE,,intensity,0.1,4.94066E-324,1.79769E+308,0.3,0.82,20,400,0.25,1,0.01,0.5,0.1,,,,,,,,,,,,,,,,,,,,,,,,,,,,,,,,,,,,,,,,,,,,,,,,,,,,,,,,,,,,,,,,,,,,,,,,,,,,,,,,,
,,,,,516600,001,2025-03-12_14h14.48.442,Utility_discrimination_2024_2cat,2024.2.4,MacIntel,59.88023952,,,,,,,,3,"[0.5,0.5]","[0.383,0.924]",s,"[0.5385028585589623,0.5928894028942068]","[0.46149714144103765,0.4071105971057932]",398.9199,401.214,1,d,1,0.7656,,-0.175294253,0.332679089,0.507973342,401.2169,401.2169,0,149,149,149,1,0.100529657,0.100529657,shape_difference3,1,,TRUE,,intensity,0.1,4.94066E-324,1.79769E+308,0.3,0.82,20,400,0.25,1,0.01,0.5,0.1,,,,,,,,,,,,,,,,,,,,,,,,,,,,,,,,,,,,,,,,,,,,,,,,,,,,,,,,,,,,,,,,,,,,,,,,,,,,,,,,,
,,,,,516600,001,2025-03-12_14h14.48.442,Utility_discrimination_2024_2cat,2024.2.4,MacIntel,59.88023952,,,,,,,,1,"[0.5,0.5]","[0.924,0.383]",d,"[0.5341865403792291,0.5824761444135971]","[0.4658134596207709,0.4175238555864029]",401.2188,403.2982,1,d,1,0.5529,,-0.494667406,0.017724269,0.512391675,403.3006,403.3007,0,150,150,150,1,0.089259897,0.089259897,shape_difference3,1,,TRUE,,intensity,0.1,4.94066E-324,1.79769E+308,0.3,0.82,20,400,0.25,1,0.01,0.5,0.1,,,,,,,,,,,,,,,,,,,,,,,,,,,,,,,,,,,,,,,,,,,,,,,,,,,,,,,,,,,,,,,,,,,,,,,,,,,,,,,,,
,,,,,516600,001,2025-03-12_14h14.48.442,Utility_discrimination_2024_2cat,2024.2.4,MacIntel,59.88023952,,,,,,,,2,"[0.5,0.5]","[0.707,0.707]",d,"[0.29747490614554506,0.4160529102313244]","[0.7025250938544549,0.5839470897686756]",403.3018,406.0148,1,s,1,1.1949,,-0.251625369,0.268869758,0.520495127,406.0179,406.0179,0,151,151,151,1,-0.219183002,-0.219183002,shape_difference1,1,,TRUE,,intensity,0.1,4.94066E-324,1.79769E+308,0.3,0.82,20,400,0.25,1,0.01,0.5,0.1,,,,,,,,,,,,,,,,,,,,,,,,,,,,,,,,,,,,,,,,,,,,,,,,,,,,,,,,,,,,,,,,,,,,,,,,,,,,,,,,,
,,,,,516600,001,2025-03-12_14h14.48.442,Utility_discrimination_2024_2cat,2024.2.4,MacIntel,59.88023952,,,,,,,,0,"[0.5,0.5]","[1,0]",s,"[0.5147621500505629,0.5147621500505629]","[0.4852378499494371,0.4852378499494371]",406.019,408.4815,1,s,1,0.9331,,-0.33851309,0.194615472,0.533128562,408.484,408.4841,0,152,152,152,1,0.020879986,0.020879986,shape_difference2,1,,TRUE,,intensity,0.1,4.94066E-324,1.79769E+308,0.3,0.82,20,400,0.25,1,0.01,0.5,0.1,,,,,,,,,,,,,,,,,,,,,,,,,,,,,,,,,,,,,,,,,,,,,,,,,,,,,,,,,,,,,,,,,,,,,,,,,,,,,,,,,
,,,,,516600,001,2025-03-12_14h14.48.442,Utility_discrimination_2024_2cat,2024.2.4,MacIntel,59.88023952,,,,,,,,4,"[0.5,0.5]","[0,1]",s,"[0.4422440919454047,0.5]","[0.5577559080545953,0.5]",408.486,410.7647,1,d,1,0.7522,,-0.004180351,0.500102249,0.504282601,410.7674,410.7674,0,153,153,153,1,-0.057755908,-0.057755908,shape_difference0,1,,TRUE,,intensity,0.1,4.94066E-324,1.79769E+308,0.3,0.82,20,400,0.25,1,0.01,0.5,0.1,,,,,,,,,,,,,,,,,,,,,,,,,,,,,,,,,,,,,,,,,,,,,,,,,,,,,,,,,,,,,,,,,,,,,,,,,,,,,,,,,
,,,,,516600,001,2025-03-12_14h14.48.442,Utility_discrimination_2024_2cat,2024.2.4,MacIntel,59.88023952,,,,,,,,2,"[0.5,0.5]","[0.707,0.707]",d,"[0.5,0.7576208204885461]","[0.5,0.24237917951145393]",410.7686,413.5649,1,d,1,1.2779,,-0.259951068,0.253574041,0.513525108,413.568,413.5681,0,154,154,154,1,0.25762082,0.25762082,shape_difference4,1,,TRUE,,intensity,0.1,4.94066E-324,1.79769E+308,0.3,0.82,20,400,0.25,1,0.01,0.5,0.1,,,,,,,,,,,,,,,,,,,,,,,,,,,,,,,,,,,,,,,,,,,,,,,,,,,,,,,,,,,,,,,,,,,,,,,,,,,,,,,,,
,,,,,516600,001,2025-03-12_14h14.48.442,Utility_discrimination_2024_2cat,2024.2.4,MacIntel,59.88023952,,,,,,,,4,"[0.5,0.5]","[0,1]",d,"[0.5054220335162645,0.5054220335162645]","[0.49457796648373553,0.49457796648373553]",413.5692,416.264,0,s,0,1.1673,,-0.017190113,0.488785398,0.505975511,416.2667,416.2668,0,155,155,155,1,0.007669071,0.007669071,shape_difference2,1,,TRUE,,intensity,0.1,4.94066E-324,1.79769E+308,0.3,0.82,20,400,0.25,1,0.01,0.5,0.1,,,,,,,,,,,,,,,,,,,,,,,,,,,,,,,,,,,,,,,,,,,,,,,,,,,,,,,,,,,,,,,,,,,,,,,,,,,,,,,,,
,,,,,516600,001,2025-03-12_14h14.48.442,Utility_discrimination_2024_2cat,2024.2.4,MacIntel,59.88023952,,,,,,,,1,"[0.5,0.5]","[0.924,0.383]",d,"[0.5,0.7461191466579592]","[0.5,0.2538808533420408]",416.2686,418.8315,1,s,1,1.0337,,-0.501171476,-0.002165125,0.499006351,418.8338,418.8339,0,156,156,156,1,0.246119147,0.246119147,shape_difference4,1,,TRUE,,intensity,0.1,4.94066E-324,1.79769E+308,0.3,0.82,20,400,0.25,1,0.01,0.5,0.1,,,,,,,,,,,,,,,,,,,,,,,,,,,,,,,,,,,,,,,,,,,,,,,,,,,,,,,,,,,,,,,,,,,,,,,,,,,,,,,,,
,,,,,516600,001,2025-03-12_14h14.48.442,Utility_discrimination_2024_2cat,2024.2.4,MacIntel,59.88023952,,,,,,,,3,"[0.5,0.5]","[0.383,0.924]",s,"[0.2872352681478381,0.4118085581175563]","[0.7127647318521619,0.5881914418824438]",418.835,421.0649,1,d,1,0.701,,-0.181065255,0.311484452,0.492549707,421.0686,421.0686,0,157,157,157,1,-0.230264861,-0.230264861,shape_difference1,1,,TRUE,,intensity,0.1,4.94066E-324,1.79769E+308,0.3,0.82,20,400,0.25,1,0.01,0.5,0.1,,,,,,,,,,,,,,,,,,,,,,,,,,,,,,,,,,,,,,,,,,,,,,,,,,,,,,,,,,,,,,,,,,,,,,,,,,,,,,,,,
,,,,,516600,001,2025-03-12_14h14.48.442,Utility_discrimination_2024_2cat,2024.2.4,MacIntel,59.88023952,,,,,,,,0,"[0.5,0.5]","[1,0]",d,"[0.530126431603633,0.572680999482394]","[0.46987356839636696,0.4273190005176059]",421.0708,423.8143,1,s,1,1.2272,,-0.348929783,0.181697925,0.530627708,423.817,423.817,0,158,158,158,1,0.07865909,0.07865909,shape_difference3,1,,TRUE,,intensity,0.1,4.94066E-324,1.79769E+308,0.3,0.82,20,400,0.25,1,0.01,0.5,0.1,,,,,,,,,,,,,,,,,,,,,,,,,,,,,,,,,,,,,,,,,,,,,,,,,,,,,,,,,,,,,,,,,,,,,,,,,,,,,,,,,
,,,,,516600,001,2025-03-12_14h14.48.442,Utility_discrimination_2024_2cat,2024.2.4,MacIntel,59.88023952,,,,,,,,2,"[0.5,0.5]","[0.707,0.707]",s,"[0.42907143047107754,0.5]","[0.5709285695289225,0.5]",423.8192,426.0478,1,s,1,0.7092,,-0.198553714,0.294369373,0.492923087,426.0501,426.0501,0,159,159,159,1,-0.07092857,-0.07092857,shape_difference0,1,,TRUE,,intensity,0.1,4.94066E-324,1.79769E+308,0.3,0.82,20,400,0.25,1,0.01,0.5,0.1,,,,,,,,,,,,,,,,,,,,,,,,,,,,,,,,,,,,,,,,,,,,,,,,,,,,,,,,,,,,,,,,,,,,,,,,,,,,,,,,,
,,,,,516600,001,2025-03-12_14h14.48.442,Utility_discrimination_2024_2cat,2024.2.4,MacIntel,59.88023952,,,,,,,,4,"[0.5,0.5]","[0,1]",s,"[0.5394391741876406,0.5394391741876406]","[0.46056082581235935,0.46056082581235935]",426.0509,428.1813,1,s,1,0.6106,,-0.02955389,0.476627062,0.506180953,428.1834,428.1834,0,160,160,160,1,0.055783839,0.055783839,shape_difference2,1,,TRUE,,intensity,0.1,4.94066E-324,1.79769E+308,0.3,0.82,20,400,0.25,1,0.01,0.5,0.1,,,,,,,,,,,,,,,,,,,,,,,,,,,,,,,,,,,,,,,,,,,,,,,,,,,,,,,,,,,,,,,,,,,,,,,,,,,,,,,,,
,,,,,516600,001,2025-03-12_14h14.48.442,Utility_discrimination_2024_2cat,2024.2.4,MacIntel,59.88023952,,,,,,,,0,"[0.5,0.5]","[1,0]",s,"[0.5,0.7341877149538888]","[0.5,0.2658122850461112]",428.1845,430.7981,1,d,1,1.0869,,-0.357852525,0.167396847,0.525249373,430.8012,430.8013,0,161,161,161,1,0.234187715,0.234187715,shape_difference4,1,,TRUE,,intensity,0.1,4.94066E-324,1.79769E+308,0.3,0.82,20,400,0.25,1,0.01,0.5,0.1,,,,,,,,,,,,,,,,,,,,,,,,,,,,,,,,,,,,,,,,,,,,,,,,,,,,,,,,,,,,,,,,,,,,,,,,,,,,,,,,,
,,,,,516600,001,2025-03-12_14h14.48.442,Utility_discrimination_2024_2cat,2024.2.4,MacIntel,59.88023952,,,,,,,,3,"[0.5,0.5]","[0.383,0.924]",d,"[0.4156852191380665,0.5]","[0.5843147808619336,0.5]",430.8024,432.9815,0,s,0,0.6611,,-0.186202936,0.295184476,0.481387412,432.9836,432.9836,0,162,162,162,1,-0.084314781,-0.084314781,shape_difference0,1,,TRUE,,intensity,0.1,4.94066E-324,1.79769E+308,0.3,0.82,20,400,0.25,1,0.01,0.5,0.1,,,,,,,,,,,,,,,,,,,,,,,,,,,,,,,,,,,,,,,,,,,,,,,,,,,,,,,,,,,,,,,,,,,,,,,,,,,,,,,,,
,,,,,516600,001,2025-03-12_14h14.48.442,Utility_discrimination_2024_2cat,2024.2.4,MacIntel,59.88023952,,,,,,,,1,"[0.5,0.5]","[0.924,0.383]",d,"[0.5262295805190074,0.5632797190589107]","[0.47377041948099263,0.43672028094108933]",432.9848,435.7149,1,d,1,1.2016,,-0.516834157,-0.011807336,0.50502682,435.7172,435.7172,0,163,163,163,1,0.068484544,0.068484544,shape_difference3,1,,TRUE,,intensity,0.1,4.94066E-324,1.79769E+308,0.3,0.82,20,400,0.25,1,0.01,0.5,0.1,,,,,,,,,,,,,,,,,,,,,,,,,,,,,,,,,,,,,,,,,,,,,,,,,,,,,,,,,,,,,,,,,,,,,,,,,,,,,,,,,
,,,,,516600,001,2025-03-12_14h14.48.442,Utility_discrimination_2024_2cat,2024.2.4,MacIntel,59.88023952,,,,,,,,2,"[0.5,0.5]","[0.707,0.707]",d,"[0.27726098552873946,0.40767419638258356]","[0.7227390144712605,0.5923258036174165]",435.7182,438.0481,1,d,1,0.8045,,-0.208818187,0.283064077,0.491882265,438.0508,438.0509,0,164,164,164,1,-0.241059539,-0.241059539,shape_difference1,1,,TRUE,,intensity,0.1,4.94066E-324,1.79769E+308,0.3,0.82,20,400,0.25,1,0.01,0.5,0.1,,,,,,,,,,,,,,,,,,,,,,,,,,,,,,,,,,,,,,,,,,,,,,,,,,,,,,,,,,,,,,,,,,,,,,,,,,,,,,,,,
,,,,,516600,001,2025-03-12_14h14.48.442,Utility_discrimination_2024_2cat,2024.2.4,MacIntel,59.88023952,,,,,,,,4,"[0.5,0.5]","[0,1]",d,"[0.5317312590448899,0.5317312590448899]","[0.4682687409551101,0.4682687409551101]",438.052,441.0652,1,d,1,1.4951,,-0.040095838,0.463126899,0.503222737,441.0674,441.0674,0,165,165,165,1,0.044881555,0.044881555,shape_difference2,1,,TRUE,,intensity,0.1,4.94066E-324,1.79769E+308,0.3,0.82,20,400,0.25,1,0.01,0.5,0.1,,,,,,,,,,,,,,,,,,,,,,,,,,,,,,,,,,,,,,,,,,,,,,,,,,,,,,,,,,,,,,,,,,,,,,,,,,,,,,,,,
,,,,,516600,001,2025-03-12_14h14.48.442,Utility_discrimination_2024_2cat,2024.2.4,MacIntel,59.88023952,,,,,,,,3,"[0.5,0.5]","[0.383,0.924]",d,"[0.5,0.7221054890789205]","[0.5,0.27789451092107953]",441.0692,443.3648,1,d,1,0.7666,,-0.190820508,0.285368218,0.476188726,443.3683,443.3683,0,166,166,166,1,0.222105489,0.222105489,shape_difference4,1,,TRUE,,intensity,0.1,4.94066E-324,1.79769E+308,0.3,0.82,20,400,0.25,1,0.01,0.5,0.1,,,,,,,,,,,,,,,,,,,,,,,,,,,,,,,,,,,,,,,,,,,,,,,,,,,,,,,,,,,,,,,,,,,,,,,,,,,,,,,,,
,,,,,516600,001,2025-03-12_14h14.48.442,Utility_discrimination_2024_2cat,2024.2.4,MacIntel,59.88023952,,,,,,,,0,"[0.5,0.5]","[1,0]",d,"[0.5224486408944656,0.5541580788158911]","[0.47755135910553437,0.445841921184109]",443.3695,445.7148,1,d,1,0.817,,-0.296695557,0.212528917,0.509224475,445.7172,445.7172,0,167,167,167,1,0.058612639,0.058612639,shape_difference3,1,,TRUE,,intensity,0.1,4.94066E-324,1.79769E+308,0.3,0.82,20,400,0.25,1,0.01,0.5,0.1,,,,,,,,,,,,,,,,,,,,,,,,,,,,,,,,,,,,,,,,,,,,,,,,,,,,,,,,,,,,,,,,,,,,,,,,,,,,,,,,,
,,,,,516600,001,2025-03-12_14h14.48.442,Utility_discrimination_2024_2cat,2024.2.4,MacIntel,59.88023952,,,,,,,,1,"[0.5,0.5]","[0.924,0.383]",d,"[0.4640510879716217,0.5]","[0.5359489120283782,0.5]",445.7184,448.4481,1,s,1,1.1998,,-0.530262714,-0.022260513,0.508002201,448.4503,448.4504,0,168,168,168,1,-0.035948912,-0.035948912,shape_difference0,1,,TRUE,,intensity,0.1,4.94066E-324,1.79769E+308,0.3,0.82,20,400,0.25,1,0.01,0.5,0.1,,,,,,,,,,,,,,,,,,,,,,,,,,,,,,,,,,,,,,,,,,,,,,,,,,,,,,,,,,,,,,,,,,,,,,,,,,,,,,,,,
,,,,,516600,001,2025-03-12_14h14.48.442,Utility_discrimination_2024_2cat,2024.2.4,MacIntel,59.88023952,,,,,,,,2,"[0.5,0.5]","[0.707,0.707]",s,"[0.26743259332366476,0.4036003065400039]","[0.7325674066763352,0.5963996934599961]",448.4514,451.6314,1,s,1,1.654,,-0.221950366,0.270772027,0.492722393,451.6344,451.6344,0,169,169,169,1,-0.251696328,-0.251696328,shape_difference1,1,,TRUE,,intensity,0.1,4.94066E-324,1.79769E+308,0.3,0.82,20,400,0.25,1,0.01,0.5,0.1,,,,,,,,,,,,,,,,,,,,,,,,,,,,,,,,,,,,,,,,,,,,,,,,,,,,,,,,,,,,,,,,,,,,,,,,,,,,,,,,,
,,,,,516600,001,2025-03-12_14h14.48.442,Utility_discrimination_2024_2cat,2024.2.4,MacIntel,59.88023952,,,,,,,,4,"[0.5,0.5]","[0,1]",s,"[0.5237159593789958,0.5237159593789958]","[0.4762840406210042,0.4762840406210042]",451.6357,454.4314,0,s,0,1.2764,,-0.049149931,0.447932659,0.49708259,454.4338,454.4338,0,170,170,170,1,0.033544497,0.033544497,shape_difference2,1,,TRUE,,intensity,0.1,4.94066E-324,1.79769E+308,0.3,0.82,20,400,0.25,1,0.01,0.5,0.1,,,,,,,,,,,,,,,,,,,,,,,,,,,,,,,,,,,,,,,,,,,,,,,,,,,,,,,,,,,,,,,,,,,,,,,,,,,,,,,,,
,,,,,516600,001,2025-03-12_14h14.48.442,Utility_discrimination_2024_2cat,2024.2.4,MacIntel,59.88023952,,,,,,,,0,"[0.5,0.5]","[1,0]",d,"[0.5,0.7097273800367105]","[0.5,0.29027261996328946]",454.4357,457.0647,1,d,1,1.1014,,-0.303635868,0.194161447,0.497797314,457.0675,457.0675,0,171,171,171,1,0.20972738,0.20972738,shape_difference4,1,,TRUE,,intensity,0.1,4.94066E-324,1.79769E+308,0.3,0.82,20,400,0.25,1,0.01,0.5,0.1,,,,,,,,,,,,,,,,,,,,,,,,,,,,,,,,,,,,,,,,,,,,,,,,,,,,,,,,,,,,,,,,,,,,,,,,,,,,,,,,,
,,,,,516600,001,2025-03-12_14h14.48.442,Utility_discrimination_2024_2cat,2024.2.4,MacIntel,59.88023952,,,,,,,,3,"[0.5,0.5]","[0.383,0.924]",d,"[0.4527008379690699,0.5]","[0.5472991620309301,0.5]",457.0688,459.5304,1,d,1,0.9341,,-0.195010464,0.274748849,0.469759312,459.5337,459.5337,0,172,172,172,1,-0.047299162,-0.047299162,shape_difference0,1,,TRUE,,intensity,0.1,4.94066E-324,1.79769E+308,0.3,0.82,20,400,0.25,1,0.01,0.5,0.1,,,,,,,,,,,,,,,,,,,,,,,,,,,,,,,,,,,,,,,,,,,,,,,,,,,,,,,,,,,,,,,,,,,,,,,,,,,,,,,,,
,,,,,516600,001,2025-03-12_14h14.48.442,Utility_discrimination_2024_2cat,2024.2.4,MacIntel,59.88023952,,,,,,,,1,"[0.5,0.5]","[0.924,0.383]",d,"[0.5187405741842184,0.5452122468569656]","[0.4812594258157816,0.45478775314303443]",459.5349,461.7143,0,s,0,0.6487,,-0.54329665,-0.033797358,0.509499293,461.7162,461.7162,0,173,173,173,1,0.048931003,0.048931003,shape_difference3,1,,TRUE,,intensity,0.1,4.94066E-324,1.79769E+308,0.3,0.82,20,400,0.25,1,0.01,0.5,0.1,,,,,,,,,,,,,,,,,,,,,,,,,,,,,,,,,,,,,,,,,,,,,,,,,,,,,,,,,,,,,,,,,,,,,,,,,,,,,,,,,
,,,,,516600,001,2025-03-12_14h14.48.442,Utility_discrimination_2024_2cat,2024.2.4,MacIntel,59.88023952,,,,,,,,3,"[0.5,0.5]","[0.383,0.924]",d,"[0.2571238434585885,0.3993273074076184]","[0.7428761565414115,0.6006726925923815]",461.717,464.3313,1,s,1,1.0866,,-0.168426085,0.30572519,0.474151275,464.3336,464.3336,0,174,174,174,1,-0.262852983,-0.262852983,shape_difference1,1,,TRUE,,intensity,0.1,4.94066E-324,1.79769E+308,0.3,0.82,20,400,0.25,1,0.01,0.5,0.1,,,,,,,,,,,,,,,,,,,,,,,,,,,,,,,,,,,,,,,,,,,,,,,,,,,,,,,,,,,,,,,,,,,,,,,,,,,,,,,,,
,,,,,516600,001,2025-03-12_14h14.48.442,Utility_discrimination_2024_2cat,2024.2.4,MacIntel,59.88023952,,,,,,,,0,"[0.5,0.5]","[1,0]",s,"[0.5322542466525914,0.577814422733667]","[0.4677457533474086,0.42218557726633305]",464.3347,466.5647,1,s,1,0.7028,,-0.316418483,0.182437555,0.498856038,466.5677,466.5677,0,175,175,175,1,0.084214743,0.084214743,shape_difference3,1,,TRUE,,intensity,0.1,4.94066E-324,1.79769E+308,0.3,0.82,20,400,0.25,1,0.01,0.5,0.1,,,,,,,,,,,,,,,,,,,,,,,,,,,,,,,,,,,,,,,,,,,,,,,,,,,,,,,,,,,,,,,,,,,,,,,,,,,,,,,,,
,,,,,516600,001,2025-03-12_14h14.48.442,Utility_discrimination_2024_2cat,2024.2.4,MacIntel,59.88023952,,,,,,,,4,"[0.5,0.5]","[0,1]",s,"[0.4415538578653837,0.5]","[0.5584461421346163,0.5]",466.5688,468.898,1,d,1,0.7992,,-0.056983471,0.430621113,0.487604583,468.9006,468.9007,0,176,176,176,1,-0.058446142,-0.058446142,shape_difference0,1,,TRUE,,intensity,0.1,4.94066E-324,1.79769E+308,0.3,0.82,20,400,0.25,1,0.01,0.5,0.1,,,,,,,,,,,,,,,,,,,,,,,,,,,,,,,,,,,,,,,,,,,,,,,,,,,,,,,,,,,,,,,,,,,,,,,,,,,,,,,,,
,,,,,516600,001,2025-03-12_14h14.48.442,Utility_discrimination_2024_2cat,2024.2.4,MacIntel,59.88023952,,,,,,,,1,"[0.5,0.5]","[0.924,0.383]",d,"[0.5,0.6975831901785824]","[0.5,0.3024168098214176]",468.9019,471.2986,1,s,1,0.879,,-0.554565169,-0.046782438,0.507782731,471.3009,471.301,0,177,177,177,1,0.19758319,0.19758319,shape_difference4,1,,TRUE,,intensity,0.1,4.94066E-324,1.79769E+308,0.3,0.82,20,400,0.25,1,0.01,0.5,0.1,,,,,,,,,,,,,,,,,,,,,,,,,,,,,,,,,,,,,,,,,,,,,,,,,,,,,,,,,,,,,,,,,,,,,,,,,,,,,,,,,
,,,,,516600,001,2025-03-12_14h14.48.442,Utility_discrimination_2024_2cat,2024.2.4,MacIntel,59.88023952,,,,,,,,2,"[0.5,0.5]","[0.707,0.707]",s,"[0.24661081328344786,0.39496963364454607]","[0.7533891867165521,0.6050303663554539]",471.3022,473.6147,1,s,1,0.7833,,-0.182119245,0.307568833,0.489688078,473.6181,473.6181,0,178,178,178,1,-0.274230722,-0.274230722,shape_difference1,1,,TRUE,,intensity,0.1,4.94066E-324,1.79769E+308,0.3,0.82,20,400,0.25,1,0.01,0.5,0.1,,,,,,,,,,,,,,,,,,,,,,,,,,,,,,,,,,,,,,,,,,,,,,,,,,,,,,,,,,,,,,,,,,,,,,,,,,,,,,,,,
,,,,,516600,001,2025-03-12_14h14.48.442,Utility_discrimination_2024_2cat,2024.2.4,MacIntel,59.88023952,,,,,,,,3,"[0.5,0.5]","[0.383,0.924]",s,"[0.5522505264151565,0.5522505264151565]","[0.44774947358484346,0.44774947358484346]",473.6194,475.8813,1,d,1,0.7347,,-0.174103133,0.293573929,0.467677062,475.8839,475.884,0,179,179,179,1,0.073904564,0.073904564,shape_difference2,1,,TRUE,,intensity,0.1,4.94066E-324,1.79769E+308,0.3,0.82,20,400,0.25,1,0.01,0.5,0.1,,,,,,,,,,,,,,,,,,,,,,,,,,,,,,,,,,,,,,,,,,,,,,,,,,,,,,,,,,,,,,,,,,,,,,,,,,,,,,,,,
,,,,,516600,001,2025-03-12_14h14.48.442,Utility_discrimination_2024_2cat,2024.2.4,MacIntel,59.88023952,,,,,,,,4,"[0.5,0.5]","[0,1]",d,"[0.5286617349522806,0.5691473710075907]","[0.4713382650477194,0.4308526289924092]",475.8852,478.3647,0,d,0,0.95,,-0.063811573,0.410680185,0.474491757,478.3683,478.3683,0,180,180,180,1,0.074834817,0.074834817,shape_difference3,1,,TRUE,,intensity,0.1,4.94066E-324,1.79769E+308,0.3,0.82,20,400,0.25,1,0.01,0.5,0.1,,,,,,,,,,,,,,,,,,,,,,,,,,,,,,,,,,,,,,,,,,,,,,,,,,,,,,,,,,,,,,,,,,,,,,,,,,,,,,,,,
,,,,,516600,001,2025-03-12_14h14.48.442,Utility_discrimination_2024_2cat,2024.2.4,MacIntel,59.88023952,,,,,,,,0,"[0.5,0.5]","[1,0]",s,"[0.5,0.6877586242777014]","[0.5,0.3122413757222986]",478.3695,482.1648,1,s,1,2.2667,,-0.328614465,0.16967131,0.498285774,482.1711,482.1712,0,181,181,181,1,0.187758624,0.187758624,shape_difference4,1,,TRUE,,intensity,0.1,4.94066E-324,1.79769E+308,0.3,0.82,20,400,0.25,1,0.01,0.5,0.1,,,,,,,,,,,,,,,,,,,,,,,,,,,,,,,,,,,,,,,,,,,,,,,,,,,,,,,,,,,,,,,,,,,,,,,,,,,,,,,,,
,,,,,516600,001,2025-03-12_14h14.48.442,Utility_discrimination_2024_2cat,2024.2.4,MacIntel,59.88023952,,,,,,,,2,"[0.5,0.5]","[0.707,0.707]",s,"[0.4299178198015312,0.5]","[0.5700821801984688,0.5]",482.1729,484.5478,1,d,1,0.8491,,-0.186902369,0.293219837,0.480122205,484.5504,484.5505,0,182,182,182,1,-0.07008218,-0.07008218,shape_difference0,1,,TRUE,,intensity,0.1,4.94066E-324,1.79769E+308,0.3,0.82,20,400,0.25,1,0.01,0.5,0.1,,,,,,,,,,,,,,,,,,,,,,,,,,,,,,,,,,,,,,,,,,,,,,,,,,,,,,,,,,,,,,,,,,,,,,,,,,,,,,,,,
,,,,,516600,001,2025-03-12_14h14.48.442,Utility_discrimination_2024_2cat,2024.2.4,MacIntel,59.88023952,,,,,,,,1,"[0.5,0.5]","[0.924,0.383]",d,"[0.5450806798218605,0.5450806798218605]","[0.4549193201781396,0.4549193201781396]",484.5515,487.0322,1,s,1,0.9614,,-0.564394061,-0.061573345,0.502820717,487.0356,487.0357,0,183,183,183,1,0.063763338,0.063763338,shape_difference2,1,,TRUE,,intensity,0.1,4.94066E-324,1.79769E+308,0.3,0.82,20,400,0.25,1,0.01,0.5,0.1,,,,,,,,,,,,,,,,,,,,,,,,,,,,,,,,,,,,,,,,,,,,,,,,,,,,,,,,,,,,,,,,,,,,,,,,,,,,,,,,,
,,,,,516600,001,2025-03-12_14h14.48.442,Utility_discrimination_2024_2cat,2024.2.4,MacIntel,59.88023952,,,,,,,,0,"[0.5,0.5]","[1,0]",s,"[0.2357666525611159,0.39047470555293007]","[0.764233347438884,0.6095252944470699]",487.0367,489.9979,0,d,0,1.4331,,-0.33903779,0.155422484,0.494460274,490.0006,490.0007,0,184,184,184,1,-0.285966826,-0.285966826,shape_difference1,1,,TRUE,,intensity,0.1,4.94066E-324,1.79769E+308,0.3,0.82,20,400,0.25,1,0.01,0.5,0.1,,,,,,,,,,,,,,,,,,,,,,,,,,,,,,,,,,,,,,,,,,,,,,,,,,,,,,,,,,,,,,,,,,,,,,,,,,,,,,,,,
,,,,,516600,001,2025-03-12_14h14.48.442,Utility_discrimination_2024_2cat,2024.2.4,MacIntel,59.88023952,,,,,,,,2,"[0.5,0.5]","[0.707,0.707]",s,"[0.4180876648829255,0.5]","[0.5819123351170745,0.5]",490.0017,492.5984,1,d,1,1.079,,-0.19120563,0.282862729,0.474068359,492.6015,492.6016,0,185,185,185,1,-0.081912335,-0.081912335,shape_difference0,1,,TRUE,,intensity,0.1,4.94066E-324,1.79769E+308,0.3,0.82,20,400,0.25,1,0.01,0.5,0.1,,,,,,,,,,,,,,,,,,,,,,,,,,,,,,,,,,,,,,,,,,,,,,,,,,,,,,,,,,,,,,,,,,,,,,,,,,,,,,,,,
