Consent.started,Consent.stopped,key_resp.keys,key_resp.rt,key_resp.duration,participant,session,date,expName,psychopyVersion,OS,frameRate,SetupExperiment.started,SetupExperiment.stopped,DiscrimInstructions_Pre.started,DiscrimInstructions_Pre.stopped,KeyboardResponse.keys,KeyboardResponse.rt,KeyboardResponse.duration,feature_index,feature_center,feature_vector,correct_answer,coord1,coord2,DiscriminationTrial.started,DiscriminationTrial.stopped,PreTest.response,Resp_s_or_d.keys,Resp_s_or_d.corr,Resp_s_or_d.rt,Resp_s_or_d.duration,PreTest.CI_lower,PreTest.CI_upper,PreTest.CI_width,CrashPretest_2.started,CrashPretest_2.stopped,PreTest.thisRepN,PreTest.thisTrialN,PreTest.thisN,PreTest.thisIndex,PreTest.ran,PreTest.intensity,intensity,PreTest.label,PreTest.nReps,PreTest.method,PreTest.autoLog,PreTest.seed,PreTest.varName,PreTest.startVal,PreTest.minVal,PreTest.maxVal,PreTest.startValSd,PreTest.pThreshold,PreTest.nTrials,PreTest.maxTrials,PreTest.stopInterval,PreTest.beta,PreTest.delta,PreTest.gamma,PreTest.grain,WelcomeToCategorizationTask.started,WelcomeToCategorizationTask.stopped,PressAnyKey3.keys,PressAnyKey3.rt,PressAnyKey3.duration,shape_coordinates,category_center,category_sigma,subspace_center,subspace_vector1,subspace_vector2,CategorizationTrial.started,CategorizationTrial.stopped,Respond_1or2.keys,Respond_1or2.rt,Respond_1or2.duration,Feedback.started,Feedback.stopped,xcoord,ycoord,shape_coord,numeric_response_minus1,correctness,truecategory,mixture_index,respAifA,respBifA,respAifB,respBifB,trial_number,D,muAx,muAy,muBx,muBy,sigmaA,sigmaB,priorA,priorB,TrialLoop.thisRepN,TrialLoop.thisTrialN,TrialLoop.thisN,TrialLoop.thisIndex,TrialLoop.ran,DiscriminationInstructions_Post.started,DiscriminationInstructions_Post.stopped,key_resp_2.keys,key_resp_2.rt,key_resp_2.duration,PostTest.response,PostTest.CI_lower,PostTest.CI_upper,PostTest.CI_width,CrashPosttest.started,CrashPosttest.stopped,PostTest.thisRepN,PostTest.thisTrialN,PostTest.thisN,PostTest.thisIndex,PostTest.ran,PostTest.intensity,PostTest.label,PostTest.nReps,PostTest.method,PostTest.autoLog,PostTest.seed,PostTest.varName,PostTest.startVal,PostTest.minVal,PostTest.maxVal,PostTest.startValSd,PostTest.pThreshold,PostTest.nTrials,PostTest.maxTrials,PostTest.stopInterval,PostTest.beta,PostTest.delta,PostTest.gamma,PostTest.grain,Thanks.started,Thanks.stopped
1E-04,9.4926,y,9.476,,537791,001,2025-03-14_20h45.35.085,Utility_discrimination_2024_2cat,2024.2.4,MacIntel,107.5268817,,,,,,,,,,,,,,,,,,,,,,,,,,,,,,,,,,,,,,,,,,,,,,,,,,,,,,,,,,,,,,,,,,,,,,,,,,,,,,,,,,,,,,,,,,,,,,,,,,,,,,,,,,,,,,,,,,,,,,,,,,,,,,,,,,,
,,,,,537791,001,2025-03-14_20h45.35.085,Utility_discrimination_2024_2cat,2024.2.4,MacIntel,107.5268817,9.4928,9.4929,,,,,,,,,,,,,,,,,,,,,,,,,,,,,,,,,,,,,,,,,,,,,,,,,,,,,,,,,,,,,,,,,,,,,,,,,,,,,,,,,,,,,,,,,,,,,,,,,,,,,,,,,,,,,,,,,,,,,,,,,,,,,,,,,
,,,,,537791,001,2025-03-14_20h45.35.085,Utility_discrimination_2024_2cat,2024.2.4,MacIntel,107.5268817,,,9.4929,42.1367,space,32.6263,,,,,,,,,,,,,,,,,,,,,,,,,,,,,,,,,,,,,,,,,,,,,,,,,,,,,,,,,,,,,,,,,,,,,,,,,,,,,,,,,,,,,,,,,,,,,,,,,,,,,,,,,,,,,,,,,,,,,,,,,,,,,
,,,,,537791,001,2025-03-14_20h45.35.085,Utility_discrimination_2024_2cat,2024.2.4,MacIntel,107.5268817,,,,,,,,1,"[0.5,0.5]","[0.924,0.383]",,"[0.6185239449756466,0.5]","[0.3814760550243534,0.5]",42.1566,44.2763,1,s,1,0.6096,,-0.447967632,0.547967632,0.995935263,44.279,44.279,0,0,0,0,1,0.118523945,0.118523945,shape_difference2,1,,TRUE,,intensity,0.1,0.05,0.7,0.3,0.82,20,400,1E-11,3.5,0.01,0.5,0.1,,,,,,,,,,,,,,,,,,,,,,,,,,,,,,,,,,,,,,,,,,,,,,,,,,,,,,,,,,,,,,,,,,,,,,,,,,,,,,,,,
,,,,,537791,001,2025-03-14_20h45.35.085,Utility_discrimination_2024_2cat,2024.2.4,MacIntel,107.5268817,,,,,,,,3,"[0.5,0.5]","[0.383,0.924]",s,"[0.6095161251574974,0.5453946709256726]","[0.3904838748425025,0.4546053290743273]",44.2815,46.3183,0,s,0,0.5228,,-0.447967632,0.547967632,0.995935263,46.3218,46.3219,0,1,1,1,1,0.118523945,0.118523945,shape_difference1,1,,TRUE,,intensity,0.1,0.05,0.7,0.3,0.82,20,400,1E-11,3.5,0.01,0.5,0.1,,,,,,,,,,,,,,,,,,,,,,,,,,,,,,,,,,,,,,,,,,,,,,,,,,,,,,,,,,,,,,,,,,,,,,,,,,,,,,,,,
,,,,,537791,001,2025-03-14_20h45.35.085,Utility_discrimination_2024_2cat,2024.2.4,MacIntel,107.5268817,,,,,,,,4,"[0.5,0.5]","[0,1]",d,"[0.5453946709256726,0.6095161251574974]","[0.4546053290743273,0.3904838748425025]",46.3232,48.2254,1,s,1,0.395,,-0.447967632,0.547967632,0.995935263,48.2268,48.2268,0,2,2,2,1,0.118523945,0.118523945,shape_difference3,1,,TRUE,,intensity,0.1,0.05,0.7,0.3,0.82,20,400,1E-11,3.5,0.01,0.5,0.1,,,,,,,,,,,,,,,,,,,,,,,,,,,,,,,,,,,,,,,,,,,,,,,,,,,,,,,,,,,,,,,,,,,,,,,,,,,,,,,,,
,,,,,537791,001,2025-03-14_20h45.35.085,Utility_discrimination_2024_2cat,2024.2.4,MacIntel,107.5268817,,,,,,,,0,"[0.5,0.5]","[1,0]",s,"[0.5,0.6185239449756466]","[0.5,0.3814760550243534]",48.2274,50.0679,0,s,0,0.3294,,-0.447967632,0.547967632,0.995935263,50.0702,50.0702,0,3,3,3,1,0.118523945,0.118523945,shape_difference4,1,,TRUE,,intensity,0.1,0.05,0.7,0.3,0.82,20,400,1E-11,3.5,0.01,0.5,0.1,,,,,,,,,,,,,,,,,,,,,,,,,,,,,,,,,,,,,,,,,,,,,,,,,,,,,,,,,,,,,,,,,,,,,,,,,,,,,,,,,
,,,,,537791,001,2025-03-14_20h45.35.085,Utility_discrimination_2024_2cat,2024.2.4,MacIntel,107.5268817,,,,,,,,3,"[0.5,0.5]","[0.383,0.924]",d,"[0.6185239449756466,0.5]","[0.3814760550243534,0.5]",50.0712,55.401,1,s,1,3.8195,,-0.479157219,0.478510979,0.957668197,55.4031,55.4032,0,4,4,4,1,0.118523945,0.118523945,shape_difference0,1,,TRUE,,intensity,0.1,0.05,0.7,0.3,0.82,20,400,1E-11,3.5,0.01,0.5,0.1,,,,,,,,,,,,,,,,,,,,,,,,,,,,,,,,,,,,,,,,,,,,,,,,,,,,,,,,,,,,,,,,,,,,,,,,,,,,,,,,,
,,,,,537791,001,2025-03-14_20h45.35.085,Utility_discrimination_2024_2cat,2024.2.4,MacIntel,107.5268817,,,,,,,,4,"[0.5,0.5]","[0,1]",s,"[0.5141716077151222,0.5341894661325662]","[0.48582839228487784,0.46581053386743376]",55.4041,57.8009,1,s,1,0.879,,0.008797352,0.664308158,0.655510806,57.803,57.803,0,5,5,5,1,0.037001587,0.037001587,shape_difference3,1,,TRUE,,intensity,0.1,0.05,0.7,0.3,0.82,20,400,1E-11,3.5,0.01,0.5,0.1,,,,,,,,,,,,,,,,,,,,,,,,,,,,,,,,,,,,,,,,,,,,,,,,,,,,,,,,,,,,,,,,,,,,,,,,,,,,,,,,,
,,,,,537791,001,2025-03-14_20h45.35.085,Utility_discrimination_2024_2cat,2024.2.4,MacIntel,107.5268817,,,,,,,,1,"[0.5,0.5]","[0.924,0.383]",s,"[0.5,0.8247185585179694]","[0.5,0.17528144148203062]",57.8043,59.8026,1,d,1,0.4894,,0.008797352,0.664308158,0.655510806,59.8038,59.8038,0,6,6,6,1,0.324718559,0.324718559,shape_difference4,1,,TRUE,,intensity,0.1,0.05,0.7,0.3,0.82,20,400,1E-11,3.5,0.01,0.5,0.1,,,,,,,,,,,,,,,,,,,,,,,,,,,,,,,,,,,,,,,,,,,,,,,,,,,,,,,,,,,,,,,,,,,,,,,,,,,,,,,,,
,,,,,537791,001,2025-03-14_20h45.35.085,Utility_discrimination_2024_2cat,2024.2.4,MacIntel,107.5268817,,,,,,,,2,"[0.5,0.5]","[0.707,0.707]",d,"[0.8000399480706037,0.6243672079123823]","[0.19996005192939625,0.37563279208761774]",59.8043,62.0842,1,s,1,0.7672,,-0.479157219,0.478510979,0.957668197,62.0865,62.0866,0,7,7,7,1,0.324718559,0.324718559,shape_difference1,1,,TRUE,,intensity,0.1,0.05,0.7,0.3,0.82,20,400,1E-11,3.5,0.01,0.5,0.1,,,,,,,,,,,,,,,,,,,,,,,,,,,,,,,,,,,,,,,,,,,,,,,,,,,,,,,,,,,,,,,,,,,,,,,,,,,,,,,,,
,,,,,537791,001,2025-03-14_20h45.35.085,Utility_discrimination_2024_2cat,2024.2.4,MacIntel,107.5268817,,,,,,,,0,"[0.5,0.5]","[1,0]",s,"[0.5261601218135545,0.5261601218135545]","[0.4738398781864455,0.4738398781864455]",62.0875,64.417,1,s,1,0.8152,,-0.479157219,0.478510979,0.957668197,64.419,64.419,0,8,8,8,1,0.037001587,0.037001587,shape_difference2,1,,TRUE,,intensity,0.1,0.05,0.7,0.3,0.82,20,400,1E-11,3.5,0.01,0.5,0.1,,,,,,,,,,,,,,,,,,,,,,,,,,,,,,,,,,,,,,,,,,,,,,,,,,,,,,,,,,,,,,,,,,,,,,,,,,,,,,,,,
,,,,,537791,001,2025-03-14_20h45.35.085,Utility_discrimination_2024_2cat,2024.2.4,MacIntel,107.5268817,,,,,,,,4,"[0.5,0.5]","[0,1]",s,"[0.5370015867235566,0.5]","[0.4629984132764434,0.5]",64.42,66.4426,0,s,0,0.5033,,-0.003741292,0.604569979,0.608311271,66.4455,66.4456,0,9,9,9,1,0.037001587,0.037001587,shape_difference0,1,,TRUE,,intensity,0.1,0.05,0.7,0.3,0.82,20,400,1E-11,3.5,0.01,0.5,0.1,,,,,,,,,,,,,,,,,,,,,,,,,,,,,,,,,,,,,,,,,,,,,,,,,,,,,,,,,,,,,,,,,,,,,,,,,,,,,,,,,
,,,,,537791,001,2025-03-14_20h45.35.085,Utility_discrimination_2024_2cat,2024.2.4,MacIntel,107.5268817,,,,,,,,2,"[0.5,0.5]","[0.707,0.707]",d,"[0.5,0.7748173464265704]","[0.5,0.22518265357342954]",66.447,68.5422,1,s,1,0.5812,,-0.510435314,0.404710629,0.915145943,68.5441,68.5441,0,10,10,10,1,0.274817346,0.274817346,shape_difference4,1,,TRUE,,intensity,0.1,0.05,0.7,0.3,0.82,20,400,1E-11,3.5,0.01,0.5,0.1,,,,,,,,,,,,,,,,,,,,,,,,,,,,,,,,,,,,,,,,,,,,,,,,,,,,,,,,,,,,,,,,,,,,,,,,,,,,,,,,,
,,,,,537791,001,2025-03-14_20h45.35.085,Utility_discrimination_2024_2cat,2024.2.4,MacIntel,107.5268817,,,,,,,,0,"[0.5,0.5]","[1,0]",s,"[0.47365134701532874,0.47365134701532874]","[0.5263486529846713,0.5263486529846713]",68.5455,70.9,1,s,1,0.8415,,-0.090065158,0.591798206,0.681863364,70.901,70.9011,0,11,11,11,1,-0.03726825,-0.03726825,shape_difference2,1,,TRUE,,intensity,0.1,0.05,0.7,0.3,0.82,20,400,1E-11,3.5,0.01,0.5,0.1,,,,,,,,,,,,,,,,,,,,,,,,,,,,,,,,,,,,,,,,,,,,,,,,,,,,,,,,,,,,,,,,,,,,,,,,,,,,,,,,,
,,,,,537791,001,2025-03-14_20h45.35.085,Utility_discrimination_2024_2cat,2024.2.4,MacIntel,107.5268817,,,,,,,,1,"[0.5,0.5]","[0.924,0.383]",s,"[0.7256621725789216,0.5]","[0.2743378274210784,0.5]",70.9016,73.0925,1,d,1,0.6803,,-0.003741292,0.604569979,0.608311271,73.0946,73.0946,0,12,12,12,1,0.225662173,0.225662173,shape_difference0,1,,TRUE,,intensity,0.1,0.05,0.7,0.3,0.82,20,400,1E-11,3.5,0.01,0.5,0.1,,,,,,,,,,,,,,,,,,,,,,,,,,,,,,,,,,,,,,,,,,,,,,,,,,,,,,,,,,,,,,,,,,,,,,,,,,,,,,,,,
,,,,,537791,001,2025-03-14_20h45.35.085,Utility_discrimination_2024_2cat,2024.2.4,MacIntel,107.5268817,,,,,,,,3,"[0.5,0.5]","[0.383,0.924]",d,"[0.7539312280981512,0.6052550436813765]","[0.2460687719018489,0.3947449563186235]",73.0955,75.6758,0,d,0,1.0675,,-0.510435314,0.404710629,0.915145943,75.6778,75.6778,0,13,13,13,1,0.274817346,0.274817346,shape_difference1,1,,TRUE,,intensity,0.1,0.05,0.7,0.3,0.82,20,400,1E-11,3.5,0.01,0.5,0.1,,,,,,,,,,,,,,,,,,,,,,,,,,,,,,,,,,,,,,,,,,,,,,,,,,,,,,,,,,,,,,,,,,,,,,,,,,,,,,,,,
,,,,,537791,001,2025-03-14_20h45.35.085,Utility_discrimination_2024_2cat,2024.2.4,MacIntel,107.5268817,,,,,,,,4,"[0.5,0.5]","[0,1]",s,"[0.48572626012287257,0.46556413669330093]","[0.5142737398771274,0.5344358633066991]",75.6783,78.3342,0,d,0,1.142,,-0.026700702,0.552121039,0.578821741,78.3368,78.3368,0,14,14,14,1,-0.03726825,-0.03726825,shape_difference3,1,,TRUE,,intensity,0.1,0.05,0.7,0.3,0.82,20,400,1E-11,3.5,0.01,0.5,0.1,,,,,,,,,,,,,,,,,,,,,,,,,,,,,,,,,,,,,,,,,,,,,,,,,,,,,,,,,,,,,,,,,,,,,,,,,,,,,,,,,
,,,,,537791,001,2025-03-14_20h45.35.085,Utility_discrimination_2024_2cat,2024.2.4,MacIntel,107.5268817,,,,,,,,1,"[0.5,0.5]","[0.924,0.383]",s,"[0.5,0.7361666255365733]","[0.5,0.26383337446342664]",78.3375,80.4756,0,s,0,0.6244,,0.166924593,0.726757578,0.559832986,80.4765,80.4765,0,15,15,15,1,0.236166626,0.236166626,shape_difference4,1,,TRUE,,intensity,0.1,0.05,0.7,0.3,0.82,20,400,1E-11,3.5,0.01,0.5,0.1,,,,,,,,,,,,,,,,,,,,,,,,,,,,,,,,,,,,,,,,,,,,,,,,,,,,,,,,,,,,,,,,,,,,,,,,,,,,,,,,,
,,,,,537791,001,2025-03-14_20h45.35.085,Utility_discrimination_2024_2cat,2024.2.4,MacIntel,107.5268817,,,,,,,,0,"[0.5,0.5]","[1,0]",d,"[0.8950075800565379,0.663731496928197]","[0.10499241994346209,0.336268503071803]",80.477,82.8259,1,d,1,0.8333,,-0.09936101,0.537490534,0.636851544,82.8296,82.8296,0,16,16,16,1,0.427497381,0.427497381,shape_difference1,1,,TRUE,,intensity,0.1,0.05,0.7,0.3,0.82,20,400,1E-11,3.5,0.01,0.5,0.1,,,,,,,,,,,,,,,,,,,,,,,,,,,,,,,,,,,,,,,,,,,,,,,,,,,,,,,,,,,,,,,,,,,,,,,,,,,,,,,,,
,,,,,537791,001,2025-03-14_20h45.35.085,Utility_discrimination_2024_2cat,2024.2.4,MacIntel,107.5268817,,,,,,,,3,"[0.5,0.5]","[0.383,0.924]",d,"[0.6717231163357056,0.5]","[0.3282768836642944,0.5]",82.8305,85.7424,0,d,0,1.4015,,-0.118157943,0.566731222,0.684889165,85.7445,85.7445,0,17,17,17,1,0.171723116,0.171723116,shape_difference0,1,,TRUE,,intensity,0.1,0.05,0.7,0.3,0.82,20,400,1E-11,3.5,0.01,0.5,0.1,,,,,,,,,,,,,,,,,,,,,,,,,,,,,,,,,,,,,,,,,,,,,,,,,,,,,,,,,,,,,,,,,,,,,,,,,,,,,,,,,
,,,,,537791,001,2025-03-14_20h45.35.085,Utility_discrimination_2024_2cat,2024.2.4,MacIntel,107.5268817,,,,,,,,2,"[0.5,0.5]","[0.707,0.707]",s,"[0.570651951224009,0.6704501382010035]","[0.429348048775991,0.3295498617989964]",85.745,88.2004,1,d,1,0.9466,,-0.540713527,0.322166073,0.862879599,88.202,88.202,0,18,18,18,1,0.184469847,0.184469847,shape_difference3,1,,TRUE,,intensity,0.1,0.05,0.7,0.3,0.82,20,400,1E-11,3.5,0.01,0.5,0.1,,,,,,,,,,,,,,,,,,,,,,,,,,,,,,,,,,,,,,,,,,,,,,,,,,,,,,,,,,,,,,,,,,,,,,,,,,,,,,,,,
,,,,,537791,001,2025-03-14_20h45.35.085,Utility_discrimination_2024_2cat,2024.2.4,MacIntel,107.5268817,,,,,,,,2,"[0.5,0.5]","[0.707,0.707]",d,"[0.431701919481697,0.431701919481697]","[0.568298080518303,0.568298080518303]",88.2036,90.5674,1,d,1,0.8455,,-0.569624043,0.240042019,0.809666061,90.5688,90.5689,0,19,19,19,1,-0.09660266,-0.09660266,shape_difference2,1,,TRUE,,intensity,0.1,0.05,0.7,0.3,0.82,20,400,1E-11,3.5,0.01,0.5,0.1,,,,,,,,,,,,,,,,,,,,,,,,,,,,,,,,,,,,,,,,,,,,,,,,,,,,,,,,,,,,,,,,,,,,,,,,,,,,,,,,,
,,,,,537791,001,2025-03-14_20h45.35.085,Utility_discrimination_2024_2cat,2024.2.4,MacIntel,107.5268817,,,,,,,,3,"[0.5,0.5]","[0.383,0.924]",d,"[0.39567503934342785,0.39567503934342785]","[0.6043249606565722,0.6043249606565722]",90.5699,92.9259,1,s,1,0.8413,,-0.138426098,0.496127593,0.634553691,92.9276,92.9276,0,20,20,20,1,-0.147560058,-0.147560058,shape_difference2,1,,TRUE,,intensity,0.1,0.05,0.7,0.3,0.82,20,400,1E-11,3.5,0.01,0.5,0.1,,,,,,,,,,,,,,,,,,,,,,,,,,,,,,,,,,,,,,,,,,,,,,,,,,,,,,,,,,,,,,,,,,,,,,,,,,,,,,,,,
,,,,,537791,001,2025-03-14_20h45.35.085,Utility_discrimination_2024_2cat,2024.2.4,MacIntel,107.5268817,,,,,,,,4,"[0.5,0.5]","[0,1]",s,"[0.551976190646757,0.6253942562861707]","[0.4480238093532431,0.37460574371382926]",92.9284,95.7591,0,d,0,1.3171,,0.105213017,0.641946211,0.536733194,95.7607,95.7607,0,21,21,21,1,0.13570807,0.13570807,shape_difference3,1,,TRUE,,intensity,0.1,0.05,0.7,0.3,0.82,20,400,1E-11,3.5,0.01,0.5,0.1,,,,,,,,,,,,,,,,,,,,,,,,,,,,,,,,,,,,,,,,,,,,,,,,,,,,,,,,,,,,,,,,,,,,,,,,,,,,,,,,,
,,,,,537791,001,2025-03-14_20h45.35.085,Utility_discrimination_2024_2cat,2024.2.4,MacIntel,107.5268817,,,,,,,,1,"[0.5,0.5]","[0.924,0.383]",s,"[0.5,0.8329731738562145]","[0.5,0.16702682614378545]",95.7615,98.4004,1,d,1,1.1303,,0.148866283,0.680621755,0.531755473,98.4017,98.4017,0,22,22,22,1,0.332973174,0.332973174,shape_difference4,1,,TRUE,,intensity,0.1,0.05,0.7,0.3,0.82,20,400,1E-11,3.5,0.01,0.5,0.1,,,,,,,,,,,,,,,,,,,,,,,,,,,,,,,,,,,,,,,,,,,,,,,,,,,,,,,,,,,,,,,,,,,,,,,,,,,,,,,,,
,,,,,537791,001,2025-03-14_20h45.35.085,Utility_discrimination_2024_2cat,2024.2.4,MacIntel,107.5268817,,,,,,,,0,"[0.5,0.5]","[1,0]",d,"[0.8582143599896008,0.6484806275714471]","[0.14178564001039923,0.3515193724285529]",98.4022,102.3766,0,d,0,2.4619,,0.064206312,0.666780888,0.602574576,102.3783,102.3784,0,23,23,23,1,0.387677879,0.387677879,shape_difference1,1,,TRUE,,intensity,0.1,0.05,0.7,0.3,0.82,20,400,1E-11,3.5,0.01,0.5,0.1,,,,,,,,,,,,,,,,,,,,,,,,,,,,,,,,,,,,,,,,,,,,,,,,,,,,,,,,,,,,,,,,,,,,,,,,,,,,,,,,,
,,,,,537791,001,2025-03-14_20h45.35.085,Utility_discrimination_2024_2cat,2024.2.4,MacIntel,107.5268817,,,,,,,,0,"[0.5,0.5]","[1,0]",s,"[0.8400297212439484,0.5]","[0.15997027875605163,0.5]",102.379,104.9265,1,d,1,1.0365,,0.046106493,0.612747238,0.566640745,104.9284,104.9285,0,24,24,24,1,0.340029721,0.340029721,shape_difference0,1,,TRUE,,intensity,0.1,0.05,0.7,0.3,0.82,20,400,1E-11,3.5,0.01,0.5,0.1,,,,,,,,,,,,,,,,,,,,,,,,,,,,,,,,,,,,,,,,,,,,,,,,,,,,,,,,,,,,,,,,,,,,,,,,,,,,,,,,,
,,,,,537791,001,2025-03-14_20h45.35.085,Utility_discrimination_2024_2cat,2024.2.4,MacIntel,107.5268817,,,,,,,,3,"[0.5,0.5]","[0.383,0.924]",d,"[0.7937624942698775,0.5]","[0.20623750573012245,0.5]",104.9301,107.109,1,d,1,0.6691,,0.003001688,0.59577868,0.592776992,107.1103,107.1104,0,25,25,25,1,0.293762494,0.293762494,shape_difference0,1,,TRUE,,intensity,0.1,0.05,0.7,0.3,0.82,20,400,1E-11,3.5,0.01,0.5,0.1,,,,,,,,,,,,,,,,,,,,,,,,,,,,,,,,,,,,,,,,,,,,,,,,,,,,,,,,,,,,,,,,,,,,,,,,,,,,,,,,,
,,,,,537791,001,2025-03-14_20h45.35.085,Utility_discrimination_2024_2cat,2024.2.4,MacIntel,107.5268817,,,,,,,,2,"[0.5,0.5]","[0.707,0.707]",d,"[0.5978417834155872,0.7360464957597981]","[0.40215821658441275,0.263953504240202]",107.1111,109.8425,1,s,1,1.2156,,-0.588261172,0.151848651,0.740109824,109.8443,109.8443,0,26,26,26,1,0.255461575,0.255461575,shape_difference3,1,,TRUE,,intensity,0.1,0.05,0.7,0.3,0.82,20,400,1E-11,3.5,0.01,0.5,0.1,,,,,,,,,,,,,,,,,,,,,,,,,,,,,,,,,,,,,,,,,,,,,,,,,,,,,,,,,,,,,,,,,,,,,,,,,,,,,,,,,
,,,,,537791,001,2025-03-14_20h45.35.085,Utility_discrimination_2024_2cat,2024.2.4,MacIntel,107.5268817,,,,,,,,1,"[0.5,0.5]","[0.924,0.383]",s,"[0.3649561854463764,0.3649561854463764]","[0.6350438145536236,0.6350438145536236]",109.8456,112.192,1,d,1,0.8338,,0.271305902,0.779678869,0.508372968,112.1938,112.1938,0,27,27,27,1,-0.191009639,-0.191009639,shape_difference2,1,,TRUE,,intensity,0.1,0.05,0.7,0.3,0.82,20,400,1E-11,3.5,0.01,0.5,0.1,,,,,,,,,,,,,,,,,,,,,,,,,,,,,,,,,,,,,,,,,,,,,,,,,,,,,,,,,,,,,,,,,,,,,,,,,,,,,,,,,
,,,,,537791,001,2025-03-14_20h45.35.085,Utility_discrimination_2024_2cat,2024.2.4,MacIntel,107.5268817,,,,,,,,4,"[0.5,0.5]","[0,1]",d,"[0.9616628048300192,0.6913602318721833]","[0.0383371951699808,0.3086397681278167]",112.1949,114.6091,1,s,1,0.898,,0.095253378,0.589319911,0.494066533,114.6113,114.6113,0,28,28,28,1,0.49963507,0.49963507,shape_difference1,1,,TRUE,,intensity,0.1,0.05,0.7,0.3,0.82,20,400,1E-11,3.5,0.01,0.5,0.1,,,,,,,,,,,,,,,,,,,,,,,,,,,,,,,,,,,,,,,,,,,,,,,,,,,,,,,,,,,,,,,,,,,,,,,,,,,,,,,,,
,,,,,537791,001,2025-03-14_20h45.35.085,Utility_discrimination_2024_2cat,2024.2.4,MacIntel,107.5268817,,,,,,,,3,"[0.5,0.5]","[0.383,0.924]",s,"[0.5,0.794523857257694]","[0.5,0.20547614274230597]",114.6122,117.5165,1,s,1,1.3945,,-0.00706543,0.538627976,0.545693406,117.5175,117.5175,0,29,29,29,1,0.294523857,0.294523857,shape_difference4,1,,TRUE,,intensity,0.1,0.05,0.7,0.3,0.82,20,400,1E-11,3.5,0.01,0.5,0.1,,,,,,,,,,,,,,,,,,,,,,,,,,,,,,,,,,,,,,,,,,,,,,,,,,,,,,,,,,,,,,,,,,,,,,,,,,,,,,,,,
,,,,,537791,001,2025-03-14_20h45.35.085,Utility_discrimination_2024_2cat,2024.2.4,MacIntel,107.5268817,,,,,,,,1,"[0.5,0.5]","[0.924,0.383]",s,"[0.5820252856381305,0.6978886786674479]","[0.41797471436186956,0.30211132133255214]",117.5181,119.8929,1,s,1,0.8549,,0.255145114,0.736871451,0.481726337,119.8963,119.8963,0,30,30,30,1,0.214165237,0.214165237,shape_difference3,1,,TRUE,,intensity,0.1,0.05,0.7,0.3,0.82,20,400,1E-11,3.5,0.01,0.5,0.1,,,,,,,,,,,,,,,,,,,,,,,,,,,,,,,,,,,,,,,,,,,,,,,,,,,,,,,,,,,,,,,,,,,,,,,,,,,,,,,,,
,,,,,537791,001,2025-03-14_20h45.35.085,Utility_discrimination_2024_2cat,2024.2.4,MacIntel,107.5268817,,,,,,,,4,"[0.5,0.5]","[0,1]",s,"[0.9357462506895827,0.6806177640845348]","[0.06425374931041727,0.3193822359154652]",119.8973,122.118,1,s,1,0.7045,,0.074165964,0.541678986,0.467513022,122.1207,122.1207,0,31,31,31,1,0.471586851,0.471586851,shape_difference1,1,,TRUE,,intensity,0.1,0.05,0.7,0.3,0.82,20,400,1E-11,3.5,0.01,0.5,0.1,,,,,,,,,,,,,,,,,,,,,,,,,,,,,,,,,,,,,,,,,,,,,,,,,,,,,,,,,,,,,,,,,,,,,,,,,,,,,,,,,
,,,,,537791,001,2025-03-14_20h45.35.085,Utility_discrimination_2024_2cat,2024.2.4,MacIntel,107.5268817,,,,,,,,0,"[0.5,0.5]","[1,0]",s,"[0.5,0.7699037346777231]","[0.5,0.23009626532227684]",122.1218,124.1924,1,d,1,0.5583,,0.034258812,0.562756016,0.528497204,124.1948,124.1948,0,32,32,32,1,0.269903735,0.269903735,shape_difference4,1,,TRUE,,intensity,0.1,0.05,0.7,0.3,0.82,20,400,1E-11,3.5,0.01,0.5,0.1,,,,,,,,,,,,,,,,,,,,,,,,,,,,,,,,,,,,,,,,,,,,,,,,,,,,,,,,,,,,,,,,,,,,,,,,,,,,,,,,,
,,,,,537791,001,2025-03-14_20h45.35.085,Utility_discrimination_2024_2cat,2024.2.4,MacIntel,107.5268817,,,,,,,,2,"[0.5,0.5]","[0.707,0.707]",d,"[0.7622926100884712,0.5]","[0.23770738991152884,0.5]",124.1954,127.7091,1,d,1,1.9963,,-0.616056949,0.077962516,0.694019466,127.7109,127.7109,0,33,33,33,1,0.26229261,0.26229261,shape_difference0,1,,TRUE,,intensity,0.1,0.05,0.7,0.3,0.82,20,400,1E-11,3.5,0.01,0.5,0.1,,,,,,,,,,,,,,,,,,,,,,,,,,,,,,,,,,,,,,,,,,,,,,,,,,,,,,,,,,,,,,,,,,,,,,,,,,,,,,,,,
,,,,,537791,001,2025-03-14_20h45.35.085,Utility_discrimination_2024_2cat,2024.2.4,MacIntel,107.5268817,,,,,,,,0,"[0.5,0.5]","[1,0]",d,"[0.33483614350409285,0.33483614350409285]","[0.6651638564959071,0.6651638564959071]",127.7113,131.5591,0,d,0,2.3354,,0.026241905,0.49758731,0.471345405,131.5621,131.5621,0,34,34,34,1,-0.233612244,-0.233612244,shape_difference2,1,,TRUE,,intensity,0.1,0.05,0.7,0.3,0.82,20,400,1E-11,3.5,0.01,0.5,0.1,,,,,,,,,,,,,,,,,,,,,,,,,,,,,,,,,,,,,,,,,,,,,,,,,,,,,,,,,,,,,,,,,,,,,,,,,,,,,,,,,
,,,,,537791,001,2025-03-14_20h45.35.085,Utility_discrimination_2024_2cat,2024.2.4,MacIntel,107.5268817,,,,,,,,1,"[0.5,0.5]","[0.924,0.383]",s,"[0.7353586675087115,0.5]","[0.2646413324912885,0.5]",131.563,134.5757,1,s,1,1.5024,,0.244098605,0.687791242,0.443692636,134.5792,134.5793,0,35,35,35,1,0.235358668,0.235358668,shape_difference0,1,,TRUE,,intensity,0.1,0.05,0.7,0.3,0.82,20,400,1E-11,3.5,0.01,0.5,0.1,,,,,,,,,,,,,,,,,,,,,,,,,,,,,,,,,,,,,,,,,,,,,,,,,,,,,,,,,,,,,,,,,,,,,,,,,,,,,,,,,
,,,,,537791,001,2025-03-14_20h45.35.085,Utility_discrimination_2024_2cat,2024.2.4,MacIntel,107.5268817,,,,,,,,2,"[0.5,0.5]","[0.707,0.707]",s,"[0.9136940112270631,0.6714770630952004]","[0.08630598877293699,0.3285229369047996]",134.5803,136.8174,1,s,1,0.7209,,-0.328175385,0.257447381,0.585622767,136.8197,136.8197,0,36,36,36,1,0.447720791,0.447720791,shape_difference1,1,,TRUE,,intensity,0.1,0.05,0.7,0.3,0.82,20,400,1E-11,3.5,0.01,0.5,0.1,,,,,,,,,,,,,,,,,,,,,,,,,,,,,,,,,,,,,,,,,,,,,,,,,,,,,,,,,,,,,,,,,,,,,,,,,,,,,,,,,
,,,,,537791,001,2025-03-14_20h45.35.085,Utility_discrimination_2024_2cat,2024.2.4,MacIntel,107.5268817,,,,,,,,4,"[0.5,0.5]","[0,1]",s,"[0.42885236698789186,0.42885236698789186]","[0.5711476330121081,0.5711476330121081]",136.8204,139.309,1,d,1,0.9781,,0.059660777,0.486649378,0.426988601,139.311,139.311,0,37,37,37,1,-0.100633144,-0.100633144,shape_difference2,1,,TRUE,,intensity,0.1,0.05,0.7,0.3,0.82,20,400,1E-11,3.5,0.01,0.5,0.1,,,,,,,,,,,,,,,,,,,,,,,,,,,,,,,,,,,,,,,,,,,,,,,,,,,,,,,,,,,,,,,,,,,,,,,,,,,,,,,,,
,,,,,537791,001,2025-03-14_20h45.35.085,Utility_discrimination_2024_2cat,2024.2.4,MacIntel,107.5268817,,,,,,,,3,"[0.5,0.5]","[0.383,0.924]",d,"[0.5,0.7490413752979563]","[0.5,0.25095862470204366]",139.3116,142.0176,0,d,0,1.1918,,-0.029161457,0.481404566,0.510566023,142.0195,142.0195,0,38,38,38,1,0.249041375,0.249041375,shape_difference4,1,,TRUE,,intensity,0.1,0.05,0.7,0.3,0.82,20,400,1E-11,3.5,0.01,0.5,0.1,,,,,,,,,,,,,,,,,,,,,,,,,,,,,,,,,,,,,,,,,,,,,,,,,,,,,,,,,,,,,,,,,,,,,,,,,,,,,,,,,
,,,,,537791,001,2025-03-14_20h45.35.085,Utility_discrimination_2024_2cat,2024.2.4,MacIntel,107.5268817,,,,,,,,3,"[0.5,0.5]","[0.383,0.924]",s,"[0.5692832862570668,0.6671481892990333]","[0.4307167137429332,0.3328518107009667]",142.0213,145.059,0,d,0,1.5219,,0.066345958,0.596366801,0.530020844,145.0609,145.0609,0,39,39,39,1,0.180896309,0.180896309,shape_difference3,1,,TRUE,,intensity,0.1,0.05,0.7,0.3,0.82,20,400,1E-11,3.5,0.01,0.5,0.1,,,,,,,,,,,,,,,,,,,,,,,,,,,,,,,,,,,,,,,,,,,,,,,,,,,,,,,,,,,,,,,,,,,,,,,,,,,,,,,,,
,,,,,537791,001,2025-03-14_20h45.35.085,Utility_discrimination_2024_2cat,2024.2.4,MacIntel,107.5268817,,,,,,,,1,"[0.5,0.5]","[0.924,0.383]",s,"[0.6102322899872527,0.7659389972538418]","[0.38976771001274735,0.23406100274615815]",145.0623,147.479,1,d,1,0.905,,0.232555693,0.657214934,0.424659241,147.4808,147.4809,0,40,40,40,1,0.287812768,0.287812768,shape_difference3,1,,TRUE,,intensity,0.1,0.05,0.7,0.3,0.82,20,400,1E-11,3.5,0.01,0.5,0.1,,,,,,,,,,,,,,,,,,,,,,,,,,,,,,,,,,,,,,,,,,,,,,,,,,,,,,,,,,,,,,,,,,,,,,,,,,,,,,,,,
,,,,,537791,001,2025-03-14_20h45.35.085,Utility_discrimination_2024_2cat,2024.2.4,MacIntel,107.5268817,,,,,,,,2,"[0.5,0.5]","[0.707,0.707]",d,"[0.8919984484310791,0.6624842053561724]","[0.10800155156892088,0.3375157946438276]",147.4816,149.6919,1,s,1,0.7015,,-0.347011006,0.180052226,0.527063232,149.6937,149.6937,0,41,41,41,1,0.424240745,0.424240745,shape_difference1,1,,TRUE,,intensity,0.1,0.05,0.7,0.3,0.82,20,400,1E-11,3.5,0.01,0.5,0.1,,,,,,,,,,,,,,,,,,,,,,,,,,,,,,,,,,,,,,,,,,,,,,,,,,,,,,,,,,,,,,,,,,,,,,,,,,,,,,,,,
,,,,,537791,001,2025-03-14_20h45.35.085,Utility_discrimination_2024_2cat,2024.2.4,MacIntel,107.5268817,,,,,,,,4,"[0.5,0.5]","[0,1]",s,"[0.4101013484720555,0.4101013484720555]","[0.5898986515279445,0.5898986515279445]",149.6941,151.8008,1,s,1,0.5916,,0.115448335,0.56006762,0.444619285,151.8035,151.8035,0,42,42,42,1,-0.127155094,-0.127155094,shape_difference2,1,,TRUE,,intensity,0.1,0.05,0.7,0.3,0.82,20,400,1E-11,3.5,0.01,0.5,0.1,,,,,,,,,,,,,,,,,,,,,,,,,,,,,,,,,,,,,,,,,,,,,,,,,,,,,,,,,,,,,,,,,,,,,,,,,,,,,,,,,
,,,,,537791,001,2025-03-14_20h45.35.085,Utility_discrimination_2024_2cat,2024.2.4,MacIntel,107.5268817,,,,,,,,0,"[0.5,0.5]","[1,0]",s,"[0.5,0.7926898465273524]","[0.5,0.20731015347264758]",151.8045,154.0256,1,s,1,0.7101,,0.017569522,0.460819634,0.443250112,154.0274,154.0274,0,43,43,43,1,0.292689847,0.292689847,shape_difference4,1,,TRUE,,intensity,0.1,0.05,0.7,0.3,0.82,20,400,1E-11,3.5,0.01,0.5,0.1,,,,,,,,,,,,,,,,,,,,,,,,,,,,,,,,,,,,,,,,,,,,,,,,,,,,,,,,,,,,,,,,,,,,,,,,,,,,,,,,,
,,,,,537791,001,2025-03-14_20h45.35.085,Utility_discrimination_2024_2cat,2024.2.4,MacIntel,107.5268817,,,,,,,,0,"[0.5,0.5]","[1,0]",s,"[0.7073433495282743,0.5]","[0.29265665047172573,0.5]",154.029,156.4172,1,d,1,0.8719,,0.011343888,0.407493809,0.396149921,156.4191,156.4191,0,44,44,44,1,0.20734335,0.20734335,shape_difference0,1,,TRUE,,intensity,0.1,0.05,0.7,0.3,0.82,20,400,1E-11,3.5,0.01,0.5,0.1,,,,,,,,,,,,,,,,,,,,,,,,,,,,,,,,,,,,,,,,,,,,,,,,,,,,,,,,,,,,,,,,,,,,,,,,,,,,,,,,,
,,,,,537791,001,2025-03-14_20h45.35.085,Utility_discrimination_2024_2cat,2024.2.4,MacIntel,107.5268817,,,,,,,,2,"[0.5,0.5]","[0.707,0.707]",d,"[0.6866248210448489,0.5]","[0.31337517895515105,0.5]",156.4206,158.8512,1,d,1,0.9159,,-0.359805312,0.101294949,0.461100261,158.8543,158.8543,0,45,45,45,1,0.186624821,0.186624821,shape_difference0,1,,TRUE,,intensity,0.1,0.05,0.7,0.3,0.82,20,400,1E-11,3.5,0.01,0.5,0.1,,,,,,,,,,,,,,,,,,,,,,,,,,,,,,,,,,,,,,,,,,,,,,,,,,,,,,,,,,,,,,,,,,,,,,,,,,,,,,,,,
,,,,,537791,001,2025-03-14_20h45.35.085,Utility_discrimination_2024_2cat,2024.2.4,MacIntel,107.5268817,,,,,,,,3,"[0.5,0.5]","[0.383,0.924]",d,"[0.39441768979106084,0.39441768979106084]","[0.6055823102089392,0.6055823102089392]",158.8553,161.509,0,s,0,1.1435,,0.052208594,0.548255086,0.496046492,161.5109,161.5109,0,46,46,46,1,-0.149338487,-0.149338487,shape_difference2,1,,TRUE,,intensity,0.1,0.05,0.7,0.3,0.82,20,400,1E-11,3.5,0.01,0.5,0.1,,,,,,,,,,,,,,,,,,,,,,,,,,,,,,,,,,,,,,,,,,,,,,,,,,,,,,,,,,,,,,,,,,,,,,,,,,,,,,,,,
,,,,,537791,001,2025-03-14_20h45.35.085,Utility_discrimination_2024_2cat,2024.2.4,MacIntel,107.5268817,,,,,,,,4,"[0.5,0.5]","[0,1]",d,"[0.5995406291096784,0.7401450164421485]","[0.4004593708903216,0.2598549835578515]",161.5118,164.1925,1,s,1,1.1718,,0.111238008,0.503801063,0.392563055,164.1944,164.1944,0,47,47,47,1,0.259897204,0.259897204,shape_difference3,1,,TRUE,,intensity,0.1,0.05,0.7,0.3,0.82,20,400,1E-11,3.5,0.01,0.5,0.1,,,,,,,,,,,,,,,,,,,,,,,,,,,,,,,,,,,,,,,,,,,,,,,,,,,,,,,,,,,,,,,,,,,,,,,,,,,,,,,,,
,,,,,537791,001,2025-03-14_20h45.35.085,Utility_discrimination_2024_2cat,2024.2.4,MacIntel,107.5268817,,,,,,,,1,"[0.5,0.5]","[0.924,0.383]",s,"[0.5,0.7747063836288788]","[0.5,0.22529361637112116]",164.1952,166.408,1,s,1,0.7004,,0.224446693,0.613468906,0.389022213,166.4104,166.4105,0,48,48,48,1,0.274706384,0.274706384,shape_difference4,1,,TRUE,,intensity,0.1,0.05,0.7,0.3,0.82,20,400,1E-11,3.5,0.01,0.5,0.1,,,,,,,,,,,,,,,,,,,,,,,,,,,,,,,,,,,,,,,,,,,,,,,,,,,,,,,,,,,,,,,,,,,,,,,,,,,,,,,,,
,,,,,537791,001,2025-03-14_20h45.35.085,Utility_discrimination_2024_2cat,2024.2.4,MacIntel,107.5268817,,,,,,,,4,"[0.5,0.5]","[0,1]",s,"[0.8686261188116543,0.6527963241394628]","[0.1313738811883457,0.34720367586053724]",166.4112,168.5848,1,s,1,0.6586,,0.108132337,0.469309128,0.361176791,168.5894,168.5894,0,49,49,49,1,0.398946016,0.398946016,shape_difference1,1,,TRUE,,intensity,0.1,0.05,0.7,0.3,0.82,20,400,1E-11,3.5,0.01,0.5,0.1,,,,,,,,,,,,,,,,,,,,,,,,,,,,,,,,,,,,,,,,,,,,,,,,,,,,,,,,,,,,,,,,,,,,,,,,,,,,,,,,,
,,,,,537791,001,2025-03-14_20h45.35.085,Utility_discrimination_2024_2cat,2024.2.4,MacIntel,107.5268817,,,,,,,,0,"[0.5,0.5]","[1,0]",s,"[0.5,0.7595995875819994]","[0.5,0.24040041241800053]",168.5899,170.8105,1,d,1,0.7124,,0.006719151,0.375278343,0.368559192,170.8116,170.8116,0,50,50,50,1,0.259599588,0.259599588,shape_difference4,1,,TRUE,,intensity,0.1,0.05,0.7,0.3,0.82,20,400,1E-11,3.5,0.01,0.5,0.1,,,,,,,,,,,,,,,,,,,,,,,,,,,,,,,,,,,,,,,,,,,,,,,,,,,,,,,,,,,,,,,,,,,,,,,,,,,,,,,,,
,,,,,537791,001,2025-03-14_20h45.35.085,Utility_discrimination_2024_2cat,2024.2.4,MacIntel,107.5268817,,,,,,,,1,"[0.5,0.5]","[0.924,0.383]",d,"[0.6716587022825152,0.5]","[0.32834129771748477,0.5]",170.812,173.7997,1,s,1,1.4719,,0.218599115,0.583272892,0.364673777,173.8019,173.8019,0,51,51,51,1,0.171658702,0.171658702,shape_difference0,1,,TRUE,,intensity,0.1,0.05,0.7,0.3,0.82,20,400,1E-11,3.5,0.01,0.5,0.1,,,,,,,,,,,,,,,,,,,,,,,,,,,,,,,,,,,,,,,,,,,,,,,,,,,,,,,,,,,,,,,,,,,,,,,,,,,,,,,,,
,,,,,537791,001,2025-03-14_20h45.35.085,Utility_discrimination_2024_2cat,2024.2.4,MacIntel,107.5268817,,,,,,,,3,"[0.5,0.5]","[0.383,0.924]",s,"[0.8546604832541865,0.647007537972244]","[0.14533951674581347,0.352992462027756]",173.8029,176.0589,1,s,1,0.7392,,0.042531962,0.488072062,0.4455401,176.0608,176.0608,0,52,52,52,1,0.383831692,0.383831692,shape_difference1,1,,TRUE,,intensity,0.1,0.05,0.7,0.3,0.82,20,400,1E-11,3.5,0.01,0.5,0.1,,,,,,,,,,,,,,,,,,,,,,,,,,,,,,,,,,,,,,,,,,,,,,,,,,,,,,,,,,,,,,,,,,,,,,,,,,,,,,,,,
,,,,,537791,001,2025-03-14_20h45.35.085,Utility_discrimination_2024_2cat,2024.2.4,MacIntel,107.5268817,,,,,,,,2,"[0.5,0.5]","[0.707,0.707]",s,"[0.5903435572311182,0.7179567803695908]","[0.4096564427688818,0.28204321963040924]",176.0614,178.4172,1,s,1,0.8445,,-0.255222393,0.288199153,0.543421546,178.4191,178.4191,0,53,53,53,1,0.235883961,0.235883961,shape_difference3,1,,TRUE,,intensity,0.1,0.05,0.7,0.3,0.82,20,400,1E-11,3.5,0.01,0.5,0.1,,,,,,,,,,,,,,,,,,,,,,,,,,,,,,,,,,,,,,,,,,,,,,,,,,,,,,,,,,,,,,,,,,,,,,,,,,,,,,,,,
,,,,,537791,001,2025-03-14_20h45.35.085,Utility_discrimination_2024_2cat,2024.2.4,MacIntel,107.5268817,,,,,,,,0,"[0.5,0.5]","[1,0]",s,"[0.465183524137573,0.465183524137573]","[0.534816475862427,0.534816475862427]",178.4196,180.6016,1,s,1,0.6697,,0.003159992,0.338931455,0.335771463,180.6029,180.6029,0,54,54,54,1,-0.049245369,-0.049245369,shape_difference2,1,,TRUE,,intensity,0.1,0.05,0.7,0.3,0.82,20,400,1E-11,3.5,0.01,0.5,0.1,,,,,,,,,,,,,,,,,,,,,,,,,,,,,,,,,,,,,,,,,,,,,,,,,,,,,,,,,,,,,,,,,,,,,,,,,,,,,,,,,
,,,,,537791,001,2025-03-14_20h45.35.085,Utility_discrimination_2024_2cat,2024.2.4,MacIntel,107.5268817,,,,,,,,3,"[0.5,0.5]","[0.383,0.924]",s,"[0.6587926676908765,0.5]","[0.3412073323091235,0.5]",180.6035,182.7434,1,s,1,0.6328,,0.032193136,0.450055882,0.417862746,182.7449,182.7449,0,55,55,55,1,0.158792668,0.158792668,shape_difference0,1,,TRUE,,intensity,0.1,0.05,0.7,0.3,0.82,20,400,1E-11,3.5,0.01,0.5,0.1,,,,,,,,,,,,,,,,,,,,,,,,,,,,,,,,,,,,,,,,,,,,,,,,,,,,,,,,,,,,,,,,,,,,,,,,,,,,,,,,,
,,,,,537791,001,2025-03-14_20h45.35.085,Utility_discrimination_2024_2cat,2024.2.4,MacIntel,107.5268817,,,,,,,,2,"[0.5,0.5]","[0.707,0.707]",s,"[0.5809291190858284,0.6952441410843484]","[0.4190708809141716,0.3047558589156516]",182.7454,184.7667,1,s,1,0.5051,,-0.263445915,0.203387551,0.466833466,184.7692,184.7692,0,56,56,56,1,0.211303183,0.211303183,shape_difference3,1,,TRUE,,intensity,0.1,0.05,0.7,0.3,0.82,20,400,1E-11,3.5,0.01,0.5,0.1,,,,,,,,,,,,,,,,,,,,,,,,,,,,,,,,,,,,,,,,,,,,,,,,,,,,,,,,,,,,,,,,,,,,,,,,,,,,,,,,,
,,,,,537791,001,2025-03-14_20h45.35.085,Utility_discrimination_2024_2cat,2024.2.4,MacIntel,107.5268817,,,,,,,,1,"[0.5,0.5]","[0.924,0.383]",s,"[0.4471006965923031,0.4471006965923031]","[0.5528993034076969,0.5528993034076969]",184.7701,187.2087,1,d,1,0.9194,,0.214267502,0.555417818,0.341150316,187.2095,187.2095,0,57,57,57,1,-0.074822211,-0.074822211,shape_difference2,1,,TRUE,,intensity,0.1,0.05,0.7,0.3,0.82,20,400,1E-11,3.5,0.01,0.5,0.1,,,,,,,,,,,,,,,,,,,,,,,,,,,,,,,,,,,,,,,,,,,,,,,,,,,,,,,,,,,,,,,,,,,,,,,,,,,,,,,,,
,,,,,537791,001,2025-03-14_20h45.35.085,Utility_discrimination_2024_2cat,2024.2.4,MacIntel,107.5268817,,,,,,,,4,"[0.5,0.5]","[0,1]",d,"[0.8430500684909988,0.6421949959221348]","[0.15694993150900116,0.3578050040778652]",187.2103,190.1006,1,s,1,1.3756,,0.105761394,0.425944503,0.320183109,190.1019,190.1019,0,58,58,58,1,0.371266308,0.371266308,shape_difference1,1,,TRUE,,intensity,0.1,0.05,0.7,0.3,0.82,20,400,1E-11,3.5,0.01,0.5,0.1,,,,,,,,,,,,,,,,,,,,,,,,,,,,,,,,,,,,,,,,,,,,,,,,,,,,,,,,,,,,,,,,,,,,,,,,,,,,,,,,,
,,,,,537791,001,2025-03-14_20h45.35.085,Utility_discrimination_2024_2cat,2024.2.4,MacIntel,107.5268817,,,,,,,,0,"[0.5,0.5]","[1,0]",s,"[0.5,0.7462717553427822]","[0.5,0.25372824465721777]",190.1023,192.1496,1,d,1,0.5328,,0.000321923,0.297422764,0.297100842,192.1513,192.1514,0,59,59,59,1,0.246271755,0.246271755,shape_difference4,1,,TRUE,,intensity,0.1,0.05,0.7,0.3,0.82,20,400,1E-11,3.5,0.01,0.5,0.1,,,,,,,,,,,,,,,,,,,,,,,,,,,,,,,,,,,,,,,,,,,,,,,,,,,,,,,,,,,,,,,,,,,,,,,,,,,,,,,,,
,,,,,537791,001,2025-03-14_20h45.35.085,Utility_discrimination_2024_2cat,2024.2.4,MacIntel,107.5268817,,,,,,,,2,"[0.5,0.5]","[0.707,0.707]",d,"[0.6471997091638173,0.5]","[0.3528002908361827,0.5]",192.1518,194.658,0,s,0,0.9879,,-0.272333031,0.153245759,0.425578791,194.6603,194.6603,0,60,60,60,1,0.147199709,0.147199709,shape_difference0,1,,TRUE,,intensity,0.1,0.05,0.7,0.3,0.82,20,400,1E-11,3.5,0.01,0.5,0.1,,,,,,,,,,,,,,,,,,,,,,,,,,,,,,,,,,,,,,,,,,,,,,,,,,,,,,,,,,,,,,,,,,,,,,,,,,,,,,,,,
,,,,,537791,001,2025-03-14_20h45.35.085,Utility_discrimination_2024_2cat,2024.2.4,MacIntel,107.5268817,,,,,,,,1,"[0.5,0.5]","[0.924,0.383]",d,"[0.4286005738798375,0.4286005738798375]","[0.5713994261201625,0.5713994261201625]",194.661,196.8172,1,s,1,0.597,,0.210970685,0.517889905,0.306919221,196.8188,196.8188,0,61,61,61,1,-0.100989287,-0.100989287,shape_difference2,1,,TRUE,,intensity,0.1,0.05,0.7,0.3,0.82,20,400,1E-11,3.5,0.01,0.5,0.1,,,,,,,,,,,,,,,,,,,,,,,,,,,,,,,,,,,,,,,,,,,,,,,,,,,,,,,,,,,,,,,,,,,,,,,,,,,,,,,,,
,,,,,537791,001,2025-03-14_20h45.35.085,Utility_discrimination_2024_2cat,2024.2.4,MacIntel,107.5268817,,,,,,,,3,"[0.5,0.5]","[0.383,0.924]",s,"[0.8330062810142091,0.6380318242732057]","[0.1669937189857908,0.36196817572679424]",196.8195,201.4165,1,s,1,3.0389,,0.024870842,0.398409191,0.373538349,201.4207,201.4207,0,62,62,62,1,0.360396408,0.360396408,shape_difference1,1,,TRUE,,intensity,0.1,0.05,0.7,0.3,0.82,20,400,1E-11,3.5,0.01,0.5,0.1,,,,,,,,,,,,,,,,,,,,,,,,,,,,,,,,,,,,,,,,,,,,,,,,,,,,,,,,,,,,,,,,,,,,,,,,,,,,,,,,,
,,,,,537791,001,2025-03-14_20h45.35.085,Utility_discrimination_2024_2cat,2024.2.4,MacIntel,107.5268817,,,,,,,,4,"[0.5,0.5]","[0,1]",s,"[0.573239446782053,0.676692555683073]","[0.42676055321794704,0.323307444316927]",201.4221,203.9512,1,s,1,0.9746,,0.102980709,0.394724784,0.291744075,203.9572,203.9572,0,63,63,63,1,0.19122571,0.19122571,shape_difference3,1,,TRUE,,intensity,0.1,0.05,0.7,0.3,0.82,20,400,1E-11,3.5,0.01,0.5,0.1,,,,,,,,,,,,,,,,,,,,,,,,,,,,,,,,,,,,,,,,,,,,,,,,,,,,,,,,,,,,,,,,,,,,,,,,,,,,,,,,,
,,,,,537791,001,2025-03-14_20h45.35.085,Utility_discrimination_2024_2cat,2024.2.4,MacIntel,107.5268817,,,,,,,,0,"[0.5,0.5]","[1,0]",s,"[0.5,0.7330457407250577]","[0.5,0.26695425927494226]",203.9578,205.8172,1,d,1,0.316,,0.019165456,0.354556833,0.335391378,205.8191,205.8191,0,64,64,64,1,0.233045741,0.233045741,shape_difference4,1,,TRUE,,intensity,0.1,0.05,0.7,0.3,0.82,20,400,1E-11,3.5,0.01,0.5,0.1,,,,,,,,,,,,,,,,,,,,,,,,,,,,,,,,,,,,,,,,,,,,,,,,,,,,,,,,,,,,,,,,,,,,,,,,,,,,,,,,,
,,,,,537791,001,2025-03-14_20h45.35.085,Utility_discrimination_2024_2cat,2024.2.4,MacIntel,107.5268817,,,,,,,,1,"[0.5,0.5]","[0.924,0.383]",d,"[0.6735644356209548,0.5]","[0.3264355643790452,0.5]",205.8196,208.3513,1,d,1,0.9651,,0.208393053,0.492792896,0.284399843,208.3548,208.3548,0,65,65,65,1,0.173564436,0.173564436,shape_difference0,1,,TRUE,,intensity,0.1,0.05,0.7,0.3,0.82,20,400,1E-11,3.5,0.01,0.5,0.1,,,,,,,,,,,,,,,,,,,,,,,,,,,,,,,,,,,,,,,,,,,,,,,,,,,,,,,,,,,,,,,,,,,,,,,,,,,,,,,,,
,,,,,537791,001,2025-03-14_20h45.35.085,Utility_discrimination_2024_2cat,2024.2.4,MacIntel,107.5268817,,,,,,,,2,"[0.5,0.5]","[0.707,0.707]",d,"[0.8239382163071026,0.6342730918242644]","[0.17606178369289738,0.3657269081757356]",208.3557,211.7843,1,s,1,1.8666,,-0.278679383,0.094397759,0.373077142,211.7873,211.7873,0,66,66,66,1,0.350582485,0.350582485,shape_difference1,1,,TRUE,,intensity,0.1,0.05,0.7,0.3,0.82,20,400,1E-11,3.5,0.01,0.5,0.1,,,,,,,,,,,,,,,,,,,,,,,,,,,,,,,,,,,,,,,,,,,,,,,,,,,,,,,,,,,,,,,,,,,,,,,,,,,,,,,,,
,,,,,537791,001,2025-03-14_20h45.35.085,Utility_discrimination_2024_2cat,2024.2.4,MacIntel,107.5268817,,,,,,,,4,"[0.5,0.5]","[0,1]",s,"[0.4182249975209294,0.4182249975209294]","[0.5817750024790707,0.5817750024790707]",211.7892,214.3505,0,d,0,1.0008,,0.100412294,0.379720971,0.279308677,214.3525,214.3525,0,67,67,67,1,-0.115664784,-0.115664784,shape_difference2,1,,TRUE,,intensity,0.1,0.05,0.7,0.3,0.82,20,400,1E-11,3.5,0.01,0.5,0.1,,,,,,,,,,,,,,,,,,,,,,,,,,,,,,,,,,,,,,,,,,,,,,,,,,,,,,,,,,,,,,,,,,,,,,,,,,,,,,,,,
,,,,,537791,001,2025-03-14_20h45.35.085,Utility_discrimination_2024_2cat,2024.2.4,MacIntel,107.5268817,,,,,,,,3,"[0.5,0.5]","[0.383,0.924]",s,"[0.5,0.7186646631382374]","[0.5,0.2813353368617626]",214.3531,216.4836,1,s,1,0.5696,,0.019548654,0.372514539,0.352965885,216.4854,216.4854,0,68,68,68,1,0.218664663,0.218664663,shape_difference4,1,,TRUE,,intensity,0.1,0.05,0.7,0.3,0.82,20,400,1E-11,3.5,0.01,0.5,0.1,,,,,,,,,,,,,,,,,,,,,,,,,,,,,,,,,,,,,,,,,,,,,,,,,,,,,,,,,,,,,,,,,,,,,,,,,,,,,,,,,
,,,,,537791,001,2025-03-14_20h45.35.085,Utility_discrimination_2024_2cat,2024.2.4,MacIntel,107.5268817,,,,,,,,2,"[0.5,0.5]","[0.707,0.707]",s,"[0.5682517031390552,0.6646594613589738]","[0.43174829686094485,0.3353405386410262]",216.4858,219.2171,1,s,1,1.1823,,-0.199374427,0.213464368,0.412838795,219.2194,219.2194,0,69,69,69,1,0.17820288,0.17820288,shape_difference3,1,,TRUE,,intensity,0.1,0.05,0.7,0.3,0.82,20,400,1E-11,3.5,0.01,0.5,0.1,,,,,,,,,,,,,,,,,,,,,,,,,,,,,,,,,,,,,,,,,,,,,,,,,,,,,,,,,,,,,,,,,,,,,,,,,,,,,,,,,
,,,,,537791,001,2025-03-14_20h45.35.085,Utility_discrimination_2024_2cat,2024.2.4,MacIntel,107.5268817,,,,,,,,1,"[0.5,0.5]","[0.924,0.383]",s,"[0.46186480482937786,0.46186480482937786]","[0.5381351951706221,0.5381351951706221]",219.2199,221.3504,1,s,1,0.5846,,0.206324045,0.480193761,0.273869716,221.352,221.352,0,70,70,70,1,-0.053939456,-0.053939456,shape_difference2,1,,TRUE,,intensity,0.1,0.05,0.7,0.3,0.82,20,400,1E-11,3.5,0.01,0.5,0.1,,,,,,,,,,,,,,,,,,,,,,,,,,,,,,,,,,,,,,,,,,,,,,,,,,,,,,,,,,,,,,,,,,,,,,,,,,,,,,,,,
,,,,,537791,001,2025-03-14_20h45.35.085,Utility_discrimination_2024_2cat,2024.2.4,MacIntel,107.5268817,,,,,,,,4,"[0.5,0.5]","[0,1]",s,"[0.8153878426240291,0.630728943425328]","[0.18461215737597098,0.36927105657467196]",221.3524,224.0161,1,d,1,1.1221,,0.082142793,0.361239149,0.279096357,224.0174,224.0174,0,71,71,71,1,0.341328834,0.341328834,shape_difference1,1,,TRUE,,intensity,0.1,0.05,0.7,0.3,0.82,20,400,1E-11,3.5,0.01,0.5,0.1,,,,,,,,,,,,,,,,,,,,,,,,,,,,,,,,,,,,,,,,,,,,,,,,,,,,,,,,,,,,,,,,,,,,,,,,,,,,,,,,,
,,,,,537791,001,2025-03-14_20h45.35.085,Utility_discrimination_2024_2cat,2024.2.4,MacIntel,107.5268817,,,,,,,,0,"[0.5,0.5]","[1,0]",d,"[0.5,0.7025207796668923]","[0.5,0.2974792203331077]",224.0178,227.017,1,s,1,1.468,,0.015524725,0.315526656,0.300001931,227.0186,227.0186,0,72,72,72,1,0.20252078,0.20252078,shape_difference4,1,,TRUE,,intensity,0.1,0.05,0.7,0.3,0.82,20,400,1E-11,3.5,0.01,0.5,0.1,,,,,,,,,,,,,,,,,,,,,,,,,,,,,,,,,,,,,,,,,,,,,,,,,,,,,,,,,,,,,,,,,,,,,,,,,,,,,,,,,
,,,,,537791,001,2025-03-14_20h45.35.085,Utility_discrimination_2024_2cat,2024.2.4,MacIntel,107.5268817,,,,,,,,3,"[0.5,0.5]","[0.383,0.924]",s,"[0.6637678167546156,0.5]","[0.3362321832453844,0.5]",227.0196,229.117,1,s,1,0.5491,,0.015578644,0.338729091,0.323150446,229.1183,229.1183,0,73,73,73,1,0.163767817,0.163767817,shape_difference0,1,,TRUE,,intensity,0.1,0.05,0.7,0.3,0.82,20,400,1E-11,3.5,0.01,0.5,0.1,,,,,,,,,,,,,,,,,,,,,,,,,,,,,,,,,,,,,,,,,,,,,,,,,,,,,,,,,,,,,,,,,,,,,,,,,,,,,,,,,
,,,,,537791,001,2025-03-14_20h45.35.085,Utility_discrimination_2024_2cat,2024.2.4,MacIntel,107.5268817,,,,,,,,4,"[0.5,0.5]","[0,1]",s,"[0.5640609946633358,0.6545492403888311]","[0.4359390053366642,0.3454507596111689]",229.1193,231.1837,1,s,1,0.5018,,0.065868651,0.337706801,0.27183815,231.1851,231.1851,0,74,74,74,1,0.167261083,0.167261083,shape_difference3,1,,TRUE,,intensity,0.1,0.05,0.7,0.3,0.82,20,400,1E-11,3.5,0.01,0.5,0.1,,,,,,,,,,,,,,,,,,,,,,,,,,,,,,,,,,,,,,,,,,,,,,,,,,,,,,,,,,,,,,,,,,,,,,,,,,,,,,,,,
,,,,,537791,001,2025-03-14_20h45.35.085,Utility_discrimination_2024_2cat,2024.2.4,MacIntel,107.5268817,,,,,,,,0,"[0.5,0.5]","[1,0]",s,"[0.5,0.6916134933832794]","[0.5,0.3083865066167206]",231.1856,233.9837,1,d,1,1.2539,,0.012710136,0.292562632,0.279852496,233.9848,233.9848,0,75,75,75,1,0.191613493,0.191613493,shape_difference4,1,,TRUE,,intensity,0.1,0.05,0.7,0.3,0.82,20,400,1E-11,3.5,0.01,0.5,0.1,,,,,,,,,,,,,,,,,,,,,,,,,,,,,,,,,,,,,,,,,,,,,,,,,,,,,,,,,,,,,,,,,,,,,,,,,,,,,,,,,
,,,,,537791,001,2025-03-14_20h45.35.085,Utility_discrimination_2024_2cat,2024.2.4,MacIntel,107.5268817,,,,,,,,1,"[0.5,0.5]","[0.924,0.383]",d,"[0.6550456038374535,0.5]","[0.34495439616254653,0.5]",233.9861,236.6509,0,d,0,1.0959,,0.203698273,0.467844444,0.264146171,236.6538,236.6538,0,76,76,76,1,0.155045604,0.155045604,shape_difference0,1,,TRUE,,intensity,0.1,0.05,0.7,0.3,0.82,20,400,1E-11,3.5,0.01,0.5,0.1,,,,,,,,,,,,,,,,,,,,,,,,,,,,,,,,,,,,,,,,,,,,,,,,,,,,,,,,,,,,,,,,,,,,,,,,,,,,,,,,,
,,,,,537791,001,2025-03-14_20h45.35.085,Utility_discrimination_2024_2cat,2024.2.4,MacIntel,107.5268817,,,,,,,,2,"[0.5,0.5]","[0.707,0.707]",s,"[0.8058981703044774,0.6267954537084576]","[0.19410182969552264,0.3732045462915424]",236.6551,239.1176,0,d,0,0.8973,,-0.220019386,0.166958724,0.38697811,239.1205,239.1205,0,77,77,77,1,0.331058626,0.331058626,shape_difference1,1,,TRUE,,intensity,0.1,0.05,0.7,0.3,0.82,20,400,1E-11,3.5,0.01,0.5,0.1,,,,,,,,,,,,,,,,,,,,,,,,,,,,,,,,,,,,,,,,,,,,,,,,,,,,,,,,,,,,,,,,,,,,,,,,,,,,,,,,,
,,,,,537791,001,2025-03-14_20h45.35.085,Utility_discrimination_2024_2cat,2024.2.4,MacIntel,107.5268817,,,,,,,,3,"[0.5,0.5]","[0.383,0.924]",s,"[0.44843767399701456,0.44843767399701456]","[0.5515623260029854,0.5515623260029854]",239.1225,241.8509,1,s,1,1.1634,,0.012540947,0.298473191,0.285932244,241.8563,241.8563,0,78,78,78,1,-0.072931154,-0.072931154,shape_difference2,1,,TRUE,,intensity,0.1,0.05,0.7,0.3,0.82,20,400,1E-11,3.5,0.01,0.5,0.1,,,,,,,,,,,,,,,,,,,,,,,,,,,,,,,,,,,,,,,,,,,,,,,,,,,,,,,,,,,,,,,,,,,,,,,,,,,,,,,,,
,,,,,537791,001,2025-03-14_20h45.35.085,Utility_discrimination_2024_2cat,2024.2.4,MacIntel,107.5268817,,,,,,,,0,"[0.5,0.5]","[1,0]",s,"[0.56039287476836,0.645699781425495]","[0.4396071252316401,0.354300218574505]",241.8572,244.0839,1,d,1,0.6756,,0.052737406,0.372522322,0.319784916,244.0877,244.0877,0,79,79,79,1,0.157683746,0.157683746,shape_difference3,1,,TRUE,,intensity,0.1,0.05,0.7,0.3,0.82,20,400,1E-11,3.5,0.01,0.5,0.1,,,,,,,,,,,,,,,,,,,,,,,,,,,,,,,,,,,,,,,,,,,,,,,,,,,,,,,,,,,,,,,,,,,,,,,,,,,,,,,,,
,,,,,537791,001,2025-03-14_20h45.35.085,Utility_discrimination_2024_2cat,2024.2.4,MacIntel,107.5268817,,,,,,,,4,"[0.5,0.5]","[0,1]",d,"[0.6921959062142904,0.5]","[0.3078040937857096,0.5]",244.0887,246.6178,1,s,1,0.9713,,0.053607621,0.306907835,0.253300214,246.6224,246.6225,0,80,80,80,1,0.192195906,0.192195906,shape_difference0,1,,TRUE,,intensity,0.1,0.05,0.7,0.3,0.82,20,400,1E-11,3.5,0.01,0.5,0.1,,,,,,,,,,,,,,,,,,,,,,,,,,,,,,,,,,,,,,,,,,,,,,,,,,,,,,,,,,,,,,,,,,,,,,,,,,,,,,,,,
,,,,,537791,001,2025-03-14_20h45.35.085,Utility_discrimination_2024_2cat,2024.2.4,MacIntel,107.5268817,,,,,,,,2,"[0.5,0.5]","[0.707,0.707]",s,"[0.5,0.6834795976407776]","[0.5,0.3165204023592224]",246.6233,248.817,1,d,1,0.6549,,-0.237718258,0.112634416,0.350352674,248.8187,248.8188,0,81,81,81,1,0.183479598,0.183479598,shape_difference4,1,,TRUE,,intensity,0.1,0.05,0.7,0.3,0.82,20,400,1E-11,3.5,0.01,0.5,0.1,,,,,,,,,,,,,,,,,,,,,,,,,,,,,,,,,,,,,,,,,,,,,,,,,,,,,,,,,,,,,,,,,,,,,,,,,,,,,,,,,
,,,,,537791,001,2025-03-14_20h45.35.085,Utility_discrimination_2024_2cat,2024.2.4,MacIntel,107.5268817,,,,,,,,3,"[0.5,0.5]","[0.383,0.924]",d,"[0.43402847984876003,0.43402847984876003]","[0.56597152015124,0.56597152015124]",248.8192,251.1835,0,s,0,0.8013,,0.010158722,0.286742952,0.27658423,251.1852,251.1852,0,82,82,82,1,-0.09331191,-0.09331191,shape_difference2,1,,TRUE,,intensity,0.1,0.05,0.7,0.3,0.82,20,400,1E-11,3.5,0.01,0.5,0.1,,,,,,,,,,,,,,,,,,,,,,,,,,,,,,,,,,,,,,,,,,,,,,,,,,,,,,,,,,,,,,,,,,,,,,,,,,,,,,,,,
,,,,,537791,001,2025-03-14_20h45.35.085,Utility_discrimination_2024_2cat,2024.2.4,MacIntel,107.5268817,,,,,,,,1,"[0.5,0.5]","[0.924,0.383]",d,"[0.5570407034696114,0.6376125587621957]","[0.4429592965303886,0.3623874412378043]",251.1858,253.5503,1,d,1,0.8043,,0.214995285,0.490397596,0.275402311,253.5517,253.5518,0,83,83,83,1,0.148931341,0.148931341,shape_difference3,1,,TRUE,,intensity,0.1,0.05,0.7,0.3,0.82,20,400,1E-11,3.5,0.01,0.5,0.1,,,,,,,,,,,,,,,,,,,,,,,,,,,,,,,,,,,,,,,,,,,,,,,,,,,,,,,,,,,,,,,,,,,,,,,,,,,,,,,,,
,,,,,537791,001,2025-03-14_20h45.35.085,Utility_discrimination_2024_2cat,2024.2.4,MacIntel,107.5268817,,,,,,,,1,"[0.5,0.5]","[0.924,0.383]",d,"[0.8290161341177138,0.6363778997479268]","[0.17098386588228615,0.3636221002520732]",253.5522,256.5669,1,d,1,1.5003,,0.212757162,0.479140643,0.266383481,256.5685,256.5685,0,84,84,84,1,0.356078067,0.356078067,shape_difference1,1,,TRUE,,intensity,0.1,0.05,0.7,0.3,0.82,20,400,1E-11,3.5,0.01,0.5,0.1,,,,,,,,,,,,,,,,,,,,,,,,,,,,,,,,,,,,,,,,,,,,,,,,,,,,,,,,,,,,,,,,,,,,,,,,,,,,,,,,,
,,,,,537791,001,2025-03-14_20h45.35.085,Utility_discrimination_2024_2cat,2024.2.4,MacIntel,107.5268817,,,,,,,,0,"[0.5,0.5]","[1,0]",d,"[0.822076296902844,0.6335013222010706]","[0.177923703097156,0.3664986777989294]",256.5689,258.8999,1,d,1,0.8141,,0.042830502,0.345516764,0.302686261,258.9015,258.9015,0,85,85,85,1,0.348567421,0.348567421,shape_difference1,1,,TRUE,,intensity,0.1,0.05,0.7,0.3,0.82,20,400,1E-11,3.5,0.01,0.5,0.1,,,,,,,,,,,,,,,,,,,,,,,,,,,,,,,,,,,,,,,,,,,,,,,,,,,,,,,,,,,,,,,,,,,,,,,,,,,,,,,,,
,,,,,537791,001,2025-03-14_20h45.35.085,Utility_discrimination_2024_2cat,2024.2.4,MacIntel,107.5268817,,,,,,,,3,"[0.5,0.5]","[0.383,0.924]",d,"[0.6829099004178246,0.5]","[0.3170900995821754,0.5]",258.9028,261.4417,1,d,1,1.0204,,0.007538402,0.275989988,0.268451587,261.4429,261.4429,0,86,86,86,1,0.1829099,0.1829099,shape_difference0,1,,TRUE,,intensity,0.1,0.05,0.7,0.3,0.82,20,400,1E-11,3.5,0.01,0.5,0.1,,,,,,,,,,,,,,,,,,,,,,,,,,,,,,,,,,,,,,,,,,,,,,,,,,,,,,,,,,,,,,,,,,,,,,,,,,,,,,,,,
,,,,,537791,001,2025-03-14_20h45.35.085,Utility_discrimination_2024_2cat,2024.2.4,MacIntel,107.5268817,,,,,,,,4,"[0.5,0.5]","[0,1]",d,"[0.5535810590387924,0.6292660536601675]","[0.4464189409612076,0.3707339463398325]",261.4433,264.0253,0,d,0,1.0668,,0.044221174,0.295201551,0.250980377,264.0279,264.0279,0,87,87,87,1,0.139898326,0.139898326,shape_difference3,1,,TRUE,,intensity,0.1,0.05,0.7,0.3,0.82,20,400,1E-11,3.5,0.01,0.5,0.1,,,,,,,,,,,,,,,,,,,,,,,,,,,,,,,,,,,,,,,,,,,,,,,,,,,,,,,,,,,,,,,,,,,,,,,,,,,,,,,,,
,,,,,537791,001,2025-03-14_20h45.35.085,Utility_discrimination_2024_2cat,2024.2.4,MacIntel,107.5268817,,,,,,,,2,"[0.5,0.5]","[0.707,0.707]",s,"[0.5,0.6767074710941842]","[0.5,0.32329252890581583]",264.029,265.8419,1,d,1,0.2994,,-0.19089464,0.209575627,0.400470267,265.8437,265.8437,0,88,88,88,1,0.176707471,0.176707471,shape_difference4,1,,TRUE,,intensity,0.1,0.05,0.7,0.3,0.82,20,400,1E-11,3.5,0.01,0.5,0.1,,,,,,,,,,,,,,,,,,,,,,,,,,,,,,,,,,,,,,,,,,,,,,,,,,,,,,,,,,,,,,,,,,,,,,,,,,,,,,,,,
,,,,,537791,001,2025-03-14_20h45.35.085,Utility_discrimination_2024_2cat,2024.2.4,MacIntel,107.5268817,,,,,,,,0,"[0.5,0.5]","[1,0]",d,"[0.4689685373188918,0.4689685373188918]","[0.5310314626811082,0.5310314626811082]",265.8442,269.1667,1,d,1,1.8048,,0.035360484,0.310175781,0.274815297,269.1687,269.1687,0,89,89,89,1,-0.043891744,-0.043891744,shape_difference2,1,,TRUE,,intensity,0.1,0.05,0.7,0.3,0.82,20,400,1E-11,3.5,0.01,0.5,0.1,,,,,,,,,,,,,,,,,,,,,,,,,,,,,,,,,,,,,,,,,,,,,,,,,,,,,,,,,,,,,,,,,,,,,,,,,,,,,,,,,
,,,,,537791,001,2025-03-14_20h45.35.085,Utility_discrimination_2024_2cat,2024.2.4,MacIntel,107.5268817,,,,,,,,3,"[0.5,0.5]","[0.383,0.924]",d,"[0.6752646111941388,0.5]","[0.32473538880586117,0.5]",269.1702,271.9418,0,d,0,1.2592,,0.018190734,0.295129228,0.276938495,271.9433,271.9434,0,90,90,90,1,0.175264611,0.175264611,shape_difference0,1,,TRUE,,intensity,0.1,0.05,0.7,0.3,0.82,20,400,1E-11,3.5,0.01,0.5,0.1,,,,,,,,,,,,,,,,,,,,,,,,,,,,,,,,,,,,,,,,,,,,,,,,,,,,,,,,,,,,,,,,,,,,,,,,,,,,,,,,,
,,,,,537791,001,2025-03-14_20h45.35.085,Utility_discrimination_2024_2cat,2024.2.4,MacIntel,107.5268817,,,,,,,,1,"[0.5,0.5]","[0.924,0.383]",s,"[0.5617979033878576,0.6490894588260586]","[0.4382020966121424,0.3509105411739414]",271.9447,274.3835,1,s,1,0.927,,0.210482315,0.468367705,0.257885389,274.3848,274.3848,0,91,91,91,1,0.161352228,0.161352228,shape_difference3,1,,TRUE,,intensity,0.1,0.05,0.7,0.3,0.82,20,400,1E-11,3.5,0.01,0.5,0.1,,,,,,,,,,,,,,,,,,,,,,,,,,,,,,,,,,,,,,,,,,,,,,,,,,,,,,,,,,,,,,,,,,,,,,,,,,,,,,,,,
,,,,,537791,001,2025-03-14_20h45.35.085,Utility_discrimination_2024_2cat,2024.2.4,MacIntel,107.5268817,,,,,,,,2,"[0.5,0.5]","[0.707,0.707]",s,"[0.8147863191968806,0.6304796106627762]","[0.1852136808031194,0.36952038933722375]",274.386,276.8418,0,d,0,0.9405,,-0.192938365,0.155114928,0.348053292,276.8431,276.8431,0,92,92,92,1,0.340677835,0.340677835,shape_difference1,1,,TRUE,,intensity,0.1,0.05,0.7,0.3,0.82,20,400,1E-11,3.5,0.01,0.5,0.1,,,,,,,,,,,,,,,,,,,,,,,,,,,,,,,,,,,,,,,,,,,,,,,,,,,,,,,,,,,,,,,,,,,,,,,,,,,,,,,,,
,,,,,537791,001,2025-03-14_20h45.35.085,Utility_discrimination_2024_2cat,2024.2.4,MacIntel,107.5268817,,,,,,,,4,"[0.5,0.5]","[0,1]",s,"[0.4582256131765851,0.4582256131765851]","[0.5417743868234148,0.5417743868234148]",276.8438,279.5752,0,s,0,1.2205,,0.036926171,0.289037533,0.252111363,279.5767,279.5768,0,93,93,93,1,-0.059086827,-0.059086827,shape_difference2,1,,TRUE,,intensity,0.1,0.05,0.7,0.3,0.82,20,400,1E-11,3.5,0.01,0.5,0.1,,,,,,,,,,,,,,,,,,,,,,,,,,,,,,,,,,,,,,,,,,,,,,,,,,,,,,,,,,,,,,,,,,,,,,,,,,,,,,,,,
,,,,,537791,001,2025-03-14_20h45.35.085,Utility_discrimination_2024_2cat,2024.2.4,MacIntel,107.5268817,,,,,,,,2,"[0.5,0.5]","[0.707,0.707]",d,"[0.5,0.670941841749314]","[0.5,0.329058158250686]",279.5775,282.6256,0,s,0,1.5333,,-0.182953117,0.234055668,0.417008785,282.6271,282.6271,0,94,94,94,1,0.170941842,0.170941842,shape_difference4,1,,TRUE,,intensity,0.1,0.05,0.7,0.3,0.82,20,400,1E-11,3.5,0.01,0.5,0.1,,,,,,,,,,,,,,,,,,,,,,,,,,,,,,,,,,,,,,,,,,,,,,,,,,,,,,,,,,,,,,,,,,,,,,,,,,,,,,,,,
,,,,,537791,001,2025-03-14_20h45.35.085,Utility_discrimination_2024_2cat,2024.2.4,MacIntel,107.5268817,,,,,,,,1,"[0.5,0.5]","[0.924,0.383]",d,"[0.480940203369055,0.480940203369055]","[0.5190597966309449,0.5190597966309449]",282.6281,284.9835,0,s,0,0.8414,,0.219327014,0.48771774,0.268390727,284.9853,284.9853,0,95,95,95,1,-0.026958694,-0.026958694,shape_difference2,1,,TRUE,,intensity,0.1,0.05,0.7,0.3,0.82,20,400,1E-11,3.5,0.01,0.5,0.1,,,,,,,,,,,,,,,,,,,,,,,,,,,,,,,,,,,,,,,,,,,,,,,,,,,,,,,,,,,,,,,,,,,,,,,,,,,,,,,,,
,,,,,537791,001,2025-03-14_20h45.35.085,Utility_discrimination_2024_2cat,2024.2.4,MacIntel,107.5268817,,,,,,,,4,"[0.5,0.5]","[0,1]",d,"[0.8321291194892415,0.6376682389224887]","[0.16787088051075844,0.3623317610775113]",284.9862,287.0417,1,d,1,0.5471,,0.102435537,0.322746939,0.220311402,287.0428,287.0428,0,96,96,96,1,0.359447099,0.359447099,shape_difference1,1,,TRUE,,intensity,0.1,0.05,0.7,0.3,0.82,20,400,1E-11,3.5,0.01,0.5,0.1,,,,,,,,,,,,,,,,,,,,,,,,,,,,,,,,,,,,,,,,,,,,,,,,,,,,,,,,,,,,,,,,,,,,,,,,,,,,,,,,,
,,,,,537791,001,2025-03-14_20h45.35.085,Utility_discrimination_2024_2cat,2024.2.4,MacIntel,107.5268817,,,,,,,,0,"[0.5,0.5]","[1,0]",d,"[0.5,0.6940282278694554]","[0.5,0.3059717721305446]",287.0435,289.5511,1,d,1,0.9873,,0.102633478,0.379498728,0.27686525,289.554,289.5542,0,97,97,97,1,0.194028228,0.194028228,shape_difference4,1,,TRUE,,intensity,0.1,0.05,0.7,0.3,0.82,20,400,1E-11,3.5,0.01,0.5,0.1,,,,,,,,,,,,,,,,,,,,,,,,,,,,,,,,,,,,,,,,,,,,,,,,,,,,,,,,,,,,,,,,,,,,,,,,,,,,,,,,,
,,,,,537791,001,2025-03-14_20h45.35.085,Utility_discrimination_2024_2cat,2024.2.4,MacIntel,107.5268817,,,,,,,,3,"[0.5,0.5]","[0.383,0.924]",d,"[0.708074034266916,0.5]","[0.29192596573308405,0.5]",289.5553,291.7251,0,s,0,0.6578,,0.015493655,0.284567295,0.26907364,291.7265,291.7266,0,98,98,98,1,0.208074034,0.208074034,shape_difference0,1,,TRUE,,intensity,0.1,0.05,0.7,0.3,0.82,20,400,1E-11,3.5,0.01,0.5,0.1,,,,,,,,,,,,,,,,,,,,,,,,,,,,,,,,,,,,,,,,,,,,,,,,,,,,,,,,,,,,,,,,,,,,,,,,,,,,,,,,,
,,,,,537791,001,2025-03-14_20h45.35.085,Utility_discrimination_2024_2cat,2024.2.4,MacIntel,107.5268817,,,,,,,,2,"[0.5,0.5]","[0.707,0.707]",d,"[0.5590278431014646,0.642406597978468]","[0.4409721568985354,0.357593402021532]",291.7272,293.9835,1,d,1,0.7426,,-0.130202381,0.380897033,0.511099414,293.9855,293.9856,0,99,99,99,1,0.154119695,0.154119695,shape_difference3,1,,TRUE,,intensity,0.1,0.05,0.7,0.3,0.82,20,400,1E-11,3.5,0.01,0.5,0.1,,,,,,,,,,,,,,,,,,,,,,,,,,,,,,,,,,,,,,,,,,,,,,,,,,,,,,,,,,,,,,,,,,,,,,,,,,,,,,,,,
,,,,,537791,001,2025-03-14_20h45.35.085,Utility_discrimination_2024_2cat,2024.2.4,MacIntel,107.5268817,,,,,,,,4,"[0.5,0.5]","[0,1]",d,"[0.5334417271994348,0.5334417271994348]","[0.4665582728005652,0.4665582728005652]",293.9868,296.3158,0,s,0,0.8192,,0.100957435,0.298687007,0.197729572,296.3169,296.3169,0,100,100,100,1,0.047300887,0.047300887,shape_difference2,1,,TRUE,,intensity,0.1,0.05,0.7,0.3,0.82,20,400,1E-11,3.5,0.01,0.5,0.1,,,,,,,,,,,,,,,,,,,,,,,,,,,,,,,,,,,,,,,,,,,,,,,,,,,,,,,,,,,,,,,,,,,,,,,,,,,,,,,,,
,,,,,537791,001,2025-03-14_20h45.35.085,Utility_discrimination_2024_2cat,2024.2.4,MacIntel,107.5268817,,,,,,,,0,"[0.5,0.5]","[1,0]",d,"[0.5,0.686648421239336]","[0.5,0.313351578760664]",296.3175,298.4918,1,s,1,0.6568,,0.111025126,0.436213738,0.325188612,298.493,298.493,0,101,101,101,1,0.186648421,0.186648421,shape_difference4,1,,TRUE,,intensity,0.1,0.05,0.7,0.3,0.82,20,400,1E-11,3.5,0.01,0.5,0.1,,,,,,,,,,,,,,,,,,,,,,,,,,,,,,,,,,,,,,,,,,,,,,,,,,,,,,,,,,,,,,,,,,,,,,,,,,,,,,,,,
,,,,,537791,001,2025-03-14_20h45.35.085,Utility_discrimination_2024_2cat,2024.2.4,MacIntel,107.5268817,,,,,,,,3,"[0.5,0.5]","[0.383,0.924]",s,"[0.7479018949158813,0.5]","[0.2520981050841186,0.5]",298.4936,300.4919,1,s,1,0.4857,,0.013353619,0.272805324,0.259451705,300.4935,300.4935,0,102,102,102,1,0.247901895,0.247901895,shape_difference0,1,,TRUE,,intensity,0.1,0.05,0.7,0.3,0.82,20,400,1E-11,3.5,0.01,0.5,0.1,,,,,,,,,,,,,,,,,,,,,,,,,,,,,,,,,,,,,,,,,,,,,,,,,,,,,,,,,,,,,,,,,,,,,,,,,,,,,,,,,
,,,,,537791,001,2025-03-14_20h45.35.085,Utility_discrimination_2024_2cat,2024.2.4,MacIntel,107.5268817,,,,,,,,1,"[0.5,0.5]","[0.924,0.383]",s,"[0.5564194648318503,0.6361138002731846]","[0.44358053516814966,0.36388619972681535]",300.4943,302.7588,1,d,1,0.7529,,0.216690661,0.477390211,0.26069955,302.7597,302.7597,0,103,103,103,1,0.147309308,0.147309308,shape_difference3,1,,TRUE,,intensity,0.1,0.05,0.7,0.3,0.82,20,400,1E-11,3.5,0.01,0.5,0.1,,,,,,,,,,,,,,,,,,,,,,,,,,,,,,,,,,,,,,,,,,,,,,,,,,,,,,,,,,,,,,,,,,,,,,,,,,,,,,,,,
,,,,,537791,001,2025-03-14_20h45.35.085,Utility_discrimination_2024_2cat,2024.2.4,MacIntel,107.5268817,,,,,,,,4,"[0.5,0.5]","[0,1]",d,"[0.8263378078288934,0.6352677277039678]","[0.17366219217110662,0.3647322722960323]",302.7602,305.3002,1,d,1,1.0294,,0.093297841,0.293802938,0.200505096,305.3016,305.3016,0,104,104,104,1,0.353179446,0.353179446,shape_difference1,1,,TRUE,,intensity,0.1,0.05,0.7,0.3,0.82,20,400,1E-11,3.5,0.01,0.5,0.1,,,,,,,,,,,,,,,,,,,,,,,,,,,,,,,,,,,,,,,,,,,,,,,,,,,,,,,,,,,,,,,,,,,,,,,,,,,,,,,,,
,,,,,537791,001,2025-03-14_20h45.35.085,Utility_discrimination_2024_2cat,2024.2.4,MacIntel,107.5268817,,,,,,,,1,"[0.5,0.5]","[0.924,0.383]",d,"[0.5,0.6806000989117237]","[0.5,0.3193999010882763]",305.3023,307.6335,1,d,1,0.8196,,0.214581398,0.465548967,0.25096757,307.6349,307.635,0,105,105,105,1,0.180600099,0.180600099,shape_difference4,1,,TRUE,,intensity,0.1,0.05,0.7,0.3,0.82,20,400,1E-11,3.5,0.01,0.5,0.1,,,,,,,,,,,,,,,,,,,,,,,,,,,,,,,,,,,,,,,,,,,,,,,,,,,,,,,,,,,,,,,,,,,,,,,,,,,,,,,,,
,,,,,537791,001,2025-03-14_20h45.35.085,Utility_discrimination_2024_2cat,2024.2.4,MacIntel,107.5268817,,,,,,,,0,"[0.5,0.5]","[1,0]",d,"[0.8208029602622773,0.6329735214074158]","[0.17919703973772266,0.3670264785925842]",307.6356,310.675,1,s,1,1.5286,,0.109069155,0.397827431,0.288758275,310.6761,310.6761,0,106,106,106,1,0.347189351,0.347189351,shape_difference1,1,,TRUE,,intensity,0.1,0.05,0.7,0.3,0.82,20,400,1E-11,3.5,0.01,0.5,0.1,,,,,,,,,,,,,,,,,,,,,,,,,,,,,,,,,,,,,,,,,,,,,,,,,,,,,,,,,,,,,,,,,,,,,,,,,,,,,,,,,
,,,,,537791,001,2025-03-14_20h45.35.085,Utility_discrimination_2024_2cat,2024.2.4,MacIntel,107.5268817,,,,,,,,2,"[0.5,0.5]","[0.707,0.707]",s,"[0.7355520179578903,0.5]","[0.2644479820421097,0.5]",310.677,314.3335,1,s,1,2.1412,,-0.085479804,0.474548778,0.560028583,314.3352,314.3352,0,107,107,107,1,0.235552018,0.235552018,shape_difference0,1,,TRUE,,intensity,0.1,0.05,0.7,0.3,0.82,20,400,1E-11,3.5,0.01,0.5,0.1,,,,,,,,,,,,,,,,,,,,,,,,,,,,,,,,,,,,,,,,,,,,,,,,,,,,,,,,,,,,,,,,,,,,,,,,,,,,,,,,,
,,,,,537791,001,2025-03-14_20h45.35.085,Utility_discrimination_2024_2cat,2024.2.4,MacIntel,107.5268817,,,,,,,,3,"[0.5,0.5]","[0.383,0.924]",s,"[0.5759403973852748,0.5759403973852748]","[0.42405960261472525,0.42405960261472525]",314.3359,317.621,1,d,1,1.7581,,0.011201904,0.261265587,0.250063683,317.6229,317.6229,0,108,108,108,1,0.10741216,0.10741216,shape_difference2,1,,TRUE,,intensity,0.1,0.05,0.7,0.3,0.82,20,400,1E-11,3.5,0.01,0.5,0.1,,,,,,,,,,,,,,,,,,,,,,,,,,,,,,,,,,,,,,,,,,,,,,,,,,,,,,,,,,,,,,,,,,,,,,,,,,,,,,,,,
,,,,,537791,001,2025-03-14_20h45.35.085,Utility_discrimination_2024_2cat,2024.2.4,MacIntel,107.5268817,,,,,,,,3,"[0.5,0.5]","[0.383,0.924]",d,"[0.5536139386270259,0.6293453767398745]","[0.44638606137297415,0.37065462326012555]",317.6238,319.9884,1,s,1,0.8031,,0.00939597,0.246958033,0.237562063,319.991,319.991,0,109,109,109,1,0.139984174,0.139984174,shape_difference3,1,,TRUE,,intensity,0.1,0.05,0.7,0.3,0.82,20,400,1E-11,3.5,0.01,0.5,0.1,,,,,,,,,,,,,,,,,,,,,,,,,,,,,,,,,,,,,,,,,,,,,,,,,,,,,,,,,,,,,,,,,,,,,,,,,,,,,,,,,
,,,,,537791,001,2025-03-14_20h45.35.085,Utility_discrimination_2024_2cat,2024.2.4,MacIntel,107.5268817,,,,,,,,2,"[0.5,0.5]","[0.707,0.707]",s,"[0.5505195405792396,0.6218800404574867]","[0.4494804594207604,0.3781199595425134]",319.9929,322.221,1,d,1,0.6675,,-0.089551209,0.406626823,0.496178033,322.223,322.223,0,110,110,110,1,0.131904806,0.131904806,shape_difference3,1,,TRUE,,intensity,0.1,0.05,0.7,0.3,0.82,20,400,1E-11,3.5,0.01,0.5,0.1,,,,,,,,,,,,,,,,,,,,,,,,,,,,,,,,,,,,,,,,,,,,,,,,,,,,,,,,,,,,,,,,,,,,,,,,,,,,,,,,,
,,,,,537791,001,2025-03-14_20h45.35.085,Utility_discrimination_2024_2cat,2024.2.4,MacIntel,107.5268817,,,,,,,,0,"[0.5,0.5]","[1,0]",d,"[0.5554329270246575,0.5554329270246575]","[0.44456707297534254,0.44456707297534254]",322.2247,324.588,1,s,1,0.8255,,0.10745095,0.382597277,0.275146327,324.5909,324.5909,0,111,111,111,1,0.078405837,0.078405837,shape_difference2,1,,TRUE,,intensity,0.1,0.05,0.7,0.3,0.82,20,400,1E-11,3.5,0.01,0.5,0.1,,,,,,,,,,,,,,,,,,,,,,,,,,,,,,,,,,,,,,,,,,,,,,,,,,,,,,,,,,,,,,,,,,,,,,,,,,,,,,,,,
,,,,,537791,001,2025-03-14_20h45.35.085,Utility_discrimination_2024_2cat,2024.2.4,MacIntel,107.5268817,,,,,,,,1,"[0.5,0.5]","[0.924,0.383]",s,"[0.7223715118677717,0.5]","[0.2776284881322283,0.5]",324.5918,326.7209,1,s,1,0.5693,,0.212511057,0.453558979,0.241047922,326.7232,326.7232,0,112,112,112,1,0.222371512,0.222371512,shape_difference0,1,,TRUE,,intensity,0.1,0.05,0.7,0.3,0.82,20,400,1E-11,3.5,0.01,0.5,0.1,,,,,,,,,,,,,,,,,,,,,,,,,,,,,,,,,,,,,,,,,,,,,,,,,,,,,,,,,,,,,,,,,,,,,,,,,,,,,,,,,
,,,,,537791,001,2025-03-14_20h45.35.085,Utility_discrimination_2024_2cat,2024.2.4,MacIntel,107.5268817,,,,,,,,4,"[0.5,0.5]","[0,1]",s,"[0.8147279613093399,0.6304554211920749]","[0.18527203869066006,0.36954457880792513]",326.7241,328.8875,1,d,1,0.6034,,0.077369742,0.288723069,0.211353327,328.8895,328.8895,0,113,113,113,1,0.340614677,0.340614677,shape_difference1,1,,TRUE,,intensity,0.1,0.05,0.7,0.3,0.82,20,400,1E-11,3.5,0.01,0.5,0.1,,,,,,,,,,,,,,,,,,,,,,,,,,,,,,,,,,,,,,,,,,,,,,,,,,,,,,,,,,,,,,,,,,,,,,,,,,,,,,,,,
,,,,,537791,001,2025-03-14_20h45.35.085,Utility_discrimination_2024_2cat,2024.2.4,MacIntel,107.5268817,,,,,,,,4,"[0.5,0.5]","[0,1]",d,"[0.5,0.6755743823702062]","[0.5,0.3244256176297938]",328.8901,331.5547,1,d,1,1.1037,,0.064797457,0.283253376,0.218455919,331.5572,331.5572,0,114,114,114,1,0.175574382,0.175574382,shape_difference4,1,,TRUE,,intensity,0.1,0.05,0.7,0.3,0.82,20,400,1E-11,3.5,0.01,0.5,0.1,,,,,,,,,,,,,,,,,,,,,,,,,,,,,,,,,,,,,,,,,,,,,,,,,,,,,,,,,,,,,,,,,,,,,,,,,,,,,,,,,
,,,,,537791,001,2025-03-14_20h45.35.085,Utility_discrimination_2024_2cat,2024.2.4,MacIntel,107.5268817,,,,,,,,2,"[0.5,0.5]","[0.707,0.707]",d,"[0.5,0.6713318867806422]","[0.5,0.32866811321935785]",331.558,333.9209,1,d,1,0.8163,,-0.092413936,0.343552816,0.435966752,333.9223,333.9223,0,115,115,115,1,0.171331887,0.171331887,shape_difference4,1,,TRUE,,intensity,0.1,0.05,0.7,0.3,0.82,20,400,1E-11,3.5,0.01,0.5,0.1,,,,,,,,,,,,,,,,,,,,,,,,,,,,,,,,,,,,,,,,,,,,,,,,,,,,,,,,,,,,,,,,,,,,,,,,,,,,,,,,,
,,,,,537791,001,2025-03-14_20h45.35.085,Utility_discrimination_2024_2cat,2024.2.4,MacIntel,107.5268817,,,,,,,,0,"[0.5,0.5]","[1,0]",d,"[0.5405884089485534,0.5405884089485534]","[0.4594115910514466,0.4594115910514466]",333.9236,336.1874,1,s,1,0.7101,,0.106066001,0.364212223,0.258146222,336.1919,336.1919,0,116,116,116,1,0.057409348,0.057409348,shape_difference2,1,,TRUE,,intensity,0.1,0.05,0.7,0.3,0.82,20,400,1E-11,3.5,0.01,0.5,0.1,,,,,,,,,,,,,,,,,,,,,,,,,,,,,,,,,,,,,,,,,,,,,,,,,,,,,,,,,,,,,,,,,,,,,,,,,,,,,,,,,
,,,,,537791,001,2025-03-14_20h45.35.085,Utility_discrimination_2024_2cat,2024.2.4,MacIntel,107.5268817,,,,,,,,3,"[0.5,0.5]","[0.383,0.924]",s,"[0.7078705186560882,0.5]","[0.2921294813439118,0.5]",336.1929,338.4547,0,d,0,0.6997,,0.007845122,0.228851565,0.221006443,338.4595,338.4596,0,117,117,117,1,0.207870519,0.207870519,shape_difference0,1,,TRUE,,intensity,0.1,0.05,0.7,0.3,0.82,20,400,1E-11,3.5,0.01,0.5,0.1,,,,,,,,,,,,,,,,,,,,,,,,,,,,,,,,,,,,,,,,,,,,,,,,,,,,,,,,,,,,,,,,,,,,,,,,,,,,,,,,,
,,,,,537791,001,2025-03-14_20h45.35.085,Utility_discrimination_2024_2cat,2024.2.4,MacIntel,107.5268817,,,,,,,,1,"[0.5,0.5]","[0.924,0.383]",s,"[0.5470299487497878,0.6134612862788615]","[0.45297005125021217,0.38653871372113846]",338.4604,340.454,1,s,1,0.4308,,0.210806156,0.438595603,0.227789446,340.4595,340.4595,0,118,118,118,1,0.1227936,0.1227936,shape_difference3,1,,TRUE,,intensity,0.1,0.05,0.7,0.3,0.82,20,400,1E-11,3.5,0.01,0.5,0.1,,,,,,,,,,,,,,,,,,,,,,,,,,,,,,,,,,,,,,,,,,,,,,,,,,,,,,,,,,,,,,,,,,,,,,,,,,,,,,,,,
,,,,,537791,001,2025-03-14_20h45.35.085,Utility_discrimination_2024_2cat,2024.2.4,MacIntel,107.5268817,,,,,,,,1,"[0.5,0.5]","[0.924,0.383]",s,"[0.8079979507085978,0.6276658172309447]","[0.1920020492914022,0.3723341827690553]",340.4604,342.7541,1,s,1,0.7388,,0.209381384,0.419595212,0.210213828,342.7555,342.7556,0,119,119,119,1,0.333331115,0.333331115,shape_difference1,1,,TRUE,,intensity,0.1,0.05,0.7,0.3,0.82,20,400,1E-11,3.5,0.01,0.5,0.1,,,,,,,,,,,,,,,,,,,,,,,,,,,,,,,,,,,,,,,,,,,,,,,,,,,,,,,,,,,,,,,,,,,,,,,,,,,,,,,,,
,,,,,537791,001,2025-03-14_20h45.35.085,Utility_discrimination_2024_2cat,2024.2.4,MacIntel,107.5268817,,,,,,,,2,"[0.5,0.5]","[0.707,0.707]",s,"[0.8003904190502305,0.6245124788920328]","[0.19960958094976955,0.37548752110796724]",342.7562,344.6874,1,d,1,0.3672,,-0.094509996,0.277675062,0.372185058,344.6886,344.6886,0,120,120,120,1,0.325097856,0.325097856,shape_difference1,1,,TRUE,,intensity,0.1,0.05,0.7,0.3,0.82,20,400,1E-11,3.5,0.01,0.5,0.1,,,,,,,,,,,,,,,,,,,,,,,,,,,,,,,,,,,,,,,,,,,,,,,,,,,,,,,,,,,,,,,,,,,,,,,,,,,,,,,,,
,,,,,537791,001,2025-03-14_20h45.35.085,Utility_discrimination_2024_2cat,2024.2.4,MacIntel,107.5268817,,,,,,,,0,"[0.5,0.5]","[1,0]",d,"[0.5278872030252323,0.5278872030252323]","[0.4721127969747677,0.4721127969747677]",344.6891,346.9548,1,s,1,0.701,,0.111706459,0.397626173,0.285919715,346.9582,346.9582,0,121,121,121,1,0.039444417,0.039444417,shape_difference2,1,,TRUE,,intensity,0.1,0.05,0.7,0.3,0.82,20,400,1E-11,3.5,0.01,0.5,0.1,,,,,,,,,,,,,,,,,,,,,,,,,,,,,,,,,,,,,,,,,,,,,,,,,,,,,,,,,,,,,,,,,,,,,,,,,,,,,,,,,
,,,,,537791,001,2025-03-14_20h45.35.085,Utility_discrimination_2024_2cat,2024.2.4,MacIntel,107.5268817,,,,,,,,4,"[0.5,0.5]","[0,1]",s,"[0.7433865956076445,0.5]","[0.25661340439235547,0.5]",346.9603,349.3508,1,d,1,0.8367,,0.054756966,0.277175933,0.222418966,349.3552,349.3552,0,122,122,122,1,0.243386596,0.243386596,shape_difference0,1,,TRUE,,intensity,0.1,0.05,0.7,0.3,0.82,20,400,1E-11,3.5,0.01,0.5,0.1,,,,,,,,,,,,,,,,,,,,,,,,,,,,,,,,,,,,,,,,,,,,,,,,,,,,,,,,,,,,,,,,,,,,,,,,,,,,,,,,,
,,,,,537791,001,2025-03-14_20h45.35.085,Utility_discrimination_2024_2cat,2024.2.4,MacIntel,107.5268817,,,,,,,,3,"[0.5,0.5]","[0.383,0.924]",d,"[0.5,0.6676841760458828]","[0.5,0.3323158239541172]",349.3561,351.75,0,s,0,0.8352,,0.006478015,0.205536688,0.199058673,351.7541,351.7541,0,123,123,123,1,0.167684176,0.167684176,shape_difference4,1,,TRUE,,intensity,0.1,0.05,0.7,0.3,0.82,20,400,1E-11,3.5,0.01,0.5,0.1,,,,,,,,,,,,,,,,,,,,,,,,,,,,,,,,,,,,,,,,,,,,,,,,,,,,,,,,,,,,,,,,,,,,,,,,,,,,,,,,,
,,,,,537791,001,2025-03-14_20h45.35.085,Utility_discrimination_2024_2cat,2024.2.4,MacIntel,107.5268817,,,,,,,,3,"[0.5,0.5]","[0.383,0.924]",d,"[0.5430232780822245,0.6037950625273509]","[0.4569767219177755,0.39620493747264907]",351.755,354.0173,1,s,1,0.7156,,0.005237248,0.197532304,0.192295056,354.021,354.021,0,124,124,124,1,0.112332319,0.112332319,shape_difference3,1,,TRUE,,intensity,0.1,0.05,0.7,0.3,0.82,20,400,1E-11,3.5,0.01,0.5,0.1,,,,,,,,,,,,,,,,,,,,,,,,,,,,,,,,,,,,,,,,,,,,,,,,,,,,,,,,,,,,,,,,,,,,,,,,,,,,,,,,,
,,,,,537791,001,2025-03-14_20h45.35.085,Utility_discrimination_2024_2cat,2024.2.4,MacIntel,107.5268817,,,,,,,,0,"[0.5,0.5]","[1,0]",s,"[0.5383569867162823,0.5925374823129108]","[0.4616430132837177,0.4074625176870892]",354.0217,356.3499,1,d,1,0.7859,,0.11004471,0.384064256,0.274019545,356.351,356.351,0,125,125,125,1,0.10014879,0.10014879,shape_difference3,1,,TRUE,,intensity,0.1,0.05,0.7,0.3,0.82,20,400,1E-11,3.5,0.01,0.5,0.1,,,,,,,,,,,,,,,,,,,,,,,,,,,,,,,,,,,,,,,,,,,,,,,,,,,,,,,,,,,,,,,,,,,,,,,,,,,,,,,,,
,,,,,537791,001,2025-03-14_20h45.35.085,Utility_discrimination_2024_2cat,2024.2.4,MacIntel,107.5268817,,,,,,,,4,"[0.5,0.5]","[0,1]",d,"[0.7323795158584148,0.5]","[0.26762048414158524,0.5]",356.3514,358.9833,1,s,1,1.0884,,0.103654418,0.292242064,0.188587646,358.985,358.985,0,126,126,126,1,0.232379516,0.232379516,shape_difference0,1,,TRUE,,intensity,0.1,0.05,0.7,0.3,0.82,20,400,1E-11,3.5,0.01,0.5,0.1,,,,,,,,,,,,,,,,,,,,,,,,,,,,,,,,,,,,,,,,,,,,,,,,,,,,,,,,,,,,,,,,,,,,,,,,,,,,,,,,,
,,,,,537791,001,2025-03-14_20h45.35.085,Utility_discrimination_2024_2cat,2024.2.4,MacIntel,107.5268817,,,,,,,,1,"[0.5,0.5]","[0.924,0.383]",s,"[0.5,0.6823744246265292]","[0.5,0.3176255753734708]",358.9857,361.1504,1,s,1,0.6132,,0.208170071,0.399507235,0.191337164,361.1532,361.1532,0,127,127,127,1,0.182374425,0.182374425,shape_difference4,1,,TRUE,,intensity,0.1,0.05,0.7,0.3,0.82,20,400,1E-11,3.5,0.01,0.5,0.1,,,,,,,,,,,,,,,,,,,,,,,,,,,,,,,,,,,,,,,,,,,,,,,,,,,,,,,,,,,,,,,,,,,,,,,,,,,,,,,,,
,,,,,537791,001,2025-03-14_20h45.35.085,Utility_discrimination_2024_2cat,2024.2.4,MacIntel,107.5268817,,,,,,,,2,"[0.5,0.5]","[0.707,0.707]",s,"[0.7916506001534809,0.6208898050419731]","[0.20834939984651907,0.37911019495802684]",361.1553,363.3502,1,d,1,0.647,,-0.096820501,0.23319613,0.330016632,363.3526,363.3526,0,128,128,128,1,0.315639178,0.315639178,shape_difference1,1,,TRUE,,intensity,0.1,0.05,0.7,0.3,0.82,20,400,1E-11,3.5,0.01,0.5,0.1,,,,,,,,,,,,,,,,,,,,,,,,,,,,,,,,,,,,,,,,,,,,,,,,,,,,,,,,,,,,,,,,,,,,,,,,,,,,,,,,,
,,,,,537791,001,2025-03-14_20h45.35.085,Utility_discrimination_2024_2cat,2024.2.4,MacIntel,107.5268817,,,,,,,,4,"[0.5,0.5]","[0,1]",d,"[0.5157050139300342,0.5157050139300342]","[0.48429498606996585,0.48429498606996585]",363.355,367.7499,1,s,1,2.8595,,0.102745801,0.287835771,0.185089971,367.7528,367.7528,0,129,129,129,1,0.022213598,0.022213598,shape_difference2,1,,TRUE,,intensity,0.1,0.05,0.7,0.3,0.82,20,400,1E-11,3.5,0.01,0.5,0.1,,,,,,,,,,,,,,,,,,,,,,,,,,,,,,,,,,,,,,,,,,,,,,,,,,,,,,,,,,,,,,,,,,,,,,,,,,,,,,,,,
,,,,,537791,001,2025-03-14_20h45.35.085,Utility_discrimination_2024_2cat,2024.2.4,MacIntel,107.5268817,,,,,,,,1,"[0.5,0.5]","[0.924,0.383]",s,"[0.5,0.6777011824829628]","[0.5,0.32229881751703715]",367.7537,369.8171,1,d,1,0.5027,,0.207119311,0.396783723,0.189664412,369.8215,369.8217,0,130,130,130,1,0.177701182,0.177701182,shape_difference4,1,,TRUE,,intensity,0.1,0.05,0.7,0.3,0.82,20,400,1E-11,3.5,0.01,0.5,0.1,,,,,,,,,,,,,,,,,,,,,,,,,,,,,,,,,,,,,,,,,,,,,,,,,,,,,,,,,,,,,,,,,,,,,,,,,,,,,,,,,
,,,,,537791,001,2025-03-14_20h45.35.085,Utility_discrimination_2024_2cat,2024.2.4,MacIntel,107.5268817,,,,,,,,0,"[0.5,0.5]","[1,0]",d,"[0.7814818708568356,0.6166748447382772]","[0.21851812914316432,0.38332515526172284]",369.8225,372.25,1,s,1,0.8706,,0.108699918,0.367879144,0.259179227,372.2521,372.2521,0,131,131,131,1,0.304634059,0.304634059,shape_difference1,1,,TRUE,,intensity,0.1,0.05,0.7,0.3,0.82,20,400,1E-11,3.5,0.01,0.5,0.1,,,,,,,,,,,,,,,,,,,,,,,,,,,,,,,,,,,,,,,,,,,,,,,,,,,,,,,,,,,,,,,,,,,,,,,,,,,,,,,,,
,,,,,537791,001,2025-03-14_20h45.35.085,Utility_discrimination_2024_2cat,2024.2.4,MacIntel,107.5268817,,,,,,,,3,"[0.5,0.5]","[0.383,0.924]",s,"[0.7204418815329575,0.5]","[0.2795581184670425,0.5]",372.2526,374.4836,1,s,1,0.6753,,0.004075386,0.194406348,0.190330962,374.488,374.4881,0,132,132,132,1,0.220441882,0.220441882,shape_difference0,1,,TRUE,,intensity,0.1,0.05,0.7,0.3,0.82,20,400,1E-11,3.5,0.01,0.5,0.1,,,,,,,,,,,,,,,,,,,,,,,,,,,,,,,,,,,,,,,,,,,,,,,,,,,,,,,,,,,,,,,,,,,,,,,,,,,,,,,,,
,,,,,537791,001,2025-03-14_20h45.35.085,Utility_discrimination_2024_2cat,2024.2.4,MacIntel,107.5268817,,,,,,,,2,"[0.5,0.5]","[0.707,0.707]",s,"[0.535351940692337,0.5852877107042282]","[0.464648059307663,0.4147122892957718]",374.489,376.9505,1,d,1,0.9159,,-0.098929566,0.191315417,0.290244984,376.9536,376.9536,0,133,133,133,1,0.092302717,0.092302717,shape_difference3,1,,TRUE,,intensity,0.1,0.05,0.7,0.3,0.82,20,400,1E-11,3.5,0.01,0.5,0.1,,,,,,,,,,,,,,,,,,,,,,,,,,,,,,,,,,,,,,,,,,,,,,,,,,,,,,,,,,,,,,,,,,,,,,,,,,,,,,,,,
,,,,,537791,001,2025-03-14_20h45.35.085,Utility_discrimination_2024_2cat,2024.2.4,MacIntel,107.5268817,,,,,,,,4,"[0.5,0.5]","[0,1]",d,"[0.5025538720851065,0.5025538720851065]","[0.49744612791489345,0.49744612791489345]",376.9549,379.5498,1,d,1,1.0319,,0.101825573,0.283076476,0.181250903,379.5511,379.5512,0,134,134,134,1,0.003612266,0.003612266,shape_difference2,1,,TRUE,,intensity,0.1,0.05,0.7,0.3,0.82,20,400,1E-11,3.5,0.01,0.5,0.1,,,,,,,,,,,,,,,,,,,,,,,,,,,,,,,,,,,,,,,,,,,,,,,,,,,,,,,,,,,,,,,,,,,,,,,,,,,,,,,,,
,,,,,537791,001,2025-03-14_20h45.35.085,Utility_discrimination_2024_2cat,2024.2.4,MacIntel,107.5268817,,,,,,,,2,"[0.5,0.5]","[0.707,0.707]",d,"[0.5,0.6738215025521029]","[0.5,0.32617849744789706]",379.5517,381.8165,1,s,1,0.6992,,-0.109955563,0.167556002,0.277511565,381.8181,381.8181,0,135,135,135,1,0.173821503,0.173821503,shape_difference4,1,,TRUE,,intensity,0.1,0.05,0.7,0.3,0.82,20,400,1E-11,3.5,0.01,0.5,0.1,,,,,,,,,,,,,,,,,,,,,,,,,,,,,,,,,,,,,,,,,,,,,,,,,,,,,,,,,,,,,,,,,,,,,,,,,,,,,,,,,
,,,,,537791,001,2025-03-14_20h45.35.085,Utility_discrimination_2024_2cat,2024.2.4,MacIntel,107.5268817,,,,,,,,3,"[0.5,0.5]","[0.383,0.924]",s,"[0.4943087417400362,0.4943087417400362]","[0.5056912582599639,0.5056912582599639]",381.8195,383.9165,1,s,1,0.5455,,0.002951998,0.19115329,0.188201291,383.919,383.919,0,136,136,136,1,-0.00804987,-0.00804987,shape_difference2,1,,TRUE,,intensity,0.1,0.05,0.7,0.3,0.82,20,400,1E-11,3.5,0.01,0.5,0.1,,,,,,,,,,,,,,,,,,,,,,,,,,,,,,,,,,,,,,,,,,,,,,,,,,,,,,,,,,,,,,,,,,,,,,,,,,,,,,,,,
,,,,,537791,001,2025-03-14_20h45.35.085,Utility_discrimination_2024_2cat,2024.2.4,MacIntel,107.5268817,,,,,,,,1,"[0.5,0.5]","[0.924,0.383]",s,"[0.5328901761931906,0.579348623505243]","[0.4671098238068095,0.42065137649475703]",383.9199,386.3503,1,d,1,0.883,,0.206186364,0.394026164,0.1878398,386.3544,386.3545,0,137,137,137,1,0.085875134,0.085875134,shape_difference3,1,,TRUE,,intensity,0.1,0.05,0.7,0.3,0.82,20,400,1E-11,3.5,0.01,0.5,0.1,,,,,,,,,,,,,,,,,,,,,,,,,,,,,,,,,,,,,,,,,,,,,,,,,,,,,,,,,,,,,,,,,,,,,,,,,,,,,,,,,
,,,,,537791,001,2025-03-14_20h45.35.085,Utility_discrimination_2024_2cat,2024.2.4,MacIntel,107.5268817,,,,,,,,0,"[0.5,0.5]","[1,0]",d,"[0.7727507679437616,0.6130557836823168]","[0.22724923205623837,0.3869442163176832]",386.3557,388.7179,1,s,1,0.8023,,0.107586778,0.347946046,0.240359268,388.7212,388.7212,0,138,138,138,1,0.295184814,0.295184814,shape_difference1,1,,TRUE,,intensity,0.1,0.05,0.7,0.3,0.82,20,400,1E-11,3.5,0.01,0.5,0.1,,,,,,,,,,,,,,,,,,,,,,,,,,,,,,,,,,,,,,,,,,,,,,,,,,,,,,,,,,,,,,,,,,,,,,,,,,,,,,,,,
,,,,,537791,001,2025-03-14_20h45.35.085,Utility_discrimination_2024_2cat,2024.2.4,MacIntel,107.5268817,,,,,,,,0,"[0.5,0.5]","[1,0]",s,"[0.7071537291242578,0.5]","[0.2928462708757422,0.5]",388.7221,391.5498,1,s,1,1.2905,,0.106641439,0.322741275,0.216099836,391.5516,391.5516,0,139,139,139,1,0.207153729,0.207153729,shape_difference0,1,,TRUE,,intensity,0.1,0.05,0.7,0.3,0.82,20,400,1E-11,3.5,0.01,0.5,0.1,,,,,,,,,,,,,,,,,,,,,,,,,,,,,,,,,,,,,,,,,,,,,,,,,,,,,,,,,,,,,,,,,,,,,,,,,,,,,,,,,
,,,,,537791,001,2025-03-14_20h45.35.085,Utility_discrimination_2024_2cat,2024.2.4,MacIntel,107.5268817,,,,,,,,4,"[0.5,0.5]","[0,1]",s,"[0.6957535993101075,0.5]","[0.3042464006898925,0.5]",391.5522,393.8165,1,s,1,0.7146,,0.100867178,0.27779418,0.176927002,393.818,393.8181,0,140,140,140,1,0.195753599,0.195753599,shape_difference0,1,,TRUE,,intensity,0.1,0.05,0.7,0.3,0.82,20,400,1E-11,3.5,0.01,0.5,0.1,,,,,,,,,,,,,,,,,,,,,,,,,,,,,,,,,,,,,,,,,,,,,,,,,,,,,,,,,,,,,,,,,,,,,,,,,,,,,,,,,
,,,,,537791,001,2025-03-14_20h45.35.085,Utility_discrimination_2024_2cat,2024.2.4,MacIntel,107.5268817,,,,,,,,3,"[0.5,0.5]","[0.383,0.924]",s,"[0.5,0.6705653739701546]","[0.5,0.3294346260298454]",393.8194,395.9831,0,s,0,0.619,,0.001831401,0.187663706,0.185832305,395.9856,395.9856,0,141,141,141,1,0.170565374,0.170565374,shape_difference4,1,,TRUE,,intensity,0.1,0.05,0.7,0.3,0.82,20,400,1E-11,3.5,0.01,0.5,0.1,,,,,,,,,,,,,,,,,,,,,,,,,,,,,,,,,,,,,,,,,,,,,,,,,,,,,,,,,,,,,,,,,,,,,,,,,,,,,,,,,
,,,,,537791,001,2025-03-14_20h45.35.085,Utility_discrimination_2024_2cat,2024.2.4,MacIntel,107.5268817,,,,,,,,1,"[0.5,0.5]","[0.924,0.383]",d,"[0.5308445507941513,0.5744134854668297]","[0.46915544920584873,0.42558651453317026]",395.9864,398.4504,1,s,1,0.9007,,0.205335978,0.391149331,0.185813353,398.4551,398.4551,0,142,142,142,1,0.080534075,0.080534075,shape_difference3,1,,TRUE,,intensity,0.1,0.05,0.7,0.3,0.82,20,400,1E-11,3.5,0.01,0.5,0.1,,,,,,,,,,,,,,,,,,,,,,,,,,,,,,,,,,,,,,,,,,,,,,,,,,,,,,,,,,,,,,,,,,,,,,,,,,,,,,,,,
,,,,,537791,001,2025-03-14_20h45.35.085,Utility_discrimination_2024_2cat,2024.2.4,MacIntel,107.5268817,,,,,,,,2,"[0.5,0.5]","[0.707,0.707]",s,"[0.7666434446463477,0.6105242849562242]","[0.23335655535365224,0.38947571504377576]",398.456,400.7503,1,s,1,0.7376,,-0.126987713,0.137837095,0.264824807,400.7552,400.7553,0,143,143,143,1,0.288575157,0.288575157,shape_difference1,1,,TRUE,,intensity,0.1,0.05,0.7,0.3,0.82,20,400,1E-11,3.5,0.01,0.5,0.1,,,,,,,,,,,,,,,,,,,,,,,,,,,,,,,,,,,,,,,,,,,,,,,,,,,,,,,,,,,,,,,,,,,,,,,,,,,,,,,,,
,,,,,537791,001,2025-03-14_20h45.35.085,Utility_discrimination_2024_2cat,2024.2.4,MacIntel,107.5268817,,,,,,,,1,"[0.5,0.5]","[0.924,0.383]",s,"[0.48865872352642564,0.48865872352642564]","[0.5113412764735744,0.5113412764735744]",400.7561,403.0831,1,s,1,0.7885,,0.204538358,0.388061765,0.183523407,403.0847,403.0847,0,144,144,144,1,-0.016041409,-0.016041409,shape_difference2,1,,TRUE,,intensity,0.1,0.05,0.7,0.3,0.82,20,400,1E-11,3.5,0.01,0.5,0.1,,,,,,,,,,,,,,,,,,,,,,,,,,,,,,,,,,,,,,,,,,,,,,,,,,,,,,,,,,,,,,,,,,,,,,,,,,,,,,,,,
,,,,,537791,001,2025-03-14_20h45.35.085,Utility_discrimination_2024_2cat,2024.2.4,MacIntel,107.5268817,,,,,,,,2,"[0.5,0.5]","[0.707,0.707]",s,"[0.7615983296289739,0.6084330738613604]","[0.2384016703710261,0.39156692613863964]",403.0855,405.6172,1,s,1,0.9678,,-0.139908871,0.099905332,0.239814202,405.6198,405.6198,0,145,145,145,1,0.283115075,0.283115075,shape_difference1,1,,TRUE,,intensity,0.1,0.05,0.7,0.3,0.82,20,400,1E-11,3.5,0.01,0.5,0.1,,,,,,,,,,,,,,,,,,,,,,,,,,,,,,,,,,,,,,,,,,,,,,,,,,,,,,,,,,,,,,,,,,,,,,,,,,,,,,,,,
,,,,,537791,001,2025-03-14_20h45.35.085,Utility_discrimination_2024_2cat,2024.2.4,MacIntel,107.5268817,,,,,,,,4,"[0.5,0.5]","[0,1]",s,"[0.4840902219245427,0.4840902219245427]","[0.5159097780754572,0.5159097780754572]",405.6207,407.883,1,s,1,0.6989,,0.105553476,0.290820975,0.185267499,407.8842,407.8842,0,146,146,146,1,-0.022503222,-0.022503222,shape_difference2,1,,TRUE,,intensity,0.1,0.05,0.7,0.3,0.82,20,400,1E-11,3.5,0.01,0.5,0.1,,,,,,,,,,,,,,,,,,,,,,,,,,,,,,,,,,,,,,,,,,,,,,,,,,,,,,,,,,,,,,,,,,,,,,,,,,,,,,,,,
,,,,,537791,001,2025-03-14_20h45.35.085,Utility_discrimination_2024_2cat,2024.2.4,MacIntel,107.5268817,,,,,,,,3,"[0.5,0.5]","[0.383,0.924]",s,"[0.5,0.6832572725988783]","[0.5,0.31674272740112175]",407.8852,409.8504,1,d,1,0.4166,,0.000680893,0.183815508,0.183134615,409.8539,409.8539,0,147,147,147,1,0.183257273,0.183257273,shape_difference4,1,,TRUE,,intensity,0.1,0.05,0.7,0.3,0.82,20,400,1E-11,3.5,0.01,0.5,0.1,,,,,,,,,,,,,,,,,,,,,,,,,,,,,,,,,,,,,,,,,,,,,,,,,,,,,,,,,,,,,,,,,,,,,,,,,,,,,,,,,
,,,,,537791,001,2025-03-14_20h45.35.085,Utility_discrimination_2024_2cat,2024.2.4,MacIntel,107.5268817,,,,,,,,0,"[0.5,0.5]","[1,0]",d,"[0.5291297078939344,0.5702763710025989]","[0.4708702921060656,0.4297236289974011]",409.8548,412.5163,0,s,0,1.101,,0.105815105,0.2987388,0.192923694,412.518,412.518,0,148,148,148,1,0.076056679,0.076056679,shape_difference3,1,,TRUE,,intensity,0.1,0.05,0.7,0.3,0.82,20,400,1E-11,3.5,0.01,0.5,0.1,,,,,,,,,,,,,,,,,,,,,,,,,,,,,,,,,,,,,,,,,,,,,,,,,,,,,,,,,,,,,,,,,,,,,,,,,,,,,,,,,
,,,,,537791,001,2025-03-14_20h45.35.085,Utility_discrimination_2024_2cat,2024.2.4,MacIntel,107.5268817,,,,,,,,2,"[0.5,0.5]","[0.707,0.707]",d,"[0.6886864606257745,0.5]","[0.31131353937422546,0.5]",412.5186,414.9498,1,d,1,0.88,,-0.14988558,0.09256908,0.24245466,414.9513,414.9514,0,149,149,149,1,0.188686461,0.188686461,shape_difference0,1,,TRUE,,intensity,0.1,0.05,0.7,0.3,0.82,20,400,1E-11,3.5,0.01,0.5,0.1,,,,,,,,,,,,,,,,,,,,,,,,,,,,,,,,,,,,,,,,,,,,,,,,,,,,,,,,,,,,,,,,,,,,,,,,,,,,,,,,,
,,,,,537791,001,2025-03-14_20h45.35.085,Utility_discrimination_2024_2cat,2024.2.4,MacIntel,107.5268817,,,,,,,,4,"[0.5,0.5]","[0,1]",d,"[0.48031335452706503,0.48031335452706503]","[0.519686645472935,0.519686645472935]",414.952,417.483,1,s,1,0.9832,,0.104939992,0.286875129,0.181935137,417.485,417.485,0,150,150,150,1,-0.027845326,-0.027845326,shape_difference2,1,,TRUE,,intensity,0.1,0.05,0.7,0.3,0.82,20,400,1E-11,3.5,0.01,0.5,0.1,,,,,,,,,,,,,,,,,,,,,,,,,,,,,,,,,,,,,,,,,,,,,,,,,,,,,,,,,,,,,,,,,,,,,,,,,,,,,,,,,
,,,,,537791,001,2025-03-14_20h45.35.085,Utility_discrimination_2024_2cat,2024.2.4,MacIntel,107.5268817,,,,,,,,0,"[0.5,0.5]","[1,0]",s,"[0.5,0.6787527840008736]","[0.5,0.3212472159991264]",417.4858,420.0489,1,s,1,1.0193,,0.10506956,0.294146502,0.189076942,420.0507,420.0507,0,151,151,151,1,0.178752784,0.178752784,shape_difference4,1,,TRUE,,intensity,0.1,0.05,0.7,0.3,0.82,20,400,1E-11,3.5,0.01,0.5,0.1,,,,,,,,,,,,,,,,,,,,,,,,,,,,,,,,,,,,,,,,,,,,,,,,,,,,,,,,,,,,,,,,,,,,,,,,,,,,,,,,,
,,,,,537791,001,2025-03-14_20h45.35.085,Utility_discrimination_2024_2cat,2024.2.4,MacIntel,107.5268817,,,,,,,,1,"[0.5,0.5]","[0.924,0.383]",s,"[0.6829848352192854,0.5]","[0.31701516478071456,0.5]",420.0512,422.3164,1,d,1,0.7133,,0.203767608,0.384662265,0.180894657,422.3189,422.3189,0,152,152,152,1,0.182984835,0.182984835,shape_difference0,1,,TRUE,,intensity,0.1,0.05,0.7,0.3,0.82,20,400,1E-11,3.5,0.01,0.5,0.1,,,,,,,,,,,,,,,,,,,,,,,,,,,,,,,,,,,,,,,,,,,,,,,,,,,,,,,,,,,,,,,,,,,,,,,,,,,,,,,,,
,,,,,537791,001,2025-03-14_20h45.35.085,Utility_discrimination_2024_2cat,2024.2.4,MacIntel,107.5268817,,,,,,,,3,"[0.5,0.5]","[0.383,0.924]",d,"[0.7574082404043865,0.6066962728083116]","[0.24259175959561358,0.3933037271916883]",422.3198,424.6497,0,s,0,0.765,,0.006236043,0.193254021,0.187017978,424.6527,424.6527,0,153,153,153,1,0.278580347,0.278580347,shape_difference1,1,,TRUE,,intensity,0.1,0.05,0.7,0.3,0.82,20,400,1E-11,3.5,0.01,0.5,0.1,,,,,,,,,,,,,,,,,,,,,,,,,,,,,,,,,,,,,,,,,,,,,,,,,,,,,,,,,,,,,,,,,,,,,,,,,,,,,,,,,
,,,,,537791,001,2025-03-14_20h45.35.085,Utility_discrimination_2024_2cat,2024.2.4,MacIntel,107.5268817,,,,,,,,3,"[0.5,0.5]","[0.383,0.924]",d,"[0.5357905283482494,0.5863458177383353]","[0.46420947165175064,0.41365418226166467]",424.6538,427.1825,1,d,1,0.9861,,0.005445433,0.19034942,0.184903986,427.1844,427.1844,0,154,154,154,1,0.093447855,0.093447855,shape_difference3,1,,TRUE,,intensity,0.1,0.05,0.7,0.3,0.82,20,400,1E-11,3.5,0.01,0.5,0.1,,,,,,,,,,,,,,,,,,,,,,,,,,,,,,,,,,,,,,,,,,,,,,,,,,,,,,,,,,,,,,,,,,,,,,,,,,,,,,,,,
,,,,,537791,001,2025-03-14_20h45.35.085,Utility_discrimination_2024_2cat,2024.2.4,MacIntel,107.5268817,,,,,,,,2,"[0.5,0.5]","[0.707,0.707]",d,"[0.5333916184803891,0.5805583693887192]","[0.466608381519611,0.41944163061128076]",427.1852,429.7837,0,s,0,1.0312,,-0.157712699,0.084943252,0.242655951,429.7867,429.7868,0,155,155,155,1,0.087184382,0.087184382,shape_difference3,1,,TRUE,,intensity,0.1,0.05,0.7,0.3,0.82,20,400,1E-11,3.5,0.01,0.5,0.1,,,,,,,,,,,,,,,,,,,,,,,,,,,,,,,,,,,,,,,,,,,,,,,,,,,,,,,,,,,,,,,,,,,,,,,,,,,,,,,,,
,,,,,537791,001,2025-03-14_20h45.35.085,Utility_discrimination_2024_2cat,2024.2.4,MacIntel,107.5268817,,,,,,,,4,"[0.5,0.5]","[0,1]",d,"[0.47711211871698084,0.47711211871698084]","[0.5228878812830192,0.5228878812830192]",429.788,432.0823,1,s,1,0.7524,,0.104357794,0.282577761,0.178219966,432.0839,432.0839,0,156,156,156,1,-0.032373241,-0.032373241,shape_difference2,1,,TRUE,,intensity,0.1,0.05,0.7,0.3,0.82,20,400,1E-11,3.5,0.01,0.5,0.1,,,,,,,,,,,,,,,,,,,,,,,,,,,,,,,,,,,,,,,,,,,,,,,,,,,,,,,,,,,,,,,,,,,,,,,,,,,,,,,,,
,,,,,537791,001,2025-03-14_20h45.35.085,Utility_discrimination_2024_2cat,2024.2.4,MacIntel,107.5268817,,,,,,,,1,"[0.5,0.5]","[0.924,0.383]",s,"[0.5,0.6750378645595262]","[0.5,0.3249621354404738]",432.085,434.483,1,d,1,0.8476,,0.207284907,0.392970103,0.185685196,434.4849,434.4849,0,157,157,157,1,0.175037865,0.175037865,shape_difference4,1,,TRUE,,intensity,0.1,0.05,0.7,0.3,0.82,20,400,1E-11,3.5,0.01,0.5,0.1,,,,,,,,,,,,,,,,,,,,,,,,,,,,,,,,,,,,,,,,,,,,,,,,,,,,,,,,,,,,,,,,,,,,,,,,,,,,,,,,,
,,,,,537791,001,2025-03-14_20h45.35.085,Utility_discrimination_2024_2cat,2024.2.4,MacIntel,107.5268817,,,,,,,,0,"[0.5,0.5]","[1,0]",d,"[0.7734633943312947,0.6133511688624306]","[0.22653660566870526,0.3866488311375694]",434.4856,437.3158,1,s,1,1.265,,0.104373988,0.289438989,0.185065001,437.3201,437.3201,0,158,158,158,1,0.295956054,0.295956054,shape_difference1,1,,TRUE,,intensity,0.1,0.05,0.7,0.3,0.82,20,400,1E-11,3.5,0.01,0.5,0.1,,,,,,,,,,,,,,,,,,,,,,,,,,,,,,,,,,,,,,,,,,,,,,,,,,,,,,,,,,,,,,,,,,,,,,,,,,,,,,,,,
,,,,,537791,001,2025-03-14_20h45.35.085,Utility_discrimination_2024_2cat,2024.2.4,MacIntel,107.5268817,,,,,,,,4,"[0.5,0.5]","[0,1]",s,"[0.678348724717118,0.5]","[0.32165127528288195,0.5]",437.3208,439.7828,1,d,1,0.9226,,0.103787985,0.277784712,0.173996727,439.7848,439.7848,0,159,159,159,1,0.178348725,0.178348725,shape_difference0,1,,TRUE,,intensity,0.1,0.05,0.7,0.3,0.82,20,400,1E-11,3.5,0.01,0.5,0.1,,,,,,,,,,,,,,,,,,,,,,,,,,,,,,,,,,,,,,,,,,,,,,,,,,,,,,,,,,,,,,,,,,,,,,,,,,,,,,,,,
,,,,,537791,001,2025-03-14_20h45.35.085,Utility_discrimination_2024_2cat,2024.2.4,MacIntel,107.5268817,,,,,,,,2,"[0.5,0.5]","[0.707,0.707]",d,"[0.5,0.6719543523356535]","[0.5,0.3280456476643465]",439.7856,442.6838,0,d,0,1.3414,,-0.163941497,0.076685375,0.240626873,442.6864,442.6865,0,160,160,160,1,0.171954352,0.171954352,shape_difference4,1,,TRUE,,intensity,0.1,0.05,0.7,0.3,0.82,20,400,1E-11,3.5,0.01,0.5,0.1,,,,,,,,,,,,,,,,,,,,,,,,,,,,,,,,,,,,,,,,,,,,,,,,,,,,,,,,,,,,,,,,,,,,,,,,,,,,,,,,,
,,,,,537791,001,2025-03-14_20h45.35.085,Utility_discrimination_2024_2cat,2024.2.4,MacIntel,107.5268817,,,,,,,,1,"[0.5,0.5]","[0.924,0.383]",s,"[0.4743220550071318,0.4743220550071318]","[0.5256779449928682,0.5256779449928682]",442.6878,445.2833,1,s,1,1.0456,,0.206599879,0.390360469,0.18376059,445.2875,445.2876,0,161,161,161,1,-0.036319583,-0.036319583,shape_difference2,1,,TRUE,,intensity,0.1,0.05,0.7,0.3,0.82,20,400,1E-11,3.5,0.01,0.5,0.1,,,,,,,,,,,,,,,,,,,,,,,,,,,,,,,,,,,,,,,,,,,,,,,,,,,,,,,,,,,,,,,,,,,,,,,,,,,,,,,,,
,,,,,537791,001,2025-03-14_20h45.35.085,Utility_discrimination_2024_2cat,2024.2.4,MacIntel,107.5268817,,,,,,,,3,"[0.5,0.5]","[0.383,0.924]",s,"[0.7674229135003319,0.6108473764833627]","[0.23257708649966807,0.3891526235166373]",445.2886,447.9496,1,s,1,1.1004,,0.008830851,0.197160465,0.188329614,447.9514,447.9514,0,162,162,162,1,0.289418738,0.289418738,shape_difference1,1,,TRUE,,intensity,0.1,0.05,0.7,0.3,0.82,20,400,1E-11,3.5,0.01,0.5,0.1,,,,,,,,,,,,,,,,,,,,,,,,,,,,,,,,,,,,,,,,,,,,,,,,,,,,,,,,,,,,,,,,,,,,,,,,,,,,,,,,,
,,,,,537791,001,2025-03-14_20h45.35.085,Utility_discrimination_2024_2cat,2024.2.4,MacIntel,107.5268817,,,,,,,,0,"[0.5,0.5]","[1,0]",s,"[0.5434387458138925,0.6047973919896519]","[0.4565612541861075,0.3952026080103481]",447.9531,450.4829,1,d,1,0.9667,,0.103702685,0.284455191,0.180752506,450.4851,450.4852,0,163,163,163,1,0.113417091,0.113417091,shape_difference3,1,,TRUE,,intensity,0.1,0.05,0.7,0.3,0.82,20,400,1E-11,3.5,0.01,0.5,0.1,,,,,,,,,,,,,,,,,,,,,,,,,,,,,,,,,,,,,,,,,,,,,,,,,,,,,,,,,,,,,,,,,,,,,,,,,,,,,,,,,
,,,,,537791,001,2025-03-14_20h45.35.085,Utility_discrimination_2024_2cat,2024.2.4,MacIntel,107.5268817,,,,,,,,1,"[0.5,0.5]","[0.924,0.383]",d,"[0.6745482083782619,0.5]","[0.3254517916217381,0.5]",450.4858,452.9497,0,s,0,0.9283,,0.205991797,0.387533032,0.181541234,452.9516,452.9518,0,164,164,164,1,0.174548208,0.174548208,shape_difference0,1,,TRUE,,intensity,0.1,0.05,0.7,0.3,0.82,20,400,1E-11,3.5,0.01,0.5,0.1,,,,,,,,,,,,,,,,,,,,,,,,,,,,,,,,,,,,,,,,,,,,,,,,,,,,,,,,,,,,,,,,,,,,,,,,,,,,,,,,,
,,,,,537791,001,2025-03-14_20h45.35.085,Utility_discrimination_2024_2cat,2024.2.4,MacIntel,107.5268817,,,,,,,,3,"[0.5,0.5]","[0.383,0.924]",d,"[0.7624406146273304,0.6087822028163068]","[0.23755938537266968,0.39121779718369315]",452.9528,455.1845,1,d,1,0.6948,,0.00796311,0.194751489,0.186788379,455.1861,455.1861,0,165,165,165,1,0.284026639,0.284026639,shape_difference1,1,,TRUE,,intensity,0.1,0.05,0.7,0.3,0.82,20,400,1E-11,3.5,0.01,0.5,0.1,,,,,,,,,,,,,,,,,,,,,,,,,,,,,,,,,,,,,,,,,,,,,,,,,,,,,,,,,,,,,,,,,,,,,,,,,,,,,,,,,
,,,,,537791,001,2025-03-14_20h45.35.085,Utility_discrimination_2024_2cat,2024.2.4,MacIntel,107.5268817,,,,,,,,0,"[0.5,0.5]","[1,0]",d,"[0.5392692984202382,0.5947384640738904]","[0.46073070157976187,0.40526153592610953]",455.1876,461.7499,1,d,1,5.0205,,0.106771561,0.296249748,0.189478187,461.7526,461.7526,0,166,166,166,1,0.102530805,0.102530805,shape_difference3,1,,TRUE,,intensity,0.1,0.05,0.7,0.3,0.82,20,400,1E-11,3.5,0.01,0.5,0.1,,,,,,,,,,,,,,,,,,,,,,,,,,,,,,,,,,,,,,,,,,,,,,,,,,,,,,,,,,,,,,,,,,,,,,,,,,,,,,,,,
,,,,,537791,001,2025-03-14_20h45.35.085,Utility_discrimination_2024_2cat,2024.2.4,MacIntel,107.5268817,,,,,,,,4,"[0.5,0.5]","[0,1]",d,"[0.6889598053321976,0.5]","[0.3110401946678024,0.5]",461.754,464.0829,1,s,1,0.7771,,0.106421922,0.289623712,0.18320179,464.0848,464.0848,0,167,167,167,1,0.188959805,0.188959805,shape_difference0,1,,TRUE,,intensity,0.1,0.05,0.7,0.3,0.82,20,400,1E-11,3.5,0.01,0.5,0.1,,,,,,,,,,,,,,,,,,,,,,,,,,,,,,,,,,,,,,,,,,,,,,,,,,,,,,,,,,,,,,,,,,,,,,,,,,,,,,,,,
,,,,,537791,001,2025-03-14_20h45.35.085,Utility_discrimination_2024_2cat,2024.2.4,MacIntel,107.5268817,,,,,,,,2,"[0.5,0.5]","[0.707,0.707]",s,"[0.5,0.68377619010449]","[0.5,0.31622380989551]",464.0869,465.9163,1,d,1,0.2868,,-0.168961091,0.067408766,0.236369857,465.919,465.919,0,168,168,168,1,0.18377619,0.18377619,shape_difference4,1,,TRUE,,intensity,0.1,0.05,0.7,0.3,0.82,20,400,1E-11,3.5,0.01,0.5,0.1,,,,,,,,,,,,,,,,,,,,,,,,,,,,,,,,,,,,,,,,,,,,,,,,,,,,,,,,,,,,,,,,,,,,,,,,,,,,,,,,,
,,,,,537791,001,2025-03-14_20h45.35.085,Utility_discrimination_2024_2cat,2024.2.4,MacIntel,107.5268817,,,,,,,,3,"[0.5,0.5]","[0.383,0.924]",d,"[0.4718147555493397,0.4718147555493397]","[0.5281852444506603,0.5281852444506603]",465.9201,468.4842,1,d,1,1.0146,,0.007222143,0.192261679,0.185039536,468.4874,468.4874,0,169,169,169,1,-0.039865975,-0.039865975,shape_difference2,1,,TRUE,,intensity,0.1,0.05,0.7,0.3,0.82,20,400,1E-11,3.5,0.01,0.5,0.1,,,,,,,,,,,,,,,,,,,,,,,,,,,,,,,,,,,,,,,,,,,,,,,,,,,,,,,,,,,,,,,,,,,,,,,,,,,,,,,,,
,,,,,537791,001,2025-03-14_20h45.35.085,Utility_discrimination_2024_2cat,2024.2.4,MacIntel,107.5268817,,,,,,,,4,"[0.5,0.5]","[0,1]",d,"[0.5360690156979543,0.5870176775585111]","[0.4639309843020457,0.4129823224414889]",468.4886,470.8826,1,d,1,0.8531,,0.105941743,0.286017321,0.180075578,470.8847,470.8848,0,170,170,170,1,0.094174976,0.094174976,shape_difference3,1,,TRUE,,intensity,0.1,0.05,0.7,0.3,0.82,20,400,1E-11,3.5,0.01,0.5,0.1,,,,,,,,,,,,,,,,,,,,,,,,,,,,,,,,,,,,,,,,,,,,,,,,,,,,,,,,,,,,,,,,,,,,,,,,,,,,,,,,,
,,,,,537791,001,2025-03-14_20h45.35.085,Utility_discrimination_2024_2cat,2024.2.4,MacIntel,107.5268817,,,,,,,,1,"[0.5,0.5]","[0.924,0.383]",d,"[0.5,0.6793471817910088]","[0.5,0.32065281820899116]",470.8857,473.2493,0,d,0,0.8155,,0.205439292,0.384398153,0.17895886,473.2502,473.2506,0,171,171,171,1,0.179347182,0.179347182,shape_difference4,1,,TRUE,,intensity,0.1,0.05,0.7,0.3,0.82,20,400,1E-11,3.5,0.01,0.5,0.1,,,,,,,,,,,,,,,,,,,,,,,,,,,,,,,,,,,,,,,,,,,,,,,,,,,,,,,,,,,,,,,,,,,,,,,,,,,,,,,,,
,,,,,537791,001,2025-03-14_20h45.35.085,Utility_discrimination_2024_2cat,2024.2.4,MacIntel,107.5268817,,,,,,,,0,"[0.5,0.5]","[1,0]",s,"[0.758317372263157,0.6070731099315899]","[0.24168262773684301,0.3929268900684101]",473.251,475.3173,1,s,1,0.5047,,0.106185319,0.292205462,0.186020143,475.3216,475.3216,0,172,172,172,1,0.279564256,0.279564256,shape_difference1,1,,TRUE,,intensity,0.1,0.05,0.7,0.3,0.82,20,400,1E-11,3.5,0.01,0.5,0.1,,,,,,,,,,,,,,,,,,,,,,,,,,,,,,,,,,,,,,,,,,,,,,,,,,,,,,,,,,,,,,,,,,,,,,,,,,,,,,,,,
,,,,,537791,001,2025-03-14_20h45.35.085,Utility_discrimination_2024_2cat,2024.2.4,MacIntel,107.5268817,,,,,,,,2,"[0.5,0.5]","[0.707,0.707]",s,"[0.6834427553250861,0.5]","[0.3165572446749138,0.5]",475.3226,477.6488,1,d,1,0.7902,,-0.173050931,0.056656863,0.229707793,477.6508,477.6508,0,173,173,173,1,0.183442755,0.183442755,shape_difference0,1,,TRUE,,intensity,0.1,0.05,0.7,0.3,0.82,20,400,1E-11,3.5,0.01,0.5,0.1,,,,,,,,,,,,,,,,,,,,,,,,,,,,,,,,,,,,,,,,,,,,,,,,,,,,,,,,,,,,,,,,,,,,,,,,,,,,,,,,,
,,,,,537791,001,2025-03-14_20h45.35.085,Utility_discrimination_2024_2cat,2024.2.4,MacIntel,107.5268817,,,,,,,,3,"[0.5,0.5]","[0.383,0.924]",d,"[0.46948697411835566,0.46948697411835566]","[0.5305130258816444,0.5305130258816444]",477.6518,480.3504,1,s,1,1.1334,,0.006578964,0.189615272,0.183036309,480.3536,480.3536,0,174,174,174,1,-0.043158452,-0.043158452,shape_difference2,1,,TRUE,,intensity,0.1,0.05,0.7,0.3,0.82,20,400,1E-11,3.5,0.01,0.5,0.1,,,,,,,,,,,,,,,,,,,,,,,,,,,,,,,,,,,,,,,,,,,,,,,,,,,,,,,,,,,,,,,,,,,,,,,,,,,,,,,,,
,,,,,537791,001,2025-03-14_20h45.35.085,Utility_discrimination_2024_2cat,2024.2.4,MacIntel,107.5268817,,,,,,,,2,"[0.5,0.5]","[0.707,0.707]",s,"[0.5336928935316732,0.5812852052826788]","[0.46630710646832685,0.4187147947173212]",480.3549,484.8829,1,s,1,2.9932,,-0.176415129,0.04387142,0.220286548,484.8847,484.8847,0,175,175,175,1,0.087971001,0.087971001,shape_difference3,1,,TRUE,,intensity,0.1,0.05,0.7,0.3,0.82,20,400,1E-11,3.5,0.01,0.5,0.1,,,,,,,,,,,,,,,,,,,,,,,,,,,,,,,,,,,,,,,,,,,,,,,,,,,,,,,,,,,,,,,,,,,,,,,,,,,,,,,,,
,,,,,537791,001,2025-03-14_20h45.35.085,Utility_discrimination_2024_2cat,2024.2.4,MacIntel,107.5268817,,,,,,,,1,"[0.5,0.5]","[0.924,0.383]",s,"[0.4672528432156305,0.4672528432156305]","[0.5327471567843696,0.5327471567843696]",484.8856,488.1828,1,s,1,1.7496,,0.20492406,0.380854102,0.175930042,488.1854,488.1855,0,176,176,176,1,-0.046318468,-0.046318468,shape_difference2,1,,TRUE,,intensity,0.1,0.05,0.7,0.3,0.82,20,400,1E-11,3.5,0.01,0.5,0.1,,,,,,,,,,,,,,,,,,,,,,,,,,,,,,,,,,,,,,,,,,,,,,,,,,,,,,,,,,,,,,,,,,,,,,,,,,,,,,,,,
,,,,,537791,001,2025-03-14_20h45.35.085,Utility_discrimination_2024_2cat,2024.2.4,MacIntel,107.5268817,,,,,,,,4,"[0.5,0.5]","[0,1]",s,"[0.7548926854033249,0.6056535698154474]","[0.24510731459667517,0.39434643018455257]",488.1864,490.4153,1,s,1,0.6923,,0.107913268,0.294631812,0.186718544,490.418,490.418,0,177,177,177,1,0.275857885,0.275857885,shape_difference1,1,,TRUE,,intensity,0.1,0.05,0.7,0.3,0.82,20,400,1E-11,3.5,0.01,0.5,0.1,,,,,,,,,,,,,,,,,,,,,,,,,,,,,,,,,,,,,,,,,,,,,,,,,,,,,,,,,,,,,,,,,,,,,,,,,,,,,,,,,
,,,,,537791,001,2025-03-14_20h45.35.085,Utility_discrimination_2024_2cat,2024.2.4,MacIntel,107.5268817,,,,,,,,0,"[0.5,0.5]","[1,0]",s,"[0.5,0.6960681446465159]","[0.5,0.3039318553534841]",490.419,492.6499,1,d,1,0.6813,,0.105667784,0.287994355,0.182326571,492.6531,492.6531,0,178,178,178,1,0.196068145,0.196068145,shape_difference4,1,,TRUE,,intensity,0.1,0.05,0.7,0.3,0.82,20,400,1E-11,3.5,0.01,0.5,0.1,,,,,,,,,,,,,,,,,,,,,,,,,,,,,,,,,,,,,,,,,,,,,,,,,,,,,,,,,,,,,,,,,,,,,,,,,,,,,,,,,
,,,,,537791,001,2025-03-14_20h45.35.085,Utility_discrimination_2024_2cat,2024.2.4,MacIntel,107.5268817,,,,,,,,1,"[0.5,0.5]","[0.924,0.383]",d,"[0.6789513589597576,0.5]","[0.32104864104024244,0.5]",492.6542,495.9161,1,s,1,1.6997,,0.204430037,0.376783316,0.172353279,495.9183,495.9183,0,179,179,179,1,0.178951359,0.178951359,shape_difference0,1,,TRUE,,intensity,0.1,0.05,0.7,0.3,0.82,20,400,1E-11,3.5,0.01,0.5,0.1,,,,,,,,,,,,,,,,,,,,,,,,,,,,,,,,,,,,,,,,,,,,,,,,,,,,,,,,,,,,,,,,,,,,,,,,,,,,,,,,,
,,,,,537791,001,2025-03-14_20h45.35.085,Utility_discrimination_2024_2cat,2024.2.4,MacIntel,107.5268817,,,,,,,,0,"[0.5,0.5]","[1,0]",s,"[0.7520364701764563,0.6044696624216264]","[0.24796352982354375,0.39553033757837364]",495.919,498.3157,1,s,1,0.8543,,0.105198281,0.283478171,0.17827989,498.3186,498.3187,0,180,180,180,1,0.272766743,0.272766743,shape_difference1,1,,TRUE,,intensity,0.1,0.05,0.7,0.3,0.82,20,400,1E-11,3.5,0.01,0.5,0.1,,,,,,,,,,,,,,,,,,,,,,,,,,,,,,,,,,,,,,,,,,,,,,,,,,,,,,,,,,,,,,,,,,,,,,,,,,,,,,,,,
,,,,,537791,001,2025-03-14_20h45.35.085,Utility_discrimination_2024_2cat,2024.2.4,MacIntel,107.5268817,,,,,,,,4,"[0.5,0.5]","[0,1]",s,"[0.6752748797140526,0.5]","[0.32472512028594736,0.5]",498.3198,500.7494,1,d,1,0.8651,,0.107322881,0.291728342,0.184405461,500.7506,500.7506,0,181,181,181,1,0.17527488,0.17527488,shape_difference0,1,,TRUE,,intensity,0.1,0.05,0.7,0.3,0.82,20,400,1E-11,3.5,0.01,0.5,0.1,,,,,,,,,,,,,,,,,,,,,,,,,,,,,,,,,,,,,,,,,,,,,,,,,,,,,,,,,,,,,,,,,,,,,,,,,,,,,,,,,
,,,,,537791,001,2025-03-14_20h45.35.085,Utility_discrimination_2024_2cat,2024.2.4,MacIntel,107.5268817,,,,,,,,3,"[0.5,0.5]","[0.383,0.924]",d,"[0.5,0.6895233876434247]","[0.5,0.3104766123565753]",500.7513,505.1497,0,s,0,2.847,,0.006009699,0.186729947,0.180720247,505.1543,505.1543,0,182,182,182,1,0.189523388,0.189523388,shape_difference4,1,,TRUE,,intensity,0.1,0.05,0.7,0.3,0.82,20,400,1E-11,3.5,0.01,0.5,0.1,,,,,,,,,,,,,,,,,,,,,,,,,,,,,,,,,,,,,,,,,,,,,,,,,,,,,,,,,,,,,,,,,,,,,,,,,,,,,,,,,
,,,,,537791,001,2025-03-14_20h45.35.085,Utility_discrimination_2024_2cat,2024.2.4,MacIntel,107.5268817,,,,,,,,2,"[0.5,0.5]","[0.707,0.707]",d,"[0.5317322376908187,0.5765550590765441]","[0.4682677623091814,0.42344494092345586]",505.1552,507.8171,1,d,1,1.1273,,-0.179205222,0.028351751,0.207556973,507.8187,507.8188,0,183,183,183,1,0.082851796,0.082851796,shape_difference3,1,,TRUE,,intensity,0.1,0.05,0.7,0.3,0.82,20,400,1E-11,3.5,0.01,0.5,0.1,,,,,,,,,,,,,,,,,,,,,,,,,,,,,,,,,,,,,,,,,,,,,,,,,,,,,,,,,,,,,,,,,,,,,,,,,,,,,,,,,
,,,,,537791,001,2025-03-14_20h45.35.085,Utility_discrimination_2024_2cat,2024.2.4,MacIntel,107.5268817,,,,,,,,4,"[0.5,0.5]","[0,1]",d,"[0.4650381960557787,0.4650381960557787]","[0.5349618039442213,0.5349618039442213]",507.8195,511.5494,1,d,1,2.1909,,0.109594842,0.298403754,0.188808912,511.552,511.552,0,184,184,184,1,-0.049450925,-0.049450925,shape_difference2,1,,TRUE,,intensity,0.1,0.05,0.7,0.3,0.82,20,400,1E-11,3.5,0.01,0.5,0.1,,,,,,,,,,,,,,,,,,,,,,,,,,,,,,,,,,,,,,,,,,,,,,,,,,,,,,,,,,,,,,,,,,,,,,,,,,,,,,,,,
,,,,,537791,001,2025-03-14_20h45.35.085,Utility_discrimination_2024_2cat,2024.2.4,MacIntel,107.5268817,,,,,,,,2,"[0.5,0.5]","[0.707,0.707]",d,"[0.5,0.7165535346137872]","[0.5,0.28344646538621276]",511.553,513.9827,1,d,1,0.8871,,-0.181535488,0.009201306,0.190736794,513.985,513.985,0,185,185,185,1,0.216553535,0.216553535,shape_difference4,1,,TRUE,,intensity,0.1,0.05,0.7,0.3,0.82,20,400,1E-11,3.5,0.01,0.5,0.1,,,,,,,,,,,,,,,,,,,,,,,,,,,,,,,,,,,,,,,,,,,,,,,,,,,,,,,,,,,,,,,,,,,,,,,,,,,,,,,,,
,,,,,537791,001,2025-03-14_20h45.35.085,Utility_discrimination_2024_2cat,2024.2.4,MacIntel,107.5268817,,,,,,,,1,"[0.5,0.5]","[0.924,0.383]",d,"[0.4627763156564164,0.4627763156564164]","[0.5372236843435836,0.5372236843435836]",513.9856,516.5835,0,s,0,1.0404,,0.20394273,0.372047955,0.168105224,516.5864,516.5864,0,186,186,186,1,-0.05265019,-0.05265019,shape_difference2,1,,TRUE,,intensity,0.1,0.05,0.7,0.3,0.82,20,400,1E-11,3.5,0.01,0.5,0.1,,,,,,,,,,,,,,,,,,,,,,,,,,,,,,,,,,,,,,,,,,,,,,,,,,,,,,,,,,,,,,,,,,,,,,,,,,,,,,,,,
,,,,,537791,001,2025-03-14_20h45.35.085,Utility_discrimination_2024_2cat,2024.2.4,MacIntel,107.5268817,,,,,,,,0,"[0.5,0.5]","[1,0]",d,"[0.7496427112983632,0.6034774441853605]","[0.25035728870163676,0.39652255581463947]",516.5871,521.8495,1,d,1,3.7295,,0.104759607,0.278507557,0.17374795,521.8523,521.8524,0,187,187,187,1,0.270176094,0.270176094,shape_difference1,1,,TRUE,,intensity,0.1,0.05,0.7,0.3,0.82,20,400,1E-11,3.5,0.01,0.5,0.1,,,,,,,,,,,,,,,,,,,,,,,,,,,,,,,,,,,,,,,,,,,,,,,,,,,,,,,,,,,,,,,,,,,,,,,,,,,,,,,,,
,,,,,537791,001,2025-03-14_20h45.35.085,Utility_discrimination_2024_2cat,2024.2.4,MacIntel,107.5268817,,,,,,,,3,"[0.5,0.5]","[0.383,0.924]",d,"[0.6722486138227893,0.5]","[0.32775138617721067,0.5]",521.8531,524.9498,0,d,0,1.5508,,0.005494348,0.183513928,0.17801958,524.9525,524.9525,0,188,188,188,1,0.172248614,0.172248614,shape_difference0,1,,TRUE,,intensity,0.1,0.05,0.7,0.3,0.82,20,400,1E-11,3.5,0.01,0.5,0.1,,,,,,,,,,,,,,,,,,,,,,,,,,,,,,,,,,,,,,,,,,,,,,,,,,,,,,,,,,,,,,,,,,,,,,,,,,,,,,,,,
,,,,,537791,001,2025-03-14_20h45.35.085,Utility_discrimination_2024_2cat,2024.2.4,MacIntel,107.5268817,,,,,,,,4,"[0.5,0.5]","[0,1]",s,"[0.5301092346209747,0.5726395112004717]","[0.46989076537902524,0.4273604887995283]",524.9534,527.3499,1,s,1,0.8411,,0.10875643,0.295909035,0.187152605,527.3528,527.3529,0,189,189,189,1,0.07861419,0.07861419,shape_difference3,1,,TRUE,,intensity,0.1,0.05,0.7,0.3,0.82,20,400,1E-11,3.5,0.01,0.5,0.1,,,,,,,,,,,,,,,,,,,,,,,,,,,,,,,,,,,,,,,,,,,,,,,,,,,,,,,,,,,,,,,,,,,,,,,,,,,,,,,,,
,,,,,537791,001,2025-03-14_20h45.35.085,Utility_discrimination_2024_2cat,2024.2.4,MacIntel,107.5268817,,,,,,,,2,"[0.5,0.5]","[0.707,0.707]",s,"[0.5,0.7061314536153915]","[0.5,0.29386854638460846]",527.3552,530.2492,1,d,1,1.3507,,-0.17067139,0.039367455,0.210038845,530.2508,530.2509,0,190,190,190,1,0.206131454,0.206131454,shape_difference4,1,,TRUE,,intensity,0.1,0.05,0.7,0.3,0.82,20,400,1E-11,3.5,0.01,0.5,0.1,,,,,,,,,,,,,,,,,,,,,,,,,,,,,,,,,,,,,,,,,,,,,,,,,,,,,,,,,,,,,,,,,,,,,,,,,,,,,,,,,
