Consent.started,Consent.stopped,key_resp.keys,key_resp.rt,key_resp.duration,participant,session,date,expName,psychopyVersion,OS,frameRate,SetupExperiment.started,SetupExperiment.stopped,DiscrimInstructions_Pre.started,DiscrimInstructions_Pre.stopped,KeyboardResponse.keys,KeyboardResponse.rt,KeyboardResponse.duration,feature_index,feature_center,feature_vector,correct_answer,coord1,coord2,DiscriminationTrial.started,DiscriminationTrial.stopped,PreTest.response,Resp_s_or_d.keys,Resp_s_or_d.corr,Resp_s_or_d.rt,Resp_s_or_d.duration,PreTest.CI_lower,PreTest.CI_upper,PreTest.CI_width,CrashPretest_2.started,CrashPretest_2.stopped,PreTest.thisRepN,PreTest.thisTrialN,PreTest.thisN,PreTest.thisIndex,PreTest.ran,PreTest.intensity,intensity,PreTest.label,PreTest.nReps,PreTest.method,PreTest.autoLog,PreTest.seed,PreTest.varName,PreTest.startVal,PreTest.minVal,PreTest.maxVal,PreTest.startValSd,PreTest.pThreshold,PreTest.nTrials,PreTest.maxTrials,PreTest.stopInterval,PreTest.beta,PreTest.delta,PreTest.gamma,PreTest.grain,WelcomeToCategorizationTask.started,WelcomeToCategorizationTask.stopped,PressAnyKey3.keys,PressAnyKey3.rt,PressAnyKey3.duration,shape_coordinates,category_center,category_sigma,subspace_center,subspace_vector1,subspace_vector2,CategorizationTrial.started,CategorizationTrial.stopped,Respond_1or2.keys,Respond_1or2.rt,Respond_1or2.duration,Feedback.started,Feedback.stopped,xcoord,ycoord,shape_coord,numeric_response_minus1,correctness,truecategory,mixture_index,respAifA,respBifA,respAifB,respBifB,trial_number,D,muAx,muAy,muBx,muBy,sigmaA,sigmaB,priorA,priorB,TrialLoop.thisRepN,TrialLoop.thisTrialN,TrialLoop.thisN,TrialLoop.thisIndex,TrialLoop.ran,DiscriminationInstructions_Post.started,DiscriminationInstructions_Post.stopped,key_resp_2.keys,key_resp_2.rt,key_resp_2.duration,PostTest.response,PostTest.CI_lower,PostTest.CI_upper,PostTest.CI_width,CrashPosttest.started,CrashPosttest.stopped,PostTest.thisRepN,PostTest.thisTrialN,PostTest.thisN,PostTest.thisIndex,PostTest.ran,PostTest.intensity,PostTest.label,PostTest.nReps,PostTest.method,PostTest.autoLog,PostTest.seed,PostTest.varName,PostTest.startVal,PostTest.minVal,PostTest.maxVal,PostTest.startValSd,PostTest.pThreshold,PostTest.nTrials,PostTest.maxTrials,PostTest.stopInterval,PostTest.beta,PostTest.delta,PostTest.gamma,PostTest.grain,Thanks.started,Thanks.stopped
0,82.24,y,82.201,,639188,001,2025-03-17_13h17.01.639,Utility_discrimination_2024_2cat,2024.2.4,MacIntel,35.71428571,,,,,,,,,,,,,,,,,,,,,,,,,,,,,,,,,,,,,,,,,,,,,,,,,,,,,,,,,,,,,,,,,,,,,,,,,,,,,,,,,,,,,,,,,,,,,,,,,,,,,,,,,,,,,,,,,,,,,,,,,,,,,,,,,,,
,,,,,639188,001,2025-03-17_13h17.01.639,Utility_discrimination_2024_2cat,2024.2.4,MacIntel,35.71428571,82.24,82.24,,,,,,,,,,,,,,,,,,,,,,,,,,,,,,,,,,,,,,,,,,,,,,,,,,,,,,,,,,,,,,,,,,,,,,,,,,,,,,,,,,,,,,,,,,,,,,,,,,,,,,,,,,,,,,,,,,,,,,,,,,,,,,,,,
,,,,,639188,001,2025-03-17_13h17.01.639,Utility_discrimination_2024_2cat,2024.2.4,MacIntel,35.71428571,,,82.24,153.452,space,71.174,,,,,,,,,,,,,,,,,,,,,,,,,,,,,,,,,,,,,,,,,,,,,,,,,,,,,,,,,,,,,,,,,,,,,,,,,,,,,,,,,,,,,,,,,,,,,,,,,,,,,,,,,,,,,,,,,,,,,,,,,,,,,
,,,,,639188,001,2025-03-17_13h17.01.639,Utility_discrimination_2024_2cat,2024.2.4,MacIntel,35.71428571,,,,,,,,2,"[0.5,0.5]","[0.707,0.707]",,"[0.6185239449756466,0.5]","[0.3814760550243534,0.5]",153.483,156.669,1,s,1,1.675,,-0.447967632,0.547967632,0.995935263,156.673,156.673,0,0,0,0,1,0.118523945,0.118523945,shape_difference0,1,,TRUE,,intensity,0.1,0.05,0.7,0.3,0.82,20,400,1E-11,3.5,0.01,0.5,0.1,,,,,,,,,,,,,,,,,,,,,,,,,,,,,,,,,,,,,,,,,,,,,,,,,,,,,,,,,,,,,,,,,,,,,,,,,,,,,,,,,
,,,,,639188,001,2025-03-17_13h17.01.639,Utility_discrimination_2024_2cat,2024.2.4,MacIntel,35.71428571,,,,,,,,4,"[0.5,0.5]","[0,1]",s,"[0.5837964290977822,0.5837964290977822]","[0.4162035709022178,0.4162035709022178]",156.674,159.318,1,s,1,1.118,,-0.447967632,0.547967632,0.995935263,159.322,159.322,0,1,1,1,1,0.118523945,0.118523945,shape_difference2,1,,TRUE,,intensity,0.1,0.05,0.7,0.3,0.82,20,400,1E-11,3.5,0.01,0.5,0.1,,,,,,,,,,,,,,,,,,,,,,,,,,,,,,,,,,,,,,,,,,,,,,,,,,,,,,,,,,,,,,,,,,,,,,,,,,,,,,,,,
,,,,,639188,001,2025-03-17_13h17.01.639,Utility_discrimination_2024_2cat,2024.2.4,MacIntel,35.71428571,,,,,,,,1,"[0.5,0.5]","[0.924,0.383]",s,"[0.5,0.6185239449756466]","[0.5,0.3814760550243534]",159.323,161.901,1,s,1,1.056,,-0.447967632,0.547967632,0.995935263,161.904,161.904,0,2,2,2,1,0.118523945,0.118523945,shape_difference4,1,,TRUE,,intensity,0.1,0.05,0.7,0.3,0.82,20,400,1E-11,3.5,0.01,0.5,0.1,,,,,,,,,,,,,,,,,,,,,,,,,,,,,,,,,,,,,,,,,,,,,,,,,,,,,,,,,,,,,,,,,,,,,,,,,,,,,,,,,
,,,,,639188,001,2025-03-17_13h17.01.639,Utility_discrimination_2024_2cat,2024.2.4,MacIntel,35.71428571,,,,,,,,3,"[0.5,0.5]","[0.383,0.924]",s,"[0.6095161251574974,0.5453946709256726]","[0.3904838748425025,0.4546053290743273]",161.905,164.535,1,d,1,1.098,,-0.447967632,0.547967632,0.995935263,164.537,164.537,0,3,3,3,1,0.118523945,0.118523945,shape_difference1,1,,TRUE,,intensity,0.1,0.05,0.7,0.3,0.82,20,400,1E-11,3.5,0.01,0.5,0.1,,,,,,,,,,,,,,,,,,,,,,,,,,,,,,,,,,,,,,,,,,,,,,,,,,,,,,,,,,,,,,,,,,,,,,,,,,,,,,,,,
,,,,,639188,001,2025-03-17_13h17.01.639,Utility_discrimination_2024_2cat,2024.2.4,MacIntel,35.71428571,,,,,,,,3,"[0.5,0.5]","[0.383,0.924]",d,"[0.5453946709256726,0.6095161251574974]","[0.4546053290743273,0.3904838748425025]",164.538,167.135,1,s,1,1.074,,-0.479157219,0.478510979,0.957668197,167.138,167.138,0,4,4,4,1,0.118523945,0.118523945,shape_difference3,1,,TRUE,,intensity,0.1,0.05,0.7,0.3,0.82,20,400,1E-11,3.5,0.01,0.5,0.1,,,,,,,,,,,,,,,,,,,,,,,,,,,,,,,,,,,,,,,,,,,,,,,,,,,,,,,,,,,,,,,,,,,,,,,,,,,,,,,,,
,,,,,639188,001,2025-03-17_13h17.01.639,Utility_discrimination_2024_2cat,2024.2.4,MacIntel,35.71428571,,,,,,,,2,"[0.5,0.5]","[0.707,0.707]",s,"[0.5141716077151222,0.5341894661325662]","[0.48582839228487784,0.46581053386743376]",167.139,169.851,1,s,1,1.19,,-0.479157219,0.478510979,0.957668197,169.855,169.855,0,5,5,5,1,0.037001587,0.037001587,shape_difference3,1,,TRUE,,intensity,0.1,0.05,0.7,0.3,0.82,20,400,1E-11,3.5,0.01,0.5,0.1,,,,,,,,,,,,,,,,,,,,,,,,,,,,,,,,,,,,,,,,,,,,,,,,,,,,,,,,,,,,,,,,,,,,,,,,,,,,,,,,,
,,,,,639188,001,2025-03-17_13h17.01.639,Utility_discrimination_2024_2cat,2024.2.4,MacIntel,35.71428571,,,,,,,,1,"[0.5,0.5]","[0.924,0.383]",s,"[0.5261601218135545,0.5261601218135545]","[0.4738398781864455,0.4738398781864455]",169.856,172.435,1,s,1,1.055,,-0.479157219,0.478510979,0.957668197,172.438,172.438,0,6,6,6,1,0.037001587,0.037001587,shape_difference2,1,,TRUE,,intensity,0.1,0.05,0.7,0.3,0.82,20,400,1E-11,3.5,0.01,0.5,0.1,,,,,,,,,,,,,,,,,,,,,,,,,,,,,,,,,,,,,,,,,,,,,,,,,,,,,,,,,,,,,,,,,,,,,,,,,,,,,,,,,
,,,,,639188,001,2025-03-17_13h17.01.639,Utility_discrimination_2024_2cat,2024.2.4,MacIntel,35.71428571,,,,,,,,4,"[0.5,0.5]","[0,1]",s,"[0.5341894661325662,0.5141716077151222]","[0.46581053386743376,0.48582839228487784]",172.438,175.085,1,s,1,1.116,,-0.479157219,0.478510979,0.957668197,175.087,175.087,0,7,7,7,1,0.037001587,0.037001587,shape_difference1,1,,TRUE,,intensity,0.1,0.05,0.7,0.3,0.82,20,400,1E-11,3.5,0.01,0.5,0.1,,,,,,,,,,,,,,,,,,,,,,,,,,,,,,,,,,,,,,,,,,,,,,,,,,,,,,,,,,,,,,,,,,,,,,,,,,,,,,,,,
,,,,,639188,001,2025-03-17_13h17.01.639,Utility_discrimination_2024_2cat,2024.2.4,MacIntel,35.71428571,,,,,,,,0,"[0.5,0.5]","[1,0]",s,"[0.5,0.5370015867235566]","[0.5,0.4629984132764434]",175.088,177.618,0,s,0,1.003,,-0.479157219,0.478510979,0.957668197,177.621,177.621,0,8,8,8,1,0.037001587,0.037001587,shape_difference4,1,,TRUE,,intensity,0.1,0.05,0.7,0.3,0.82,20,400,1E-11,3.5,0.01,0.5,0.1,,,,,,,,,,,,,,,,,,,,,,,,,,,,,,,,,,,,,,,,,,,,,,,,,,,,,,,,,,,,,,,,,,,,,,,,,,,,,,,,,
,,,,,639188,001,2025-03-17_13h17.01.639,Utility_discrimination_2024_2cat,2024.2.4,MacIntel,35.71428571,,,,,,,,3,"[0.5,0.5]","[0.383,0.924]",d,"[0.5370015867235566,0.5]","[0.4629984132764434,0.5]",177.622,180.168,1,s,1,1.016,,-0.510435314,0.404710629,0.915145943,180.171,180.171,0,9,9,9,1,0.037001587,0.037001587,shape_difference0,1,,TRUE,,intensity,0.1,0.05,0.7,0.3,0.82,20,400,1E-11,3.5,0.01,0.5,0.1,,,,,,,,,,,,,,,,,,,,,,,,,,,,,,,,,,,,,,,,,,,,,,,,,,,,,,,,,,,,,,,,,,,,,,,,,,,,,,,,,
,,,,,639188,001,2025-03-17_13h17.01.639,Utility_discrimination_2024_2cat,2024.2.4,MacIntel,35.71428571,,,,,,,,4,"[0.5,0.5]","[0,1]",s,"[0.48572626012287257,0.46556413669330093]","[0.5142737398771274,0.5344358633066991]",180.172,182.834,1,s,1,1.134,,-0.090065158,0.591798206,0.681863364,182.838,182.838,0,10,10,10,1,-0.03726825,-0.03726825,shape_difference3,1,,TRUE,,intensity,0.1,0.05,0.7,0.3,0.82,20,400,1E-11,3.5,0.01,0.5,0.1,,,,,,,,,,,,,,,,,,,,,,,,,,,,,,,,,,,,,,,,,,,,,,,,,,,,,,,,,,,,,,,,,,,,,,,,,,,,,,,,,
,,,,,639188,001,2025-03-17_13h17.01.639,Utility_discrimination_2024_2cat,2024.2.4,MacIntel,35.71428571,,,,,,,,0,"[0.5,0.5]","[1,0]",s,"[0.5,0.7256621725789216]","[0.5,0.2743378274210784]",182.839,185.401,1,s,1,1.038,,-0.510435314,0.404710629,0.915145943,185.404,185.404,0,11,11,11,1,0.225662173,0.225662173,shape_difference4,1,,TRUE,,intensity,0.1,0.05,0.7,0.3,0.82,20,400,1E-11,3.5,0.01,0.5,0.1,,,,,,,,,,,,,,,,,,,,,,,,,,,,,,,,,,,,,,,,,,,,,,,,,,,,,,,,,,,,,,,,,,,,,,,,,,,,,,,,,
,,,,,639188,001,2025-03-17_13h17.01.639,Utility_discrimination_2024_2cat,2024.2.4,MacIntel,35.71428571,,,,,,,,2,"[0.5,0.5]","[0.707,0.707]",s,"[0.4627317496680746,0.5]","[0.5372682503319254,0.5]",185.405,187.835,1,s,1,0.899,,-0.510435314,0.404710629,0.915145943,187.837,187.837,0,12,12,12,1,-0.03726825,-0.03726825,shape_difference0,1,,TRUE,,intensity,0.1,0.05,0.7,0.3,0.82,20,400,1E-11,3.5,0.01,0.5,0.1,,,,,,,,,,,,,,,,,,,,,,,,,,,,,,,,,,,,,,,,,,,,,,,,,,,,,,,,,,,,,,,,,,,,,,,,,,,,,,,,,
,,,,,639188,001,2025-03-17_13h17.01.639,Utility_discrimination_2024_2cat,2024.2.4,MacIntel,35.71428571,,,,,,,,1,"[0.5,0.5]","[0.924,0.383]",s,"[0.47365134701532874,0.47365134701532874]","[0.5263486529846713,0.5263486529846713]",187.838,190.318,1,s,1,0.959,,-0.510435314,0.404710629,0.915145943,190.321,190.321,0,13,13,13,1,-0.03726825,-0.03726825,shape_difference2,1,,TRUE,,intensity,0.1,0.05,0.7,0.3,0.82,20,400,1E-11,3.5,0.01,0.5,0.1,,,,,,,,,,,,,,,,,,,,,,,,,,,,,,,,,,,,,,,,,,,,,,,,,,,,,,,,,,,,,,,,,,,,,,,,,,,,,,,,,
,,,,,639188,001,2025-03-17_13h17.01.639,Utility_discrimination_2024_2cat,2024.2.4,MacIntel,35.71428571,,,,,,,,0,"[0.5,0.5]","[1,0]",s,"[0.46556413669330093,0.48572626012287257]","[0.5344358633066991,0.5142737398771274]",190.322,193.501,0,d,0,1.649,,-0.540713527,0.322166073,0.862879599,193.505,193.505,0,14,14,14,1,-0.03726825,-0.03726825,shape_difference1,1,,TRUE,,intensity,0.1,0.05,0.7,0.3,0.82,20,400,1E-11,3.5,0.01,0.5,0.1,,,,,,,,,,,,,,,,,,,,,,,,,,,,,,,,,,,,,,,,,,,,,,,,,,,,,,,,,,,,,,,,,,,,,,,,,,,,,,,,,
,,,,,639188,001,2025-03-17_13h17.01.639,Utility_discrimination_2024_2cat,2024.2.4,MacIntel,35.71428571,,,,,,,,2,"[0.5,0.5]","[0.707,0.707]",s,"[0.40339734014384304,0.5]","[0.5966026598561569,0.5]",193.506,196.185,1,d,1,1.15,,-0.540713527,0.322166073,0.862879599,196.188,196.188,0,15,15,15,1,-0.09660266,-0.09660266,shape_difference0,1,,TRUE,,intensity,0.1,0.05,0.7,0.3,0.82,20,400,1E-11,3.5,0.01,0.5,0.1,,,,,,,,,,,,,,,,,,,,,,,,,,,,,,,,,,,,,,,,,,,,,,,,,,,,,,,,,,,,,,,,,,,,,,,,,,,,,,,,,
,,,,,639188,001,2025-03-17_13h17.01.639,Utility_discrimination_2024_2cat,2024.2.4,MacIntel,35.71428571,,,,,,,,1,"[0.5,0.5]","[0.924,0.383]",d,"[0.431701919481697,0.431701919481697]","[0.568298080518303,0.568298080518303]",196.189,198.651,1,d,1,0.934,,-0.118157943,0.566731222,0.684889165,198.655,198.655,0,16,16,16,1,-0.09660266,-0.09660266,shape_difference2,1,,TRUE,,intensity,0.1,0.05,0.7,0.3,0.82,20,400,1E-11,3.5,0.01,0.5,0.1,,,,,,,,,,,,,,,,,,,,,,,,,,,,,,,,,,,,,,,,,,,,,,,,,,,,,,,,,,,,,,,,,,,,,,,,,,,,,,,,,
,,,,,639188,001,2025-03-17_13h17.01.639,Utility_discrimination_2024_2cat,2024.2.4,MacIntel,35.71428571,,,,,,,,3,"[0.5,0.5]","[0.383,0.924]",d,"[0.6704501382010035,0.570651951224009]","[0.3295498617989964,0.429348048775991]",198.655,201.335,0,d,0,1.154,,-0.540713527,0.322166073,0.862879599,201.337,201.337,0,17,17,17,1,0.184469847,0.184469847,shape_difference1,1,,TRUE,,intensity,0.1,0.05,0.7,0.3,0.82,20,400,1E-11,3.5,0.01,0.5,0.1,,,,,,,,,,,,,,,,,,,,,,,,,,,,,,,,,,,,,,,,,,,,,,,,,,,,,,,,,,,,,,,,,,,,,,,,,,,,,,,,,
,,,,,639188,001,2025-03-17_13h17.01.639,Utility_discrimination_2024_2cat,2024.2.4,MacIntel,35.71428571,,,,,,,,4,"[0.5,0.5]","[0,1]",s,"[0.4630011812750919,0.410739142292911]","[0.5369988187249081,0.589260857707089]",201.338,204.018,1,d,1,1.151,,-0.09936101,0.537490534,0.636851544,204.02,204.02,0,18,18,18,1,-0.09660266,-0.09660266,shape_difference3,1,,TRUE,,intensity,0.1,0.05,0.7,0.3,0.82,20,400,1E-11,3.5,0.01,0.5,0.1,,,,,,,,,,,,,,,,,,,,,,,,,,,,,,,,,,,,,,,,,,,,,,,,,,,,,,,,,,,,,,,,,,,,,,,,,,,,,,,,,
,,,,,639188,001,2025-03-17_13h17.01.639,Utility_discrimination_2024_2cat,2024.2.4,MacIntel,35.71428571,,,,,,,,2,"[0.5,0.5]","[0.707,0.707]",d,"[0.5,0.6717231163357056]","[0.5,0.3282768836642944]",204.02,206.451,1,d,1,0.899,,-0.569624043,0.240042019,0.809666061,206.453,206.453,0,19,19,19,1,0.171723116,0.171723116,shape_difference4,1,,TRUE,,intensity,0.1,0.05,0.7,0.3,0.82,20,400,1E-11,3.5,0.01,0.5,0.1,,,,,,,,,,,,,,,,,,,,,,,,,,,,,,,,,,,,,,,,,,,,,,,,,,,,,,,,,,,,,,,,,,,,,,,,,,,,,,,,,
,,,,,639188,001,2025-03-17_13h17.01.639,Utility_discrimination_2024_2cat,2024.2.4,MacIntel,35.71428571,,,,,,,,3,"[0.5,0.5]","[0.383,0.924]",d,"[0.39567503934342785,0.39567503934342785]","[0.6043249606565722,0.6043249606565722]",206.454,209.035,1,d,1,1.049,,-0.569624043,0.240042019,0.809666061,209.037,209.037,0,20,20,20,1,-0.147560058,-0.147560058,shape_difference2,1,,TRUE,,intensity,0.1,0.05,0.7,0.3,0.82,20,400,1E-11,3.5,0.01,0.5,0.1,,,,,,,,,,,,,,,,,,,,,,,,,,,,,,,,,,,,,,,,,,,,,,,,,,,,,,,,,,,,,,,,,,,,,,,,,,,,,,,,,
,,,,,639188,001,2025-03-17_13h17.01.639,Utility_discrimination_2024_2cat,2024.2.4,MacIntel,35.71428571,,,,,,,,0,"[0.5,0.5]","[1,0]",d,"[0.443484497975294,0.36365450686467793]","[0.556515502024706,0.6363454931353221]",209.038,213.501,1,s,1,2.933,,-0.569624043,0.240042019,0.809666061,213.503,213.503,0,21,21,21,1,-0.147560058,-0.147560058,shape_difference3,1,,TRUE,,intensity,0.1,0.05,0.7,0.3,0.82,20,400,1E-11,3.5,0.01,0.5,0.1,,,,,,,,,,,,,,,,,,,,,,,,,,,,,,,,,,,,,,,,,,,,,,,,,,,,,,,,,,,,,,,,,,,,,,,,,,,,,,,,,
,,,,,639188,001,2025-03-17_13h17.01.639,Utility_discrimination_2024_2cat,2024.2.4,MacIntel,35.71428571,,,,,,,,1,"[0.5,0.5]","[0.924,0.383]",s,"[0.35243994249424015,0.5]","[0.6475600575057598,0.5]",213.504,216.085,0,d,0,1.053,,0.074504002,0.684517101,0.610013099,216.087,216.087,0,22,22,22,1,-0.147560058,-0.147560058,shape_difference0,1,,TRUE,,intensity,0.1,0.05,0.7,0.3,0.82,20,400,1E-11,3.5,0.01,0.5,0.1,,,,,,,,,,,,,,,,,,,,,,,,,,,,,,,,,,,,,,,,,,,,,,,,,,,,,,,,,,,,,,,,,,,,,,,,,,,,,,,,,
,,,,,639188,001,2025-03-17_13h17.01.639,Utility_discrimination_2024_2cat,2024.2.4,MacIntel,35.71428571,,,,,,,,4,"[0.5,0.5]","[0,1]",s,"[0.8352924595570358,0.6389794502276458]","[0.1647075404429642,0.3610205497723542]",216.087,218.601,1,d,1,0.987,,-0.120490743,0.470685176,0.591175919,218.604,218.604,0,23,23,23,1,0.362870627,0.362870627,shape_difference1,1,,TRUE,,intensity,0.1,0.05,0.7,0.3,0.82,20,400,1E-11,3.5,0.01,0.5,0.1,,,,,,,,,,,,,,,,,,,,,,,,,,,,,,,,,,,,,,,,,,,,,,,,,,,,,,,,,,,,,,,,,,,,,,,,,,,,,,,,,
,,,,,639188,001,2025-03-17_13h17.01.639,Utility_discrimination_2024_2cat,2024.2.4,MacIntel,35.71428571,,,,,,,,4,"[0.5,0.5]","[0,1]",d,"[0.5,0.6306116159745301]","[0.5,0.3693883840254699]",218.605,221.085,1,d,1,0.955,,-0.144584963,0.406347617,0.550932581,221.088,221.088,0,24,24,24,1,0.130611616,0.130611616,shape_difference4,1,,TRUE,,intensity,0.1,0.05,0.7,0.3,0.82,20,400,1E-11,3.5,0.01,0.5,0.1,,,,,,,,,,,,,,,,,,,,,,,,,,,,,,,,,,,,,,,,,,,,,,,,,,,,,,,,,,,,,,,,,,,,,,,,,,,,,,,,,
,,,,,639188,001,2025-03-17_13h17.01.639,Utility_discrimination_2024_2cat,2024.2.4,MacIntel,35.71428571,,,,,,,,2,"[0.5,0.5]","[0.707,0.707]",d,"[0.5,0.5917420996447461]","[0.5,0.4082579003552539]",221.088,223.635,1,d,1,1.02,,-0.588261172,0.151848651,0.740109824,223.637,223.637,0,25,25,25,1,0.0917421,0.0917421,shape_difference4,1,,TRUE,,intensity,0.1,0.05,0.7,0.3,0.82,20,400,1E-11,3.5,0.01,0.5,0.1,,,,,,,,,,,,,,,,,,,,,,,,,,,,,,,,,,,,,,,,,,,,,,,,,,,,,,,,,,,,,,,,,,,,,,,,,,,,,,,,,
,,,,,639188,001,2025-03-17_13h17.01.639,Utility_discrimination_2024_2cat,2024.2.4,MacIntel,35.71428571,,,,,,,,0,"[0.5,0.5]","[1,0]",d,"[0.3649561854463764,0.3649561854463764]","[0.6350438145536236,0.6350438145536236]",223.638,230.852,1,d,1,5.684,,-0.233083019,0.431441265,0.664524284,230.854,230.854,0,26,26,26,1,-0.191009639,-0.191009639,shape_difference2,1,,TRUE,,intensity,0.1,0.05,0.7,0.3,0.82,20,400,1E-11,3.5,0.01,0.5,0.1,,,,,,,,,,,,,,,,,,,,,,,,,,,,,,,,,,,,,,,,,,,,,,,,,,,,,,,,,,,,,,,,,,,,,,,,,,,,,,,,,
,,,,,639188,001,2025-03-17_13h17.01.639,Utility_discrimination_2024_2cat,2024.2.4,MacIntel,35.71428571,,,,,,,,1,"[0.5,0.5]","[0.924,0.383]",d,"[0.5307719819880177,0.5]","[0.46922801801198233,0.5]",230.855,233.485,1,d,1,1.1,,0.059192908,0.630069596,0.570876688,233.486,233.486,0,27,27,27,1,0.030771982,0.030771982,shape_difference0,1,,TRUE,,intensity,0.1,0.05,0.7,0.3,0.82,20,400,1E-11,3.5,0.01,0.5,0.1,,,,,,,,,,,,,,,,,,,,,,,,,,,,,,,,,,,,,,,,,,,,,,,,,,,,,,,,,,,,,,,,,,,,,,,,,,,,,,,,,
,,,,,639188,001,2025-03-17_13h17.01.639,Utility_discrimination_2024_2cat,2024.2.4,MacIntel,35.71428571,,,,,,,,3,"[0.5,0.5]","[0.383,0.924]",d,"[0.7974369413967155,0.623288256011842]","[0.2025630586032845,0.376711743988158]",233.487,236.085,1,d,1,1.07,,-0.588261172,0.151848651,0.740109824,236.087,236.087,0,28,28,28,1,0.321901452,0.321901452,shape_difference1,1,,TRUE,,intensity,0.1,0.05,0.7,0.3,0.82,20,400,1E-11,3.5,0.01,0.5,0.1,,,,,,,,,,,,,,,,,,,,,,,,,,,,,,,,,,,,,,,,,,,,,,,,,,,,,,,,,,,,,,,,,,,,,,,,,,,,,,,,,
,,,,,639188,001,2025-03-17_13h17.01.639,Utility_discrimination_2024_2cat,2024.2.4,MacIntel,35.71428571,,,,,,,,4,"[0.5,0.5]","[0,1]",d,"[0.4268433083818418,0.32350709385070975]","[0.5731566916181582,0.6764929061492903]",236.088,238.535,1,d,1,0.918,,-0.160589475,0.350306654,0.510896129,238.537,238.537,0,29,29,29,1,-0.191009639,-0.191009639,shape_difference3,1,,TRUE,,intensity,0.1,0.05,0.7,0.3,0.82,20,400,1E-11,3.5,0.01,0.5,0.1,,,,,,,,,,,,,,,,,,,,,,,,,,,,,,,,,,,,,,,,,,,,,,,,,,,,,,,,,,,,,,,,,,,,,,,,,,,,,,,,,
,,,,,639188,001,2025-03-17_13h17.01.639,Utility_discrimination_2024_2cat,2024.2.4,MacIntel,35.71428571,,,,,,,,2,"[0.5,0.5]","[0.707,0.707]",d,"[0.5,0.5661561925116445]","[0.5,0.43384380748835555]",238.538,241.685,1,d,1,1.622,,-0.616056949,0.077962516,0.694019466,241.687,241.687,0,30,30,30,1,0.066156193,0.066156193,shape_difference4,1,,TRUE,,intensity,0.1,0.05,0.7,0.3,0.82,20,400,1E-11,3.5,0.01,0.5,0.1,,,,,,,,,,,,,,,,,,,,,,,,,,,,,,,,,,,,,,,,,,,,,,,,,,,,,,,,,,,,,,,,,,,,,,,,,,,,,,,,,
,,,,,639188,001,2025-03-17_13h17.01.639,Utility_discrimination_2024_2cat,2024.2.4,MacIntel,35.71428571,,,,,,,,1,"[0.5,0.5]","[0.924,0.383]",d,"[0.33483614350409285,0.33483614350409285]","[0.6651638564959071,0.6651638564959071]",241.687,244.152,1,d,1,0.939,,0.042707883,0.579604155,0.536896272,244.153,244.153,0,31,31,31,1,-0.233612244,-0.233612244,shape_difference2,1,,TRUE,,intensity,0.1,0.05,0.7,0.3,0.82,20,400,1E-11,3.5,0.01,0.5,0.1,,,,,,,,,,,,,,,,,,,,,,,,,,,,,,,,,,,,,,,,,,,,,,,,,,,,,,,,,,,,,,,,,,,,,,,,,,,,,,,,,
,,,,,639188,001,2025-03-17_13h17.01.639,Utility_discrimination_2024_2cat,2024.2.4,MacIntel,35.71428571,,,,,,,,3,"[0.5,0.5]","[0.383,0.924]",d,"[0.7623919911477257,0.6087620482787651]","[0.23760800885227423,0.3912379517212349]",244.155,246.735,0,d,0,1.056,,-0.616056949,0.077962516,0.694019466,246.737,246.737,0,32,32,32,1,0.283974016,0.283974016,shape_difference1,1,,TRUE,,intensity,0.1,0.05,0.7,0.3,0.82,20,400,1E-11,3.5,0.01,0.5,0.1,,,,,,,,,,,,,,,,,,,,,,,,,,,,,,,,,,,,,,,,,,,,,,,,,,,,,,,,,,,,,,,,,,,,,,,,,,,,,,,,,
,,,,,639188,001,2025-03-17_13h17.01.639,Utility_discrimination_2024_2cat,2024.2.4,MacIntel,35.71428571,,,,,,,,0,"[0.5,0.5]","[1,0]",s,"[0.410526510554551,0.28414228655980445]","[0.589473489445449,0.7158577134401956]",246.738,251.018,1,d,1,2.749,,-0.25333342,0.363948207,0.617281627,251.02,251.02,0,33,33,33,1,-0.233612244,-0.233612244,shape_difference3,1,,TRUE,,intensity,0.1,0.05,0.7,0.3,0.82,20,400,1E-11,3.5,0.01,0.5,0.1,,,,,,,,,,,,,,,,,,,,,,,,,,,,,,,,,,,,,,,,,,,,,,,,,,,,,,,,,,,,,,,,,,,,,,,,,,,,,,,,,
,,,,,639188,001,2025-03-17_13h17.01.639,Utility_discrimination_2024_2cat,2024.2.4,MacIntel,35.71428571,,,,,,,,0,"[0.5,0.5]","[1,0]",d,"[0.4862474728668147,0.5]","[0.5137525271331853,0.5]",251.021,254.968,1,d,1,2.419,,-0.266581438,0.284894715,0.551476153,254.971,254.971,0,34,34,34,1,-0.013752527,-0.013752527,shape_difference0,1,,TRUE,,intensity,0.1,0.05,0.7,0.3,0.82,20,400,1E-11,3.5,0.01,0.5,0.1,,,,,,,,,,,,,,,,,,,,,,,,,,,,,,,,,,,,,,,,,,,,,,,,,,,,,,,,,,,,,,,,,,,,,,,,,,,,,,,,,
,,,,,639188,001,2025-03-17_13h17.01.639,Utility_discrimination_2024_2cat,2024.2.4,MacIntel,35.71428571,,,,,,,,3,"[0.5,0.5]","[0.383,0.924]",d,"[0.45758138611197696,0.5]","[0.542418613888023,0.5]",254.971,257.668,1,d,1,1.177,,-0.642600146,0.003859163,0.64645931,257.67,257.67,0,35,35,35,1,-0.042418614,-0.042418614,shape_difference0,1,,TRUE,,intensity,0.1,0.05,0.7,0.3,0.82,20,400,1E-11,3.5,0.01,0.5,0.1,,,,,,,,,,,,,,,,,,,,,,,,,,,,,,,,,,,,,,,,,,,,,,,,,,,,,,,,,,,,,,,,,,,,,,,,,,,,,,,,,
,,,,,639188,001,2025-03-17_13h17.01.639,Utility_discrimination_2024_2cat,2024.2.4,MacIntel,35.71428571,,,,,,,,2,"[0.5,0.5]","[0.707,0.707]",d,"[0.3967329646643764,0.2508649069187566]","[0.6032670353356236,0.7491350930812434]",257.671,260.267,0,d,0,1.066,,-0.642600146,0.003859163,0.64645931,260.27,260.27,0,36,36,36,1,-0.269626724,-0.269626724,shape_difference3,1,,TRUE,,intensity,0.1,0.05,0.7,0.3,0.82,20,400,1E-11,3.5,0.01,0.5,0.1,,,,,,,,,,,,,,,,,,,,,,,,,,,,,,,,,,,,,,,,,,,,,,,,,,,,,,,,,,,,,,,,,,,,,,,,,,,,,,,,,
,,,,,639188,001,2025-03-17_13h17.01.639,Utility_discrimination_2024_2cat,2024.2.4,MacIntel,35.71428571,,,,,,,,1,"[0.5,0.5]","[0.924,0.383]",s,"[0.30937390605147286,0.30937390605147286]","[0.6906260939485271,0.6906260939485271]",260.27,262.985,1,s,1,1.183,,0.169762773,0.686418479,0.516655706,262.987,262.988,0,37,37,37,1,-0.269626724,-0.269626724,shape_difference2,1,,TRUE,,intensity,0.1,0.05,0.7,0.3,0.82,20,400,1E-11,3.5,0.01,0.5,0.1,,,,,,,,,,,,,,,,,,,,,,,,,,,,,,,,,,,,,,,,,,,,,,,,,,,,,,,,,,,,,,,,,,,,,,,,,,,,,,,,,
,,,,,639188,001,2025-03-17_13h17.01.639,Utility_discrimination_2024_2cat,2024.2.4,MacIntel,35.71428571,,,,,,,,4,"[0.5,0.5]","[0,1]",s,"[0.8654420505856038,0.6514765209678423]","[0.1345579494143963,0.34852347903215775]",262.989,265.418,1,d,1,0.9,,-0.171576622,0.286796614,0.458373237,265.42,265.42,0,38,38,38,1,0.395500055,0.395500055,shape_difference1,1,,TRUE,,intensity,0.1,0.05,0.7,0.3,0.82,20,400,1E-11,3.5,0.01,0.5,0.1,,,,,,,,,,,,,,,,,,,,,,,,,,,,,,,,,,,,,,,,,,,,,,,,,,,,,,,,,,,,,,,,,,,,,,,,,,,,,,,,,
,,,,,639188,001,2025-03-17_13h17.01.639,Utility_discrimination_2024_2cat,2024.2.4,MacIntel,35.71428571,,,,,,,,4,"[0.5,0.5]","[0,1]",d,"[0.5,0.5442987540991198]","[0.5,0.4557012459008803]",265.42,268.352,0,d,0,1.401,,-0.086613843,0.373421794,0.460035637,268.354,268.354,0,39,39,39,1,0.044298754,0.044298754,shape_difference4,1,,TRUE,,intensity,0.1,0.05,0.7,0.3,0.82,20,400,1E-11,3.5,0.01,0.5,0.1,,,,,,,,,,,,,,,,,,,,,,,,,,,,,,,,,,,,,,,,,,,,,,,,,,,,,,,,,,,,,,,,,,,,,,,,,,,,,,,,,
,,,,,639188,001,2025-03-17_13h17.01.639,Utility_discrimination_2024_2cat,2024.2.4,MacIntel,35.71428571,,,,,,,,3,"[0.5,0.5]","[0.383,0.924]",s,"[0.5,0.5926867023447159]","[0.5,0.4073132976552841]",268.355,271.252,1,s,1,1.373,,-0.393332692,0.123667621,0.517000313,271.254,271.254,0,40,40,40,1,0.092686702,0.092686702,shape_difference4,1,,TRUE,,intensity,0.1,0.05,0.7,0.3,0.82,20,400,1E-11,3.5,0.01,0.5,0.1,,,,,,,,,,,,,,,,,,,,,,,,,,,,,,,,,,,,,,,,,,,,,,,,,,,,,,,,,,,,,,,,,,,,,,,,,,,,,,,,,
,,,,,639188,001,2025-03-17_13h17.01.639,Utility_discrimination_2024_2cat,2024.2.4,MacIntel,35.71428571,,,,,,,,2,"[0.5,0.5]","[0.707,0.707]",s,"[0.43414526569969053,0.34112330419455367]","[0.5658547343003095,0.6588766958054464]",271.254,273.668,1,d,1,0.884,,-0.67113939,-0.036541485,0.634597904,273.671,273.671,0,41,41,41,1,-0.171944476,-0.171944476,shape_difference3,1,,TRUE,,intensity,0.1,0.05,0.7,0.3,0.82,20,400,1E-11,3.5,0.01,0.5,0.1,,,,,,,,,,,,,,,,,,,,,,,,,,,,,,,,,,,,,,,,,,,,,,,,,,,,,,,,,,,,,,,,,,,,,,,,,,,,,,,,,
,,,,,639188,001,2025-03-17_13h17.01.639,Utility_discrimination_2024_2cat,2024.2.4,MacIntel,35.71428571,,,,,,,,0,"[0.5,0.5]","[1,0]",d,"[0.28070879426531026,0.28070879426531026]","[0.7192912057346897,0.7192912057346897]",273.672,276.435,0,d,0,1.241,,-0.275570276,0.202427142,0.477997418,276.436,276.436,0,42,42,42,1,-0.310171437,-0.310171437,shape_difference2,1,,TRUE,,intensity,0.1,0.05,0.7,0.3,0.82,20,400,1E-11,3.5,0.01,0.5,0.1,,,,,,,,,,,,,,,,,,,,,,,,,,,,,,,,,,,,,,,,,,,,,,,,,,,,,,,,,,,,,,,,,,,,,,,,,,,,,,,,,
,,,,,639188,001,2025-03-17_13h17.01.639,Utility_discrimination_2024_2cat,2024.2.4,MacIntel,35.71428571,,,,,,,,1,"[0.5,0.5]","[0.924,0.383]",s,"[0.4330909088933339,0.5]","[0.5669090911066661,0.5]",276.437,278.851,1,d,1,0.893,,0.154048778,0.641502079,0.487453301,278.854,278.854,0,43,43,43,1,-0.066909091,-0.066909091,shape_difference0,1,,TRUE,,intensity,0.1,0.05,0.7,0.3,0.82,20,400,1E-11,3.5,0.01,0.5,0.1,,,,,,,,,,,,,,,,,,,,,,,,,,,,,,,,,,,,,,,,,,,,,,,,,,,,,,,,,,,,,,,,,,,,,,,,,,,,,,,,,
,,,,,639188,001,2025-03-17_13h17.01.639,Utility_discrimination_2024_2cat,2024.2.4,MacIntel,35.71428571,,,,,,,,2,"[0.5,0.5]","[0.707,0.707]",d,"[0.8400093281262895,0.6409346024592737]","[0.15999067187371047,0.3590653975407263]",278.854,281.285,1,d,1,0.905,,-0.41101488,0.082228477,0.493243356,281.288,281.288,0,44,44,44,1,0.367975463,0.367975463,shape_difference1,1,,TRUE,,intensity,0.1,0.05,0.7,0.3,0.82,20,400,1E-11,3.5,0.01,0.5,0.1,,,,,,,,,,,,,,,,,,,,,,,,,,,,,,,,,,,,,,,,,,,,,,,,,,,,,,,,,,,,,,,,,,,,,,,,,,,,,,,,,
,,,,,639188,001,2025-03-17_13h17.01.639,Utility_discrimination_2024_2cat,2024.2.4,MacIntel,35.71428571,,,,,,,,3,"[0.5,0.5]","[0.383,0.924]",d,"[0.3583432211275913,0.3583432211275913]","[0.6416567788724087,0.6416567788724087]",281.289,283.868,1,s,1,1.05,,-0.400968339,0.06739178,0.468360119,283.87,283.87,0,45,45,45,1,-0.200363195,-0.200363195,shape_difference2,1,,TRUE,,intensity,0.1,0.05,0.7,0.3,0.82,20,400,1E-11,3.5,0.01,0.5,0.1,,,,,,,,,,,,,,,,,,,,,,,,,,,,,,,,,,,,,,,,,,,,,,,,,,,,,,,,,,,,,,,,,,,,,,,,,,,,,,,,,
,,,,,639188,001,2025-03-17_13h17.01.639,Utility_discrimination_2024_2cat,2024.2.4,MacIntel,35.71428571,,,,,,,,1,"[0.5,0.5]","[0.924,0.383]",s,"[0.4219328943276518,0.3116605596834211]","[0.5780671056723482,0.6883394403165789]",283.871,286.768,1,s,1,1.366,,0.143296961,0.588009342,0.444712381,286.771,286.771,0,46,46,46,1,-0.203830563,-0.203830563,shape_difference3,1,,TRUE,,intensity,0.1,0.05,0.7,0.3,0.82,20,400,1E-11,3.5,0.01,0.5,0.1,,,,,,,,,,,,,,,,,,,,,,,,,,,,,,,,,,,,,,,,,,,,,,,,,,,,,,,,,,,,,,,,,,,,,,,,,,,,,,,,,
,,,,,639188,001,2025-03-17_13h17.01.639,Utility_discrimination_2024_2cat,2024.2.4,MacIntel,35.71428571,,,,,,,,4,"[0.5,0.5]","[0,1]",s,"[0.8183094632911998,0.6319399615157246]","[0.18169053670880014,0.3680600384842754]",286.772,289.485,1,s,1,1.187,,-0.091024538,0.313334532,0.40435907,289.487,289.487,0,47,47,47,1,0.344490761,0.344490761,shape_difference1,1,,TRUE,,intensity,0.1,0.05,0.7,0.3,0.82,20,400,1E-11,3.5,0.01,0.5,0.1,,,,,,,,,,,,,,,,,,,,,,,,,,,,,,,,,,,,,,,,,,,,,,,,,,,,,,,,,,,,,,,,,,,,,,,,,,,,,,,,,
,,,,,639188,001,2025-03-17_13h17.01.639,Utility_discrimination_2024_2cat,2024.2.4,MacIntel,35.71428571,,,,,,,,0,"[0.5,0.5]","[1,0]",s,"[0.5,0.5745368631007679]","[0.5,0.4254631368992321]",289.488,292.068,0,d,0,1.05,,-0.285725719,0.155920815,0.441646534,292.071,292.071,0,48,48,48,1,0.074536863,0.074536863,shape_difference4,1,,TRUE,,intensity,0.1,0.05,0.7,0.3,0.82,20,400,1E-11,3.5,0.01,0.5,0.1,,,,,,,,,,,,,,,,,,,,,,,,,,,,,,,,,,,,,,,,,,,,,,,,,,,,,,,,,,,,,,,,,,,,,,,,,,,,,,,,,
,,,,,639188,001,2025-03-17_13h17.01.639,Utility_discrimination_2024_2cat,2024.2.4,MacIntel,35.71428571,,,,,,,,3,"[0.5,0.5]","[0.383,0.924]",s,"[0.40745397738349426,0.5]","[0.5925460226165058,0.5]",292.072,295.735,1,d,1,2.137,,-0.424537726,0.003151854,0.42768958,295.737,295.737,0,49,49,49,1,-0.092546023,-0.092546023,shape_difference0,1,,TRUE,,intensity,0.1,0.05,0.7,0.3,0.82,20,400,1E-11,3.5,0.01,0.5,0.1,,,,,,,,,,,,,,,,,,,,,,,,,,,,,,,,,,,,,,,,,,,,,,,,,,,,,,,,,,,,,,,,,,,,,,,,,,,,,,,,,
,,,,,639188,001,2025-03-17_13h17.01.639,Utility_discrimination_2024_2cat,2024.2.4,MacIntel,35.71428571,,,,,,,,2,"[0.5,0.5]","[0.707,0.707]",d,"[0.4136985850965321,0.291795019919571]","[0.5863014149034679,0.708204980080429]",295.738,298.384,1,d,1,1.116,,-0.432858389,0.023456084,0.456314473,298.386,298.386,0,50,50,50,1,-0.225330065,-0.225330065,shape_difference3,1,,TRUE,,intensity,0.1,0.05,0.7,0.3,0.82,20,400,1E-11,3.5,0.01,0.5,0.1,,,,,,,,,,,,,,,,,,,,,,,,,,,,,,,,,,,,,,,,,,,,,,,,,,,,,,,,,,,,,,,,,,,,,,,,,,,,,,,,,
,,,,,639188,001,2025-03-17_13h17.01.639,Utility_discrimination_2024_2cat,2024.2.4,MacIntel,35.71428571,,,,,,,,4,"[0.5,0.5]","[0,1]",d,"[0.341817786697422,0.341817786697422]","[0.658182213302578,0.658182213302578]",298.387,301.185,1,d,1,1.268,,-0.032032142,0.443520552,0.475552693,301.188,301.188,0,51,51,51,1,-0.223737218,-0.223737218,shape_difference2,1,,TRUE,,intensity,0.1,0.05,0.7,0.3,0.82,20,400,1E-11,3.5,0.01,0.5,0.1,,,,,,,,,,,,,,,,,,,,,,,,,,,,,,,,,,,,,,,,,,,,,,,,,,,,,,,,,,,,,,,,,,,,,,,,,,,,,,,,,
,,,,,639188,001,2025-03-17_13h17.01.639,Utility_discrimination_2024_2cat,2024.2.4,MacIntel,35.71428571,,,,,,,,0,"[0.5,0.5]","[1,0]",d,"[0.5,0.6527875363378172]","[0.5,0.34721246366218284]",301.189,305.984,0,d,0,3.276,,-0.293145897,0.096937823,0.39008372,305.986,305.986,0,52,52,52,1,0.152787536,0.152787536,shape_difference4,1,,TRUE,,intensity,0.1,0.05,0.7,0.3,0.82,20,400,1E-11,3.5,0.01,0.5,0.1,,,,,,,,,,,,,,,,,,,,,,,,,,,,,,,,,,,,,,,,,,,,,,,,,,,,,,,,,,,,,,,,,,,,,,,,,,,,,,,,,
,,,,,639188,001,2025-03-17_13h17.01.639,Utility_discrimination_2024_2cat,2024.2.4,MacIntel,35.71428571,,,,,,,,1,"[0.5,0.5]","[0.924,0.383]",s,"[0.38775584847615785,0.5]","[0.6122441515238422,0.5]",305.987,308.435,1,d,1,0.919,,0.131939368,0.554843408,0.42290404,308.437,308.437,0,53,53,53,1,-0.112244152,-0.112244152,shape_difference0,1,,TRUE,,intensity,0.1,0.05,0.7,0.3,0.82,20,400,1E-11,3.5,0.01,0.5,0.1,,,,,,,,,,,,,,,,,,,,,,,,,,,,,,,,,,,,,,,,,,,,,,,,,,,,,,,,,,,,,,,,,,,,,,,,,,,,,,,,,
,,,,,639188,001,2025-03-17_13h17.01.639,Utility_discrimination_2024_2cat,2024.2.4,MacIntel,35.71428571,,,,,,,,2,"[0.5,0.5]","[0.707,0.707]",d,"[0.7967026197719048,0.6229838781089172]","[0.20329738022809518,0.37701612189108274]",308.437,311.001,1,s,1,1.034,,-0.447955661,-0.022455167,0.425500494,311.004,311.004,0,54,54,54,1,0.321106731,0.321106731,shape_difference1,1,,TRUE,,intensity,0.1,0.05,0.7,0.3,0.82,20,400,1E-11,3.5,0.01,0.5,0.1,,,,,,,,,,,,,,,,,,,,,,,,,,,,,,,,,,,,,,,,,,,,,,,,,,,,,,,,,,,,,,,,,,,,,,,,,,,,,,,,,
,,,,,639188,001,2025-03-17_13h17.01.639,Utility_discrimination_2024_2cat,2024.2.4,MacIntel,35.71428571,,,,,,,,4,"[0.5,0.5]","[0,1]",s,"[0.32783627680548866,0.32783627680548866]","[0.6721637231945113,0.6721637231945113]",311.005,313.585,1,s,1,1.052,,0.043106539,0.584568495,0.541461956,313.588,313.588,0,55,55,55,1,-0.243513046,-0.243513046,shape_difference2,1,,TRUE,,intensity,0.1,0.05,0.7,0.3,0.82,20,400,1E-11,3.5,0.01,0.5,0.1,,,,,,,,,,,,,,,,,,,,,,,,,,,,,,,,,,,,,,,,,,,,,,,,,,,,,,,,,,,,,,,,,,,,,,,,,,,,,,,,,
,,,,,639188,001,2025-03-17_13h17.01.639,Utility_discrimination_2024_2cat,2024.2.4,MacIntel,35.71428571,,,,,,,,3,"[0.5,0.5]","[0.383,0.924]",s,"[0.5,0.7660506800315574]","[0.5,0.2339493199684426]",313.589,316.168,1,s,1,1.053,,-0.440960662,-0.030986662,0.409974,316.17,316.17,0,56,56,56,1,0.26605068,0.26605068,shape_difference4,1,,TRUE,,intensity,0.1,0.05,0.7,0.3,0.82,20,400,1E-11,3.5,0.01,0.5,0.1,,,,,,,,,,,,,,,,,,,,,,,,,,,,,,,,,,,,,,,,,,,,,,,,,,,,,,,,,,,,,,,,,,,,,,,,,,,,,,,,,
,,,,,639188,001,2025-03-17_13h17.01.639,Utility_discrimination_2024_2cat,2024.2.4,MacIntel,35.71428571,,,,,,,,1,"[0.5,0.5]","[0.924,0.383]",s,"[0.40669189754799584,0.27489115753093507]","[0.5933081024520042,0.7251088424690649]",316.171,318.785,1,s,1,1.088,,0.123926548,0.507382966,0.383456417,318.787,318.787,0,57,57,57,1,-0.243624288,-0.243624288,shape_difference3,1,,TRUE,,intensity,0.1,0.05,0.7,0.3,0.82,20,400,1E-11,3.5,0.01,0.5,0.1,,,,,,,,,,,,,,,,,,,,,,,,,,,,,,,,,,,,,,,,,,,,,,,,,,,,,,,,,,,,,,,,,,,,,,,,,,,,,,,,,
,,,,,639188,001,2025-03-17_13h17.01.639,Utility_discrimination_2024_2cat,2024.2.4,MacIntel,35.71428571,,,,,,,,0,"[0.5,0.5]","[1,0]",s,"[0.7745011706157865,0.6137813293786214]","[0.2254988293842135,0.38621867062137855]",318.788,321.252,1,s,1,0.94,,-0.298771718,0.067619219,0.366390937,321.254,321.254,0,58,58,58,1,0.297079189,0.297079189,shape_difference1,1,,TRUE,,intensity,0.1,0.05,0.7,0.3,0.82,20,400,1E-11,3.5,0.01,0.5,0.1,,,,,,,,,,,,,,,,,,,,,,,,,,,,,,,,,,,,,,,,,,,,,,,,,,,,,,,,,,,,,,,,,,,,,,,,,,,,,,,,,
,,,,,639188,001,2025-03-17_13h17.01.639,Utility_discrimination_2024_2cat,2024.2.4,MacIntel,35.71428571,,,,,,,,2,"[0.5,0.5]","[0.707,0.707]",s,"[0.37350235270975674,0.5]","[0.6264976472902433,0.5]",321.254,323.751,1,s,1,0.97,,-0.458706428,-0.064359523,0.394346905,323.754,323.754,0,59,59,59,1,-0.126497647,-0.126497647,shape_difference0,1,,TRUE,,intensity,0.1,0.05,0.7,0.3,0.82,20,400,1E-11,3.5,0.01,0.5,0.1,,,,,,,,,,,,,,,,,,,,,,,,,,,,,,,,,,,,,,,,,,,,,,,,,,,,,,,,,,,,,,,,,,,,,,,,,,,,,,,,,
,,,,,639188,001,2025-03-17_13h17.01.639,Utility_discrimination_2024_2cat,2024.2.4,MacIntel,35.71428571,,,,,,,,3,"[0.5,0.5]","[0.383,0.924]",s,"[0.31535905005836073,0.31535905005836073]","[0.6846409499416393,0.6846409499416393]",323.754,326.418,1,s,1,1.134,,-0.452740604,-0.074493318,0.378247286,326.42,326.42,0,60,60,60,1,-0.261161174,-0.261161174,shape_difference2,1,,TRUE,,intensity,0.1,0.05,0.7,0.3,0.82,20,400,1E-11,3.5,0.01,0.5,0.1,,,,,,,,,,,,,,,,,,,,,,,,,,,,,,,,,,,,,,,,,,,,,,,,,,,,,,,,,,,,,,,,,,,,,,,,,,,,,,,,,
,,,,,639188,001,2025-03-17_13h17.01.639,Utility_discrimination_2024_2cat,2024.2.4,MacIntel,35.71428571,,,,,,,,1,"[0.5,0.5]","[0.924,0.383]",s,"[0.4004104722066063,0.2597370138874784]","[0.5995895277933937,0.7402629861125216]",326.421,328.935,1,s,1,0.992,,0.11812115,0.479855794,0.361734644,328.937,328.937,0,61,61,61,1,-0.260024877,-0.260024877,shape_difference3,1,,TRUE,,intensity,0.1,0.05,0.7,0.3,0.82,20,400,1E-11,3.5,0.01,0.5,0.1,,,,,,,,,,,,,,,,,,,,,,,,,,,,,,,,,,,,,,,,,,,,,,,,,,,,,,,,,,,,,,,,,,,,,,,,,,,,,,,,,
,,,,,639188,001,2025-03-17_13h17.01.639,Utility_discrimination_2024_2cat,2024.2.4,MacIntel,35.71428571,,,,,,,,4,"[0.5,0.5]","[0,1]",s,"[0.7610396962747199,0.608201519126859]","[0.23896030372528004,0.39179848087314095]",328.937,331.318,1,s,1,0.85,,0.03480393,0.525903427,0.491099497,331.32,331.32,0,62,62,62,1,0.282510494,0.282510494,shape_difference1,1,,TRUE,,intensity,0.1,0.05,0.7,0.3,0.82,20,400,1E-11,3.5,0.01,0.5,0.1,,,,,,,,,,,,,,,,,,,,,,,,,,,,,,,,,,,,,,,,,,,,,,,,,,,,,,,,,,,,,,,,,,,,,,,,,,,,,,,,,
,,,,,639188,001,2025-03-17_13h17.01.639,Utility_discrimination_2024_2cat,2024.2.4,MacIntel,35.71428571,,,,,,,,0,"[0.5,0.5]","[1,0]",s,"[0.5,0.7360342624923064]","[0.5,0.2639657375076936]",331.32,333.735,1,d,1,0.883,,-0.325519788,0.028894007,0.354413795,333.737,333.737,0,63,63,63,1,0.236034262,0.236034262,shape_difference4,1,,TRUE,,intensity,0.1,0.05,0.7,0.3,0.82,20,400,1E-11,3.5,0.01,0.5,0.1,,,,,,,,,,,,,,,,,,,,,,,,,,,,,,,,,,,,,,,,,,,,,,,,,,,,,,,,,,,,,,,,,,,,,,,,,,,,,,,,,
,,,,,639188,001,2025-03-17_13h17.01.639,Utility_discrimination_2024_2cat,2024.2.4,MacIntel,35.71428571,,,,,,,,2,"[0.5,0.5]","[0.707,0.707]",d,"[0.361225173266169,0.5]","[0.638774826733831,0.5]",333.738,336.885,0,d,0,1.627,,-0.471269335,-0.103098849,0.368170486,336.887,336.887,0,64,64,64,1,-0.138774827,-0.138774827,shape_difference0,1,,TRUE,,intensity,0.1,0.05,0.7,0.3,0.82,20,400,1E-11,3.5,0.01,0.5,0.1,,,,,,,,,,,,,,,,,,,,,,,,,,,,,,,,,,,,,,,,,,,,,,,,,,,,,,,,,,,,,,,,,,,,,,,,,,,,,,,,,
,,,,,639188,001,2025-03-17_13h17.01.639,Utility_discrimination_2024_2cat,2024.2.4,MacIntel,35.71428571,,,,,,,,0,"[0.5,0.5]","[1,0]",s,"[0.30184063240167847,0.30184063240167847]","[0.6981593675983215,0.6981593675983215]",336.888,342.318,1,d,1,3.901,,-0.238102447,0.121198562,0.359301008,342.321,342.321,0,65,65,65,1,-0.280281991,-0.280281991,shape_difference2,1,,TRUE,,intensity,0.1,0.05,0.7,0.3,0.82,20,400,1E-11,3.5,0.01,0.5,0.1,,,,,,,,,,,,,,,,,,,,,,,,,,,,,,,,,,,,,,,,,,,,,,,,,,,,,,,,,,,,,,,,,,,,,,,,,,,,,,,,,
,,,,,639188,001,2025-03-17_13h17.01.639,Utility_discrimination_2024_2cat,2024.2.4,MacIntel,35.71428571,,,,,,,,4,"[0.5,0.5]","[0,1]",d,"[0.4174133953027791,0.5]","[0.5825866046972209,0.5]",342.322,345.535,1,d,1,1.691,,0.026389163,0.47857331,0.452184147,345.537,345.537,0,66,66,66,1,-0.082586605,-0.082586605,shape_difference0,1,,TRUE,,intensity,0.1,0.05,0.7,0.3,0.82,20,400,1E-11,3.5,0.01,0.5,0.1,,,,,,,,,,,,,,,,,,,,,,,,,,,,,,,,,,,,,,,,,,,,,,,,,,,,,,,,,,,,,,,,,,,,,,,,,,,,,,,,,
,,,,,639188,001,2025-03-17_13h17.01.639,Utility_discrimination_2024_2cat,2024.2.4,MacIntel,35.71428571,,,,,,,,3,"[0.5,0.5]","[0.383,0.924]",d,"[0.5,0.7060266589626607]","[0.5,0.29397334103733924]",345.537,348.968,0,d,0,1.9,,-0.46658699,-0.105993648,0.360593342,348.971,348.971,0,67,67,67,1,0.206026659,0.206026659,shape_difference4,1,,TRUE,,intensity,0.1,0.05,0.7,0.3,0.82,20,400,1E-11,3.5,0.01,0.5,0.1,,,,,,,,,,,,,,,,,,,,,,,,,,,,,,,,,,,,,,,,,,,,,,,,,,,,,,,,,,,,,,,,,,,,,,,,,,,,,,,,,
,,,,,639188,001,2025-03-17_13h17.01.639,Utility_discrimination_2024_2cat,2024.2.4,MacIntel,35.71428571,,,,,,,,1,"[0.5,0.5]","[0.924,0.383]",s,"[0.3936098617536391,0.2433303192176568]","[0.6063901382463609,0.7566696807823432]",348.971,355.802,0,d,0,5.3,,0.113799063,0.450376231,0.336577168,355.804,355.804,0,68,68,68,1,-0.27778104,-0.27778104,shape_difference3,1,,TRUE,,intensity,0.1,0.05,0.7,0.3,0.82,20,400,1E-11,3.5,0.01,0.5,0.1,,,,,,,,,,,,,,,,,,,,,,,,,,,,,,,,,,,,,,,,,,,,,,,,,,,,,,,,,,,,,,,,,,,,,,,,,,,,,,,,,
,,,,,639188,001,2025-03-17_13h17.01.639,Utility_discrimination_2024_2cat,2024.2.4,MacIntel,35.71428571,,,,,,,,2,"[0.5,0.5]","[0.707,0.707]",s,"[0.7498077395709347,0.6035458487615455]","[0.2501922604290653,0.39645415123845457]",355.805,359.617,0,d,0,2.291,,-0.480393507,-0.119811871,0.360581636,359.62,359.62,0,69,69,69,1,0.270354697,0.270354697,shape_difference1,1,,TRUE,,intensity,0.1,0.05,0.7,0.3,0.82,20,400,1E-11,3.5,0.01,0.5,0.1,,,,,,,,,,,,,,,,,,,,,,,,,,,,,,,,,,,,,,,,,,,,,,,,,,,,,,,,,,,,,,,,,,,,,,,,,,,,,,,,,
,,,,,639188,001,2025-03-17_13h17.01.639,Utility_discrimination_2024_2cat,2024.2.4,MacIntel,35.71428571,,,,,,,,1,"[0.5,0.5]","[0.924,0.383]",s,"[0.2869351122415209,0.2869351122415209]","[0.7130648877584791,0.7130648877584791]",359.62,367.752,1,d,1,6.607,,0.173264386,0.525428434,0.352164048,367.754,367.754,0,70,70,70,1,-0.301364763,-0.301364763,shape_difference2,1,,TRUE,,intensity,0.1,0.05,0.7,0.3,0.82,20,400,1E-11,3.5,0.01,0.5,0.1,,,,,,,,,,,,,,,,,,,,,,,,,,,,,,,,,,,,,,,,,,,,,,,,,,,,,,,,,,,,,,,,,,,,,,,,,,,,,,,,,
,,,,,639188,001,2025-03-17_13h17.01.639,Utility_discrimination_2024_2cat,2024.2.4,MacIntel,35.71428571,,,,,,,,4,"[0.5,0.5]","[0,1]",d,"[0.8007992839389431,0.6246819542733931]","[0.19920071606105688,0.37531804572660693]",367.755,370.268,1,d,1,0.983,,0.104015179,0.574106276,0.470091097,370.27,370.27,0,71,71,71,1,0.325540351,0.325540351,shape_difference1,1,,TRUE,,intensity,0.1,0.05,0.7,0.3,0.82,20,400,1E-11,3.5,0.01,0.5,0.1,,,,,,,,,,,,,,,,,,,,,,,,,,,,,,,,,,,,,,,,,,,,,,,,,,,,,,,,,,,,,,,,,,,,,,,,,,,,,,,,,
,,,,,639188,001,2025-03-17_13h17.01.639,Utility_discrimination_2024_2cat,2024.2.4,MacIntel,35.71428571,,,,,,,,0,"[0.5,0.5]","[1,0]",d,"[0.5,0.7789516043080624]","[0.5,0.22104839569193757]",370.271,373.468,1,d,1,1.667,,-0.251683706,0.086172024,0.33785573,373.47,373.47,0,72,72,72,1,0.278951604,0.278951604,shape_difference4,1,,TRUE,,intensity,0.1,0.05,0.7,0.3,0.82,20,400,1E-11,3.5,0.01,0.5,0.1,,,,,,,,,,,,,,,,,,,,,,,,,,,,,,,,,,,,,,,,,,,,,,,,,,,,,,,,,,,,,,,,,,,,,,,,,,,,,,,,,
,,,,,639188,001,2025-03-17_13h17.01.639,Utility_discrimination_2024_2cat,2024.2.4,MacIntel,35.71428571,,,,,,,,3,"[0.5,0.5]","[0.383,0.924]",d,"[0.3981654882568464,0.5]","[0.6018345117431536,0.5]",373.471,376.002,1,d,1,1,,-0.390813476,-0.039027334,0.351786142,376.004,376.004,0,73,73,73,1,-0.101834512,-0.101834512,shape_difference0,1,,TRUE,,intensity,0.1,0.05,0.7,0.3,0.82,20,400,1E-11,3.5,0.01,0.5,0.1,,,,,,,,,,,,,,,,,,,,,,,,,,,,,,,,,,,,,,,,,,,,,,,,,,,,,,,,,,,,,,,,,,,,,,,,,,,,,,,,,
,,,,,639188,001,2025-03-17_13h17.01.639,Utility_discrimination_2024_2cat,2024.2.4,MacIntel,35.71428571,,,,,,,,1,"[0.5,0.5]","[0.924,0.383]",d,"[0.41037224367997166,0.28377011269006214]","[0.5896277563200283,0.7162298873099379]",376.004,378.452,1,d,1,0.925,,0.157239465,0.491533055,0.33429359,378.454,378.454,0,74,74,74,1,-0.23401503,-0.23401503,shape_difference3,1,,TRUE,,intensity,0.1,0.05,0.7,0.3,0.82,20,400,1E-11,3.5,0.01,0.5,0.1,,,,,,,,,,,,,,,,,,,,,,,,,,,,,,,,,,,,,,,,,,,,,,,,,,,,,,,,,,,,,,,,,,,,,,,,,,,,,,,,,
,,,,,639188,001,2025-03-17_13h17.01.639,Utility_discrimination_2024_2cat,2024.2.4,MacIntel,35.71428571,,,,,,,,0,"[0.5,0.5]","[1,0]",d,"[0.7827402361690621,0.6171964398839294]","[0.21725976383093798,0.38280356011607064]",378.455,380.985,1,d,1,1,,-0.261621018,0.060928906,0.322549925,380.989,380.989,0,75,75,75,1,0.305995927,0.305995927,shape_difference1,1,,TRUE,,intensity,0.1,0.05,0.7,0.3,0.82,20,400,1E-11,3.5,0.01,0.5,0.1,,,,,,,,,,,,,,,,,,,,,,,,,,,,,,,,,,,,,,,,,,,,,,,,,,,,,,,,,,,,,,,,,,,,,,,,,,,,,,,,,
,,,,,639188,001,2025-03-17_13h17.01.639,Utility_discrimination_2024_2cat,2024.2.4,MacIntel,35.71428571,,,,,,,,4,"[0.5,0.5]","[0,1]",d,"[0.3871315023064795,0.5]","[0.6128684976935205,0.5]",380.99,383.485,1,d,1,0.968,,0.100816433,0.516244568,0.415428135,383.488,383.488,0,76,76,76,1,-0.112868498,-0.112868498,shape_difference0,1,,TRUE,,intensity,0.1,0.05,0.7,0.3,0.82,20,400,1E-11,3.5,0.01,0.5,0.1,,,,,,,,,,,,,,,,,,,,,,,,,,,,,,,,,,,,,,,,,,,,,,,,,,,,,,,,,,,,,,,,,,,,,,,,,,,,,,,,,
,,,,,639188,001,2025-03-17_13h17.01.639,Utility_discrimination_2024_2cat,2024.2.4,MacIntel,35.71428571,,,,,,,,2,"[0.5,0.5]","[0.707,0.707]",d,"[0.5,0.756508605210206]","[0.5,0.24349139478979398]",383.489,386.485,1,s,1,1.469,,-0.48720181,-0.141275951,0.345925859,386.487,386.487,0,77,77,77,1,0.256508605,0.256508605,shape_difference4,1,,TRUE,,intensity,0.1,0.05,0.7,0.3,0.82,20,400,1E-11,3.5,0.01,0.5,0.1,,,,,,,,,,,,,,,,,,,,,,,,,,,,,,,,,,,,,,,,,,,,,,,,,,,,,,,,,,,,,,,,,,,,,,,,,,,,,,,,,
,,,,,639188,001,2025-03-17_13h17.01.639,Utility_discrimination_2024_2cat,2024.2.4,MacIntel,35.71428571,,,,,,,,3,"[0.5,0.5]","[0.383,0.924]",s,"[0.27698223182491855,0.27698223182491855]","[0.7230177681750815,0.7230177681750815]",386.488,388.968,0,d,0,0.949,,-0.393617527,-0.080392921,0.313224606,388.97,388.97,0,78,78,78,1,-0.315442388,-0.315442388,shape_difference2,1,,TRUE,,intensity,0.1,0.05,0.7,0.3,0.82,20,400,1E-11,3.5,0.01,0.5,0.1,,,,,,,,,,,,,,,,,,,,,,,,,,,,,,,,,,,,,,,,,,,,,,,,,,,,,,,,,,,,,,,,,,,,,,,,,,,,,,,,,
,,,,,639188,001,2025-03-17_13h17.01.639,Utility_discrimination_2024_2cat,2024.2.4,MacIntel,35.71428571,,,,,,,,3,"[0.5,0.5]","[0.383,0.924]",s,"[0.40555504821818744,0.27214847141933474]","[0.5944449517818126,0.7278515285806653]",388.972,391.468,1,d,1,0.97,,-0.395834792,-0.108208494,0.287626299,391.471,391.471,0,79,79,79,1,-0.246592563,-0.246592563,shape_difference3,1,,TRUE,,intensity,0.1,0.05,0.7,0.3,0.82,20,400,1E-11,3.5,0.01,0.5,0.1,,,,,,,,,,,,,,,,,,,,,,,,,,,,,,,,,,,,,,,,,,,,,,,,,,,,,,,,,,,,,,,,,,,,,,,,,,,,,,,,,
,,,,,639188,001,2025-03-17_13h17.01.639,Utility_discrimination_2024_2cat,2024.2.4,MacIntel,35.71428571,,,,,,,,0,"[0.5,0.5]","[1,0]",d,"[0.40113460895386005,0.2614840174239339]","[0.5988653910461399,0.7385159825760661]",391.472,394.402,1,s,1,1.401,,-0.269051399,0.028504758,0.297556157,394.404,394.404,0,80,80,80,1,-0.25813418,-0.25813418,shape_difference3,1,,TRUE,,intensity,0.1,0.05,0.7,0.3,0.82,20,400,1E-11,3.5,0.01,0.5,0.1,,,,,,,,,,,,,,,,,,,,,,,,,,,,,,,,,,,,,,,,,,,,,,,,,,,,,,,,,,,,,,,,,,,,,,,,,,,,,,,,,
,,,,,639188,001,2025-03-17_13h17.01.639,Utility_discrimination_2024_2cat,2024.2.4,MacIntel,35.71428571,,,,,,,,4,"[0.5,0.5]","[0,1]",s,"[0.3781049567431808,0.5]","[0.6218950432568192,0.5]",394.405,396.852,1,d,1,0.922,,0.088084025,0.468625575,0.38054155,396.854,396.854,0,81,81,81,1,-0.121895043,-0.121895043,shape_difference0,1,,TRUE,,intensity,0.1,0.05,0.7,0.3,0.82,20,400,1E-11,3.5,0.01,0.5,0.1,,,,,,,,,,,,,,,,,,,,,,,,,,,,,,,,,,,,,,,,,,,,,,,,,,,,,,,,,,,,,,,,,,,,,,,,,,,,,,,,,
,,,,,639188,001,2025-03-17_13h17.01.639,Utility_discrimination_2024_2cat,2024.2.4,MacIntel,35.71428571,,,,,,,,2,"[0.5,0.5]","[0.707,0.707]",d,"[0.5,0.7370091747917996]","[0.5,0.2629908252082004]",396.855,399.735,1,d,1,1.361,,-0.399201531,-0.097881237,0.301320295,399.738,399.738,0,82,82,82,1,0.237009175,0.237009175,shape_difference4,1,,TRUE,,intensity,0.1,0.05,0.7,0.3,0.82,20,400,1E-11,3.5,0.01,0.5,0.1,,,,,,,,,,,,,,,,,,,,,,,,,,,,,,,,,,,,,,,,,,,,,,,,,,,,,,,,,,,,,,,,,,,,,,,,,,,,,,,,,
,,,,,639188,001,2025-03-17_13h17.01.639,Utility_discrimination_2024_2cat,2024.2.4,MacIntel,35.71428571,,,,,,,,1,"[0.5,0.5]","[0.924,0.383]",d,"[0.3162201335600956,0.3162201335600956]","[0.6837798664399044,0.6837798664399044]",399.739,406.836,0,d,0,5.576,,0.145623962,0.470826352,0.32520239,406.837,406.837,0,83,83,83,1,-0.259943234,-0.259943234,shape_difference2,1,,TRUE,,intensity,0.1,0.05,0.7,0.3,0.82,20,400,1E-11,3.5,0.01,0.5,0.1,,,,,,,,,,,,,,,,,,,,,,,,,,,,,,,,,,,,,,,,,,,,,,,,,,,,,,,,,,,,,,,,,,,,,,,,,,,,,,,,,
,,,,,639188,001,2025-03-17_13h17.01.639,Utility_discrimination_2024_2cat,2024.2.4,MacIntel,35.71428571,,,,,,,,1,"[0.5,0.5]","[0.924,0.383]",s,"[0.7695815921434062,0.6117421534533816]","[0.2304184078565939,0.3882578465466185]",406.838,409.318,1,s,1,0.957,,0.137031275,0.44440474,0.307373464,409.321,409.321,0,84,84,84,1,0.29175497,0.29175497,shape_difference1,1,,TRUE,,intensity,0.1,0.05,0.7,0.3,0.82,20,400,1E-11,3.5,0.01,0.5,0.1,,,,,,,,,,,,,,,,,,,,,,,,,,,,,,,,,,,,,,,,,,,,,,,,,,,,,,,,,,,,,,,,,,,,,,,,,,,,,,,,,
,,,,,639188,001,2025-03-17_13h17.01.639,Utility_discrimination_2024_2cat,2024.2.4,MacIntel,35.71428571,,,,,,,,3,"[0.5,0.5]","[0.383,0.924]",s,"[0.760678774106697,0.6080519161069967]","[0.23932122589330296,0.3919480838930033]",409.321,411.885,1,s,1,1.034,,-0.398714571,-0.120188359,0.278526212,411.887,411.887,0,85,85,85,1,0.282119885,0.282119885,shape_difference1,1,,TRUE,,intensity,0.1,0.05,0.7,0.3,0.82,20,400,1E-11,3.5,0.01,0.5,0.1,,,,,,,,,,,,,,,,,,,,,,,,,,,,,,,,,,,,,,,,,,,,,,,,,,,,,,,,,,,,,,,,,,,,,,,,,,,,,,,,,
,,,,,639188,001,2025-03-17_13h17.01.639,Utility_discrimination_2024_2cat,2024.2.4,MacIntel,35.71428571,,,,,,,,0,"[0.5,0.5]","[1,0]",s,"[0.39641475001813703,0.2500972036991087]","[0.6035852499818629,0.7499027963008913]",411.888,414.518,1,s,1,1.099,,-0.274723612,-0.002468202,0.27225541,414.52,414.52,0,86,86,86,1,-0.270457572,-0.270457572,shape_difference3,1,,TRUE,,intensity,0.1,0.05,0.7,0.3,0.82,20,400,1E-11,3.5,0.01,0.5,0.1,,,,,,,,,,,,,,,,,,,,,,,,,,,,,,,,,,,,,,,,,,,,,,,,,,,,,,,,,,,,,,,,,,,,,,,,,,,,,,,,,
,,,,,639188,001,2025-03-17_13h17.01.639,Utility_discrimination_2024_2cat,2024.2.4,MacIntel,35.71428571,,,,,,,,2,"[0.5,0.5]","[0.707,0.707]",s,"[0.37049865280151834,0.5]","[0.6295013471984816,0.5]",414.521,417.035,1,d,1,0.983,,-0.38417772,-0.032994554,0.351183167,417.037,417.037,0,87,87,87,1,-0.129501347,-0.129501347,shape_difference0,1,,TRUE,,intensity,0.1,0.05,0.7,0.3,0.82,20,400,1E-11,3.5,0.01,0.5,0.1,,,,,,,,,,,,,,,,,,,,,,,,,,,,,,,,,,,,,,,,,,,,,,,,,,,,,,,,,,,,,,,,,,,,,,,,,,,,,,,,,
,,,,,639188,001,2025-03-17_13h17.01.639,Utility_discrimination_2024_2cat,2024.2.4,MacIntel,35.71428571,,,,,,,,4,"[0.5,0.5]","[0,1]",d,"[0.33874537420401374,0.33874537420401374]","[0.6612546257959863,0.6612546257959863]",417.038,420.002,1,s,1,1.438,,0.067934314,0.427455585,0.359521271,420.004,420.004,0,88,88,88,1,-0.228082922,-0.228082922,shape_difference2,1,,TRUE,,intensity,0.1,0.05,0.7,0.3,0.82,20,400,1E-11,3.5,0.01,0.5,0.1,,,,,,,,,,,,,,,,,,,,,,,,,,,,,,,,,,,,,,,,,,,,,,,,,,,,,,,,,,,,,,,,,,,,,,,,,,,,,,,,,
,,,,,639188,001,2025-03-17_13h17.01.639,Utility_discrimination_2024_2cat,2024.2.4,MacIntel,35.71428571,,,,,,,,1,"[0.5,0.5]","[0.924,0.383]",s,"[0.5,0.7174727965148506]","[0.5,0.28252720348514937]",420.005,422.602,1,s,1,1.067,,0.13054939,0.409544513,0.278995122,422.604,422.604,0,89,89,89,1,0.217472797,0.217472797,shape_difference4,1,,TRUE,,intensity,0.1,0.05,0.7,0.3,0.82,20,400,1E-11,3.5,0.01,0.5,0.1,,,,,,,,,,,,,,,,,,,,,,,,,,,,,,,,,,,,,,,,,,,,,,,,,,,,,,,,,,,,,,,,,,,,,,,,,,,,,,,,,
,,,,,639188,001,2025-03-17_13h17.01.639,Utility_discrimination_2024_2cat,2024.2.4,MacIntel,35.71428571,,,,,,,,3,"[0.5,0.5]","[0.383,0.924]",s,"[0.7532885648914076,0.6049886583911355]","[0.2467114351085924,0.3950113416088646]",422.605,427.352,1,s,1,3.217,,-0.412373326,-0.13493928,0.277434045,427.353,427.353,0,90,90,90,1,0.274121823,0.274121823,shape_difference1,1,,TRUE,,intensity,0.1,0.05,0.7,0.3,0.82,20,400,1E-11,3.5,0.01,0.5,0.1,,,,,,,,,,,,,,,,,,,,,,,,,,,,,,,,,,,,,,,,,,,,,,,,,,,,,,,,,,,,,,,,,,,,,,,,,,,,,,,,,
,,,,,639188,001,2025-03-17_13h17.01.639,Utility_discrimination_2024_2cat,2024.2.4,MacIntel,35.71428571,,,,,,,,2,"[0.5,0.5]","[0.707,0.707]",s,"[0.3911651718208856,0.23743242496735856]","[0.6088348281791144,0.7625675750326415]",427.354,430.185,1,d,1,1.301,,-0.387214797,-0.070860477,0.31635432,430.187,430.187,0,91,91,91,1,-0.284164042,-0.284164042,shape_difference3,1,,TRUE,,intensity,0.1,0.05,0.7,0.3,0.82,20,400,1E-11,3.5,0.01,0.5,0.1,,,,,,,,,,,,,,,,,,,,,,,,,,,,,,,,,,,,,,,,,,,,,,,,,,,,,,,,,,,,,,,,,,,,,,,,,,,,,,,,,
,,,,,639188,001,2025-03-17_13h17.01.639,Utility_discrimination_2024_2cat,2024.2.4,MacIntel,35.71428571,,,,,,,,0,"[0.5,0.5]","[1,0]",d,"[0.33049783880067196,0.33049783880067196]","[0.669502161199328,0.669502161199328]",430.188,432.802,1,d,1,1.089,,-0.279139324,-0.010764588,0.268374736,432.804,432.804,0,92,92,92,1,-0.23974846,-0.23974846,shape_difference2,1,,TRUE,,intensity,0.1,0.05,0.7,0.3,0.82,20,400,1E-11,3.5,0.01,0.5,0.1,,,,,,,,,,,,,,,,,,,,,,,,,,,,,,,,,,,,,,,,,,,,,,,,,,,,,,,,,,,,,,,,,,,,,,,,,,,,,,,,,
,,,,,639188,001,2025-03-17_13h17.01.639,Utility_discrimination_2024_2cat,2024.2.4,MacIntel,35.71428571,,,,,,,,4,"[0.5,0.5]","[0,1]",d,"[0.3638744797640598,0.5]","[0.6361255202359402,0.5]",432.805,436.151,1,s,1,1.825,,0.053578299,0.390281227,0.336702928,436.153,436.153,0,93,93,93,1,-0.13612552,-0.13612552,shape_difference0,1,,TRUE,,intensity,0.1,0.05,0.7,0.3,0.82,20,400,1E-11,3.5,0.01,0.5,0.1,,,,,,,,,,,,,,,,,,,,,,,,,,,,,,,,,,,,,,,,,,,,,,,,,,,,,,,,,,,,,,,,,,,,,,,,,,,,,,,,,
,,,,,639188,001,2025-03-17_13h17.01.639,Utility_discrimination_2024_2cat,2024.2.4,MacIntel,35.71428571,,,,,,,,4,"[0.5,0.5]","[0,1]",s,"[0.5,0.6977998080395238]","[0.5,0.30220019196047615]",436.154,438.952,1,d,1,1.268,,0.043125536,0.366679561,0.323554024,438.954,438.954,0,94,94,94,1,0.197799808,0.197799808,shape_difference4,1,,TRUE,,intensity,0.1,0.05,0.7,0.3,0.82,20,400,1E-11,3.5,0.01,0.5,0.1,,,,,,,,,,,,,,,,,,,,,,,,,,,,,,,,,,,,,,,,,,,,,,,,,,,,,,,,,,,,,,,,,,,,,,,,,,,,,,,,,
,,,,,639188,001,2025-03-17_13h17.01.639,Utility_discrimination_2024_2cat,2024.2.4,MacIntel,35.71428571,,,,,,,,2,"[0.5,0.5]","[0.707,0.707]",d,"[0.5,0.687009774293162]","[0.5,0.312990225706838]",438.955,441.736,0,d,0,1.263,,-0.389543421,-0.104922196,0.284621225,441.737,441.737,0,95,95,95,1,0.187009774,0.187009774,shape_difference4,1,,TRUE,,intensity,0.1,0.05,0.7,0.3,0.82,20,400,1E-11,3.5,0.01,0.5,0.1,,,,,,,,,,,,,,,,,,,,,,,,,,,,,,,,,,,,,,,,,,,,,,,,,,,,,,,,,,,,,,,,,,,,,,,,,,,,,,,,,
,,,,,639188,001,2025-03-17_13h17.01.639,Utility_discrimination_2024_2cat,2024.2.4,MacIntel,35.71428571,,,,,,,,1,"[0.5,0.5]","[0.924,0.383]",s,"[0.3231070463122548,0.3231070463122548]","[0.6768929536877453,0.6768929536877453]",441.738,444.235,1,d,1,0.971,,0.125568901,0.393690833,0.268121932,444.237,444.237,0,96,96,96,1,-0.250202198,-0.250202198,shape_difference2,1,,TRUE,,intensity,0.1,0.05,0.7,0.3,0.82,20,400,1E-11,3.5,0.01,0.5,0.1,,,,,,,,,,,,,,,,,,,,,,,,,,,,,,,,,,,,,,,,,,,,,,,,,,,,,,,,,,,,,,,,,,,,,,,,,,,,,,,,,
,,,,,639188,001,2025-03-17_13h17.01.639,Utility_discrimination_2024_2cat,2024.2.4,MacIntel,35.71428571,,,,,,,,0,"[0.5,0.5]","[1,0]",d,"[0.7469677219410311,0.6023686553067261]","[0.2530322780589689,0.3976313446932739]",444.238,447.485,1,d,1,1.718,,-0.282640585,-0.01975168,0.262888905,447.488,447.488,0,97,97,97,1,0.267281084,0.267281084,shape_difference1,1,,TRUE,,intensity,0.1,0.05,0.7,0.3,0.82,20,400,1E-11,3.5,0.01,0.5,0.1,,,,,,,,,,,,,,,,,,,,,,,,,,,,,,,,,,,,,,,,,,,,,,,,,,,,,,,,,,,,,,,,,,,,,,,,,,,,,,,,,
,,,,,639188,001,2025-03-17_13h17.01.639,Utility_discrimination_2024_2cat,2024.2.4,MacIntel,35.71428571,,,,,,,,3,"[0.5,0.5]","[0.383,0.924]",d,"[0.35789651633508296,0.5]","[0.6421034836649171,0.5]",447.488,450.369,1,d,1,1.358,,-0.430739694,-0.153688805,0.277050889,450.37,450.37,0,98,98,98,1,-0.142103484,-0.142103484,shape_difference0,1,,TRUE,,intensity,0.1,0.05,0.7,0.3,0.82,20,400,1E-11,3.5,0.01,0.5,0.1,,,,,,,,,,,,,,,,,,,,,,,,,,,,,,,,,,,,,,,,,,,,,,,,,,,,,,,,,,,,,,,,,,,,,,,,,,,,,,,,,
,,,,,639188,001,2025-03-17_13h17.01.639,Utility_discrimination_2024_2cat,2024.2.4,MacIntel,35.71428571,,,,,,,,3,"[0.5,0.5]","[0.383,0.924]",d,"[0.3851607490186373,0.22294655899013271]","[0.6148392509813627,0.7770534410098673]",450.371,453.168,1,d,1,1.275,,-0.444459625,-0.178166772,0.266292853,453.17,453.17,0,99,99,99,1,-0.299841386,-0.299841386,shape_difference3,1,,TRUE,,intensity,0.1,0.05,0.7,0.3,0.82,20,400,1E-11,3.5,0.01,0.5,0.1,,,,,,,,,,,,,,,,,,,,,,,,,,,,,,,,,,,,,,,,,,,,,,,,,,,,,,,,,,,,,,,,,,,,,,,,,,,,,,,,,
,,,,,639188,001,2025-03-17_13h17.01.639,Utility_discrimination_2024_2cat,2024.2.4,MacIntel,35.71428571,,,,,,,,0,"[0.5,0.5]","[1,0]",d,"[0.38139089460293635,0.21385166217523027]","[0.6186091053970636,0.7861483378247698]",453.171,455.919,1,s,1,1.218,,-0.285464754,-0.029925547,0.255539208,455.92,455.92,0,100,100,100,1,-0.309684348,-0.309684348,shape_difference3,1,,TRUE,,intensity,0.1,0.05,0.7,0.3,0.82,20,400,1E-11,3.5,0.01,0.5,0.1,,,,,,,,,,,,,,,,,,,,,,,,,,,,,,,,,,,,,,,,,,,,,,,,,,,,,,,,,,,,,,,,,,,,,,,,,,,,,,,,,
,,,,,639188,001,2025-03-17_13h17.01.639,Utility_discrimination_2024_2cat,2024.2.4,MacIntel,35.71428571,,,,,,,,4,"[0.5,0.5]","[0,1]",s,"[0.3522985980804719,0.5]","[0.6477014019195281,0.5]",455.921,458.919,1,d,1,1.476,,0.105121393,0.43308814,0.327966747,458.921,458.921,0,101,101,101,1,-0.147701402,-0.147701402,shape_difference0,1,,TRUE,,intensity,0.1,0.05,0.7,0.3,0.82,20,400,1E-11,3.5,0.01,0.5,0.1,,,,,,,,,,,,,,,,,,,,,,,,,,,,,,,,,,,,,,,,,,,,,,,,,,,,,,,,,,,,,,,,,,,,,,,,,,,,,,,,,
,,,,,639188,001,2025-03-17_13h17.01.639,Utility_discrimination_2024_2cat,2024.2.4,MacIntel,35.71428571,,,,,,,,2,"[0.5,0.5]","[0.707,0.707]",d,"[0.5,0.7339251740263407]","[0.5,0.2660748259736593]",458.921,461.552,1,s,1,1.104,,-0.391945143,-0.11547278,0.276472364,461.554,461.554,0,102,102,102,1,0.233925174,0.233925174,shape_difference4,1,,TRUE,,intensity,0.1,0.05,0.7,0.3,0.82,20,400,1E-11,3.5,0.01,0.5,0.1,,,,,,,,,,,,,,,,,,,,,,,,,,,,,,,,,,,,,,,,,,,,,,,,,,,,,,,,,,,,,,,,,,,,,,,,,,,,,,,,,
,,,,,639188,001,2025-03-17_13h17.01.639,Utility_discrimination_2024_2cat,2024.2.4,MacIntel,35.71428571,,,,,,,,1,"[0.5,0.5]","[0.924,0.383]",s,"[0.31575760374316264,0.31575760374316264]","[0.6842423962568374,0.6842423962568374]",461.555,464.435,1,s,1,1.35,,0.121675953,0.385048804,0.263372851,464.437,464.437,0,103,103,103,1,-0.260597449,-0.260597449,shape_difference2,1,,TRUE,,intensity,0.1,0.05,0.7,0.3,0.82,20,400,1E-11,3.5,0.01,0.5,0.1,,,,,,,,,,,,,,,,,,,,,,,,,,,,,,,,,,,,,,,,,,,,,,,,,,,,,,,,,,,,,,,,,,,,,,,,,,,,,,,,,
,,,,,639188,001,2025-03-17_13h17.01.639,Utility_discrimination_2024_2cat,2024.2.4,MacIntel,35.71428571,,,,,,,,2,"[0.5,0.5]","[0.707,0.707]",s,"[0.7413793223918701,0.600052251597496]","[0.25862067760812985,0.399947748402504]",464.437,467.285,1,s,1,1.317,,-0.394026449,-0.128137839,0.26588861,467.288,467.288,0,104,104,104,1,0.261233033,0.261233033,shape_difference1,1,,TRUE,,intensity,0.1,0.05,0.7,0.3,0.82,20,400,1E-11,3.5,0.01,0.5,0.1,,,,,,,,,,,,,,,,,,,,,,,,,,,,,,,,,,,,,,,,,,,,,,,,,,,,,,,,,,,,,,,,,,,,,,,,,,,,,,,,,
,,,,,639188,001,2025-03-17_13h17.01.639,Utility_discrimination_2024_2cat,2024.2.4,MacIntel,35.71428571,,,,,,,,1,"[0.5,0.5]","[0.924,0.383]",s,"[0.30781580653755475,0.30781580653755475]","[0.6921841934624453,0.6921841934624453]",467.288,469.919,1,s,1,1.1,,0.118584825,0.375472684,0.256887859,469.921,469.921,0,105,105,105,1,-0.271830542,-0.271830542,shape_difference2,1,,TRUE,,intensity,0.1,0.05,0.7,0.3,0.82,20,400,1E-11,3.5,0.01,0.5,0.1,,,,,,,,,,,,,,,,,,,,,,,,,,,,,,,,,,,,,,,,,,,,,,,,,,,,,,,,,,,,,,,,,,,,,,,,,,,,,,,,,
,,,,,639188,001,2025-03-17_13h17.01.639,Utility_discrimination_2024_2cat,2024.2.4,MacIntel,35.71428571,,,,,,,,4,"[0.5,0.5]","[0,1]",s,"[0.7362600765836187,0.5979303131293571]","[0.2637399234163813,0.40206968687064293]",469.922,472.934,1,d,1,1.484,,0.102946924,0.394826786,0.291879862,472.936,472.936,0,106,106,106,1,0.255692724,0.255692724,shape_difference1,1,,TRUE,,intensity,0.1,0.05,0.7,0.3,0.82,20,400,1E-11,3.5,0.01,0.5,0.1,,,,,,,,,,,,,,,,,,,,,,,,,,,,,,,,,,,,,,,,,,,,,,,,,,,,,,,,,,,,,,,,,,,,,,,,,,,,,,,,,
,,,,,639188,001,2025-03-17_13h17.01.639,Utility_discrimination_2024_2cat,2024.2.4,MacIntel,35.71428571,,,,,,,,0,"[0.5,0.5]","[1,0]",d,"[0.5,0.7176746337281458]","[0.5,0.28232536627185423]",472.937,476.219,1,s,1,1.754,,-0.287779462,-0.04188804,0.245891422,476.221,476.221,0,107,107,107,1,0.217674634,0.217674634,shape_difference4,1,,TRUE,,intensity,0.1,0.05,0.7,0.3,0.82,20,400,1E-11,3.5,0.01,0.5,0.1,,,,,,,,,,,,,,,,,,,,,,,,,,,,,,,,,,,,,,,,,,,,,,,,,,,,,,,,,,,,,,,,,,,,,,,,,,,,,,,,,
,,,,,639188,001,2025-03-17_13h17.01.639,Utility_discrimination_2024_2cat,2024.2.4,MacIntel,35.71428571,,,,,,,,3,"[0.5,0.5]","[0.383,0.924]",s,"[0.3468615275356356,0.5]","[0.6531384724643644,0.5]",476.222,478.685,1,d,1,0.937,,-0.454870354,-0.201608339,0.253262015,478.687,478.687,0,108,108,108,1,-0.153138472,-0.153138472,shape_difference0,1,,TRUE,,intensity,0.1,0.05,0.7,0.3,0.82,20,400,1E-11,3.5,0.01,0.5,0.1,,,,,,,,,,,,,,,,,,,,,,,,,,,,,,,,,,,,,,,,,,,,,,,,,,,,,,,,,,,,,,,,,,,,,,,,,,,,,,,,,
,,,,,639188,001,2025-03-17_13h17.01.639,Utility_discrimination_2024_2cat,2024.2.4,MacIntel,35.71428571,,,,,,,,4,"[0.5,0.5]","[0,1]",d,"[0.3782862918463754,0.2063617066998718]","[0.6217137081536246,0.7936382933001283]",478.688,481.285,1,s,1,1.067,,0.10093009,0.375820941,0.274890851,481.288,481.288,0,109,109,109,1,-0.317790361,-0.317790361,shape_difference3,1,,TRUE,,intensity,0.1,0.05,0.7,0.3,0.82,20,400,1E-11,3.5,0.01,0.5,0.1,,,,,,,,,,,,,,,,,,,,,,,,,,,,,,,,,,,,,,,,,,,,,,,,,,,,,,,,,,,,,,,,,,,,,,,,,,,,,,,,,
,,,,,639188,001,2025-03-17_13h17.01.639,Utility_discrimination_2024_2cat,2024.2.4,MacIntel,35.71428571,,,,,,,,2,"[0.5,0.5]","[0.707,0.707]",s,"[0.5,0.6998815862513694]","[0.5,0.3001184137486305]",481.289,483.703,1,d,1,0.886,,-0.395899002,-0.143827042,0.25207196,483.704,483.704,0,110,110,110,1,0.199881586,0.199881586,shape_difference4,1,,TRUE,,intensity,0.1,0.05,0.7,0.3,0.82,20,400,1E-11,3.5,0.01,0.5,0.1,,,,,,,,,,,,,,,,,,,,,,,,,,,,,,,,,,,,,,,,,,,,,,,,,,,,,,,,,,,,,,,,,,,,,,,,,,,,,,,,,
,,,,,639188,001,2025-03-17_13h17.01.639,Utility_discrimination_2024_2cat,2024.2.4,MacIntel,35.71428571,,,,,,,,3,"[0.5,0.5]","[0.383,0.924]",d,"[0.29898380325683305,0.29898380325683305]","[0.701016196743167,0.701016196743167]",483.705,486.535,1,d,1,1.31,,-0.462890881,-0.207102489,0.255788392,486.537,486.537,0,111,111,111,1,-0.284322768,-0.284322768,shape_difference2,1,,TRUE,,intensity,0.1,0.05,0.7,0.3,0.82,20,400,1E-11,3.5,0.01,0.5,0.1,,,,,,,,,,,,,,,,,,,,,,,,,,,,,,,,,,,,,,,,,,,,,,,,,,,,,,,,,,,,,,,,,,,,,,,,,,,,,,,,,
,,,,,639188,001,2025-03-17_13h17.01.639,Utility_discrimination_2024_2cat,2024.2.4,MacIntel,35.71428571,,,,,,,,1,"[0.5,0.5]","[0.924,0.383]",d,"[0.37566250914895893,0.20003174530975998]","[0.6243374908510411,0.79996825469024]",486.537,489.119,1,d,1,1.046,,0.116094951,0.364432753,0.248337801,489.121,489.121,0,112,112,112,1,-0.324640968,-0.324640968,shape_difference3,1,,TRUE,,intensity,0.1,0.05,0.7,0.3,0.82,20,400,1E-11,3.5,0.01,0.5,0.1,,,,,,,,,,,,,,,,,,,,,,,,,,,,,,,,,,,,,,,,,,,,,,,,,,,,,,,,,,,,,,,,,,,,,,,,,,,,,,,,,
,,,,,639188,001,2025-03-17_13h17.01.639,Utility_discrimination_2024_2cat,2024.2.4,MacIntel,35.71428571,,,,,,,,0,"[0.5,0.5]","[1,0]",d,"[0.7313973035430367,0.5959146831785531]","[0.26860269645696333,0.40408531682144694]",489.122,491.686,1,s,1,1.035,,-0.290484721,-0.054469919,0.236014803,491.689,491.689,0,113,113,113,1,0.250429982,0.250429982,shape_difference1,1,,TRUE,,intensity,0.1,0.05,0.7,0.3,0.82,20,400,1E-11,3.5,0.01,0.5,0.1,,,,,,,,,,,,,,,,,,,,,,,,,,,,,,,,,,,,,,,,,,,,,,,,,,,,,,,,,,,,,,,,,,,,,,,,,,,,,,,,,
,,,,,639188,001,2025-03-17_13h17.01.639,Utility_discrimination_2024_2cat,2024.2.4,MacIntel,35.71428571,,,,,,,,2,"[0.5,0.5]","[0.707,0.707]",s,"[0.340630894452164,0.5]","[0.659369105547836,0.5]",491.69,494.186,1,s,1,0.97,,-0.397650586,-0.163790454,0.233860132,494.188,494.188,0,114,114,114,1,-0.159369106,-0.159369106,shape_difference0,1,,TRUE,,intensity,0.1,0.05,0.7,0.3,0.82,20,400,1E-11,3.5,0.01,0.5,0.1,,,,,,,,,,,,,,,,,,,,,,,,,,,,,,,,,,,,,,,,,,,,,,,,,,,,,,,,,,,,,,,,,,,,,,,,,,,,,,,,,
,,,,,639188,001,2025-03-17_13h17.01.639,Utility_discrimination_2024_2cat,2024.2.4,MacIntel,35.71428571,,,,,,,,3,"[0.5,0.5]","[0.383,0.924]",s,"[0.2889238047108935,0.2889238047108935]","[0.7110761952891065,0.7110761952891065]",494.189,496.669,1,d,1,0.95,,-0.469160763,-0.212975438,0.256185325,496.671,496.671,0,115,115,115,1,-0.298551903,-0.298551903,shape_difference2,1,,TRUE,,intensity,0.1,0.05,0.7,0.3,0.82,20,400,1E-11,3.5,0.01,0.5,0.1,,,,,,,,,,,,,,,,,,,,,,,,,,,,,,,,,,,,,,,,,,,,,,,,,,,,,,,,,,,,,,,,,,,,,,,,,,,,,,,,,
,,,,,639188,001,2025-03-17_13h17.01.639,Utility_discrimination_2024_2cat,2024.2.4,MacIntel,35.71428571,,,,,,,,1,"[0.5,0.5]","[0.924,0.383]",d,"[0.37339325183328775,0.19455708797378046]","[0.6266067481667122,0.8054429120262195]",496.673,499.202,1,s,1,0.999,,0.114063186,0.35127277,0.237209584,499.204,499.204,0,116,116,116,1,-0.330565922,-0.330565922,shape_difference3,1,,TRUE,,intensity,0.1,0.05,0.7,0.3,0.82,20,400,1E-11,3.5,0.01,0.5,0.1,,,,,,,,,,,,,,,,,,,,,,,,,,,,,,,,,,,,,,,,,,,,,,,,,,,,,,,,,,,,,,,,,,,,,,,,,,,,,,,,,
,,,,,639188,001,2025-03-17_13h17.01.639,Utility_discrimination_2024_2cat,2024.2.4,MacIntel,35.71428571,,,,,,,,4,"[0.5,0.5]","[0,1]",s,"[0.7266124421665261,0.5939313477811466]","[0.27338755783347396,0.4060686522188534]",499.206,501.852,1,d,1,1.12,,0.089180904,0.352259355,0.26307845,501.854,501.854,0,117,117,117,1,0.245251561,0.245251561,shape_difference1,1,,TRUE,,intensity,0.1,0.05,0.7,0.3,0.82,20,400,1E-11,3.5,0.01,0.5,0.1,,,,,,,,,,,,,,,,,,,,,,,,,,,,,,,,,,,,,,,,,,,,,,,,,,,,,,,,,,,,,,,,,,,,,,,,,,,,,,,,,
,,,,,639188,001,2025-03-17_13h17.01.639,Utility_discrimination_2024_2cat,2024.2.4,MacIntel,35.71428571,,,,,,,,0,"[0.5,0.5]","[1,0]",d,"[0.5,0.6904815533290147]","[0.5,0.30951844667098527]",501.855,504.319,1,d,1,0.941,,-0.292912571,-0.070385382,0.222527189,504.321,504.321,0,118,118,118,1,0.190481553,0.190481553,shape_difference4,1,,TRUE,,intensity,0.1,0.05,0.7,0.3,0.82,20,400,1E-11,3.5,0.01,0.5,0.1,,,,,,,,,,,,,,,,,,,,,,,,,,,,,,,,,,,,,,,,,,,,,,,,,,,,,,,,,,,,,,,,,,,,,,,,,,,,,,,,,
,,,,,639188,001,2025-03-17_13h17.01.639,Utility_discrimination_2024_2cat,2024.2.4,MacIntel,35.71428571,,,,,,,,1,"[0.5,0.5]","[0.924,0.383]",d,"[0.33360719801423355,0.5]","[0.6663928019857664,0.5]",504.322,506.686,1,d,1,0.834,,0.111949499,0.337290606,0.225341108,506.688,506.688,0,119,119,119,1,-0.166392802,-0.166392802,shape_difference0,1,,TRUE,,intensity,0.1,0.05,0.7,0.3,0.82,20,400,1E-11,3.5,0.01,0.5,0.1,,,,,,,,,,,,,,,,,,,,,,,,,,,,,,,,,,,,,,,,,,,,,,,,,,,,,,,,,,,,,,,,,,,,,,,,,,,,,,,,,
,,,,,639188,001,2025-03-17_13h17.01.639,Utility_discrimination_2024_2cat,2024.2.4,MacIntel,35.71428571,,,,,,,,4,"[0.5,0.5]","[0,1]",d,"[0.7210651008491946,0.5916319627978804]","[0.2789348991508053,0.40836803720211956]",506.689,509.185,1,s,1,0.974,,0.072573056,0.322086181,0.249513125,509.188,509.188,0,120,120,120,1,0.239247945,0.239247945,shape_difference1,1,,TRUE,,intensity,0.1,0.05,0.7,0.3,0.82,20,400,1E-11,3.5,0.01,0.5,0.1,,,,,,,,,,,,,,,,,,,,,,,,,,,,,,,,,,,,,,,,,,,,,,,,,,,,,,,,,,,,,,,,,,,,,,,,,,,,,,,,,
,,,,,639188,001,2025-03-17_13h17.01.639,Utility_discrimination_2024_2cat,2024.2.4,MacIntel,35.71428571,,,,,,,,2,"[0.5,0.5]","[0.707,0.707]",s,"[0.5,0.6829482713333732]","[0.5,0.3170517286666268]",509.189,511.652,1,d,1,0.937,,-0.39935276,-0.189762235,0.209590526,511.654,511.654,0,121,121,121,1,0.182948271,0.182948271,shape_difference4,1,,TRUE,,intensity,0.1,0.05,0.7,0.3,0.82,20,400,1E-11,3.5,0.01,0.5,0.1,,,,,,,,,,,,,,,,,,,,,,,,,,,,,,,,,,,,,,,,,,,,,,,,,,,,,,,,,,,,,,,,,,,,,,,,,,,,,,,,,
,,,,,639188,001,2025-03-17_13h17.01.639,Utility_discrimination_2024_2cat,2024.2.4,MacIntel,35.71428571,,,,,,,,0,"[0.5,0.5]","[1,0]",d,"[0.282321009679925,0.282321009679925]","[0.717678990320075,0.717678990320075]",511.654,514.152,1,s,1,0.974,,-0.295167212,-0.090858396,0.204308816,514.154,514.154,0,122,122,122,1,-0.307891075,-0.307891075,shape_difference2,1,,TRUE,,intensity,0.1,0.05,0.7,0.3,0.82,20,400,1E-11,3.5,0.01,0.5,0.1,,,,,,,,,,,,,,,,,,,,,,,,,,,,,,,,,,,,,,,,,,,,,,,,,,,,,,,,,,,,,,,,,,,,,,,,,,,,,,,,,
,,,,,639188,001,2025-03-17_13h17.01.639,Utility_discrimination_2024_2cat,2024.2.4,MacIntel,35.71428571,,,,,,,,3,"[0.5,0.5]","[0.383,0.924]",s,"[0.3255228549333026,0.5]","[0.6744771450666974,0.5]",514.154,516.635,1,s,1,0.958,,-0.474130732,-0.219495683,0.254635049,516.638,516.638,0,123,123,123,1,-0.174477145,-0.174477145,shape_difference0,1,,TRUE,,intensity,0.1,0.05,0.7,0.3,0.82,20,400,1E-11,3.5,0.01,0.5,0.1,,,,,,,,,,,,,,,,,,,,,,,,,,,,,,,,,,,,,,,,,,,,,,,,,,,,,,,,,,,,,,,,,,,,,,,,,,,,,,,,,
,,,,,639188,001,2025-03-17_13h17.01.639,Utility_discrimination_2024_2cat,2024.2.4,MacIntel,35.71428571,,,,,,,,3,"[0.5,0.5]","[0.383,0.924]",s,"[0.3713783226371292,0.18969600552665117]","[0.6286216773628708,0.8103039944733488]",516.639,519.169,1,s,1,1,,-0.478122492,-0.226984699,0.251137792,519.171,519.171,0,124,124,124,1,-0.335826834,-0.335826834,shape_difference3,1,,TRUE,,intensity,0.1,0.05,0.7,0.3,0.82,20,400,1E-11,3.5,0.01,0.5,0.1,,,,,,,,,,,,,,,,,,,,,,,,,,,,,,,,,,,,,,,,,,,,,,,,,,,,,,,,,,,,,,,,,,,,,,,,,,,,,,,,,
,,,,,639188,001,2025-03-17_13h17.01.639,Utility_discrimination_2024_2cat,2024.2.4,MacIntel,35.71428571,,,,,,,,2,"[0.5,0.5]","[0.707,0.707]",s,"[0.36953630433626783,0.18525207625773238]","[0.6304636956637322,0.8147479237422677]",519.171,521.584,1,d,1,0.884,,-0.411847575,-0.20312661,0.208720965,521.587,521.587,0,125,125,125,1,-0.340636281,-0.340636281,shape_difference3,1,,TRUE,,intensity,0.1,0.05,0.7,0.3,0.82,20,400,1E-11,3.5,0.01,0.5,0.1,,,,,,,,,,,,,,,,,,,,,,,,,,,,,,,,,,,,,,,,,,,,,,,,,,,,,,,,,,,,,,,,,,,,,,,,,,,,,,,,,
,,,,,639188,001,2025-03-17_13h17.01.639,Utility_discrimination_2024_2cat,2024.2.4,MacIntel,35.71428571,,,,,,,,0,"[0.5,0.5]","[1,0]",d,"[0.27723331346437863,0.27723331346437863]","[0.7227666865356214,0.7227666865356214]",521.587,524.168,1,s,1,1.054,,-0.297338245,-0.1016001,0.195738145,524.171,524.171,0,126,126,126,1,-0.315087251,-0.315087251,shape_difference2,1,,TRUE,,intensity,0.1,0.05,0.7,0.3,0.82,20,400,1E-11,3.5,0.01,0.5,0.1,,,,,,,,,,,,,,,,,,,,,,,,,,,,,,,,,,,,,,,,,,,,,,,,,,,,,,,,,,,,,,,,,,,,,,,,,,,,,,,,,
,,,,,639188,001,2025-03-17_13h17.01.639,Utility_discrimination_2024_2cat,2024.2.4,MacIntel,35.71428571,,,,,,,,1,"[0.5,0.5]","[0.924,0.383]",s,"[0.3160560948407123,0.5]","[0.6839439051592877,0.5]",524.172,526.752,1,d,1,1.059,,0.110166274,0.319610228,0.209443954,526.754,526.754,0,127,127,127,1,-0.183943905,-0.183943905,shape_difference0,1,,TRUE,,intensity,0.1,0.05,0.7,0.3,0.82,20,400,1E-11,3.5,0.01,0.5,0.1,,,,,,,,,,,,,,,,,,,,,,,,,,,,,,,,,,,,,,,,,,,,,,,,,,,,,,,,,,,,,,,,,,,,,,,,,,,,,,,,,
,,,,,639188,001,2025-03-17_13h17.01.639,Utility_discrimination_2024_2cat,2024.2.4,MacIntel,35.71428571,,,,,,,,4,"[0.5,0.5]","[0,1]",d,"[0.7148166808413479,0.5890419791799093]","[0.28518331915865214,0.4109580208200907]",526.754,529.319,1,s,1,1.033,,0.059884468,0.297241393,0.237356925,529.32,529.32,0,128,128,128,1,0.232485585,0.232485585,shape_difference1,1,,TRUE,,intensity,0.1,0.05,0.7,0.3,0.82,20,400,1E-11,3.5,0.01,0.5,0.1,,,,,,,,,,,,,,,,,,,,,,,,,,,,,,,,,,,,,,,,,,,,,,,,,,,,,,,,,,,,,,,,,,,,,,,,,,,,,,,,,
,,,,,639188,001,2025-03-17_13h17.01.639,Utility_discrimination_2024_2cat,2024.2.4,MacIntel,35.71428571,,,,,,,,2,"[0.5,0.5]","[0.707,0.707]",s,"[0.5,0.6767977145437086]","[0.5,0.32320228545629137]",529.321,531.818,1,s,1,0.969,,-0.42739798,-0.207892885,0.219505095,531.82,531.82,0,129,129,129,1,0.176797715,0.176797715,shape_difference4,1,,TRUE,,intensity,0.1,0.05,0.7,0.3,0.82,20,400,1E-11,3.5,0.01,0.5,0.1,,,,,,,,,,,,,,,,,,,,,,,,,,,,,,,,,,,,,,,,,,,,,,,,,,,,,,,,,,,,,,,,,,,,,,,,,,,,,,,,,
,,,,,639188,001,2025-03-17_13h17.01.639,Utility_discrimination_2024_2cat,2024.2.4,MacIntel,35.71428571,,,,,,,,0,"[0.5,0.5]","[1,0]",s,"[0.2730171479096771,0.2730171479096771]","[0.7269828520903229,0.7269828520903229]",531.821,534.202,1,d,1,0.851,,-0.299505994,-0.104174636,0.195331357,534.204,534.204,0,130,130,130,1,-0.32105071,-0.32105071,shape_difference2,1,,TRUE,,intensity,0.1,0.05,0.7,0.3,0.82,20,400,1E-11,3.5,0.01,0.5,0.1,,,,,,,,,,,,,,,,,,,,,,,,,,,,,,,,,,,,,,,,,,,,,,,,,,,,,,,,,,,,,,,,,,,,,,,,,,,,,,,,,
,,,,,639188,001,2025-03-17_13h17.01.639,Utility_discrimination_2024_2cat,2024.2.4,MacIntel,35.71428571,,,,,,,,4,"[0.5,0.5]","[0,1]",d,"[0.3048125880682746,0.5]","[0.6951874119317254,0.5]",534.205,536.635,1,s,1,0.905,,0.050031968,0.290371418,0.24033945,536.638,536.638,0,131,131,131,1,-0.195187412,-0.195187412,shape_difference0,1,,TRUE,,intensity,0.1,0.05,0.7,0.3,0.82,20,400,1E-11,3.5,0.01,0.5,0.1,,,,,,,,,,,,,,,,,,,,,,,,,,,,,,,,,,,,,,,,,,,,,,,,,,,,,,,,,,,,,,,,,,,,,,,,,,,,,,,,,
,,,,,639188,001,2025-03-17_13h17.01.639,Utility_discrimination_2024_2cat,2024.2.4,MacIntel,35.71428571,,,,,,,,3,"[0.5,0.5]","[0.383,0.924]",s,"[0.5,0.6716696807221438]","[0.5,0.3283303192778561]",536.639,539.002,1,s,1,0.842,,-0.481368581,-0.235840111,0.24552847,539.005,539.005,0,132,132,132,1,0.171669681,0.171669681,shape_difference4,1,,TRUE,,intensity,0.1,0.05,0.7,0.3,0.82,20,400,1E-11,3.5,0.01,0.5,0.1,,,,,,,,,,,,,,,,,,,,,,,,,,,,,,,,,,,,,,,,,,,,,,,,,,,,,,,,,,,,,,,,,,,,,,,,,,,,,,,,,
,,,,,639188,001,2025-03-17_13h17.01.639,Utility_discrimination_2024_2cat,2024.2.4,MacIntel,35.71428571,,,,,,,,1,"[0.5,0.5]","[0.924,0.383]",s,"[0.36779916282705605,0.1810611656715399]","[0.632200837172944,0.81893883432846]",539.006,541.319,1,d,1,0.791,,0.10863352,0.299714302,0.191080782,541.32,541.321,0,133,133,133,1,-0.345171899,-0.345171899,shape_difference3,1,,TRUE,,intensity,0.1,0.05,0.7,0.3,0.82,20,400,1E-11,3.5,0.01,0.5,0.1,,,,,,,,,,,,,,,,,,,,,,,,,,,,,,,,,,,,,,,,,,,,,,,,,,,,,,,,,,,,,,,,,,,,,,,,,,,,,,,,,
,,,,,639188,001,2025-03-17_13h17.01.639,Utility_discrimination_2024_2cat,2024.2.4,MacIntel,35.71428571,,,,,,,,3,"[0.5,0.5]","[0.383,0.924]",d,"[0.7076558992939951,0.5860738197290044]","[0.2923441007060049,0.4139261802709956]",541.321,543.935,1,d,1,1.084,,-0.484039241,-0.246566032,0.23747321,543.938,543.938,0,134,134,134,1,0.224735822,0.224735822,shape_difference1,1,,TRUE,,intensity,0.1,0.05,0.7,0.3,0.82,20,400,1E-11,3.5,0.01,0.5,0.1,,,,,,,,,,,,,,,,,,,,,,,,,,,,,,,,,,,,,,,,,,,,,,,,,,,,,,,,,,,,,,,,,,,,,,,,,,,,,,,,,
,,,,,639188,001,2025-03-17_13h17.01.639,Utility_discrimination_2024_2cat,2024.2.4,MacIntel,35.71428571,,,,,,,,0,"[0.5,0.5]","[1,0]",d,"[0.3661081925721954,0.1769816447433643]","[0.6338918074278046,0.8230183552566357]",543.939,546.452,1,d,1,0.988,,-0.328076689,-0.106853758,0.221222931,546.454,546.454,0,135,135,135,1,-0.349586965,-0.349586965,shape_difference3,1,,TRUE,,intensity,0.1,0.05,0.7,0.3,0.82,20,400,1E-11,3.5,0.01,0.5,0.1,,,,,,,,,,,,,,,,,,,,,,,,,,,,,,,,,,,,,,,,,,,,,,,,,,,,,,,,,,,,,,,,,,,,,,,,,,,,,,,,,
,,,,,639188,001,2025-03-17_13h17.01.639,Utility_discrimination_2024_2cat,2024.2.4,MacIntel,35.71428571,,,,,,,,4,"[0.5,0.5]","[0,1]",d,"[0.2945137153873091,0.5]","[0.7054862846126909,0.5]",546.454,548.969,1,s,1,0.984,,0.042267888,0.283098851,0.240830963,548.971,548.971,0,136,136,136,1,-0.205486285,-0.205486285,shape_difference0,1,,TRUE,,intensity,0.1,0.05,0.7,0.3,0.82,20,400,1E-11,3.5,0.01,0.5,0.1,,,,,,,,,,,,,,,,,,,,,,,,,,,,,,,,,,,,,,,,,,,,,,,,,,,,,,,,,,,,,,,,,,,,,,,,,,,,,,,,,
,,,,,639188,001,2025-03-17_13h17.01.639,Utility_discrimination_2024_2cat,2024.2.4,MacIntel,35.71428571,,,,,,,,2,"[0.5,0.5]","[0.707,0.707]",s,"[0.5,0.6672912350726407]","[0.5,0.33270876492735935]",548.971,551.502,1,s,1,1,,-0.439558762,-0.212948899,0.226609863,551.504,551.504,0,137,137,137,1,0.167291235,0.167291235,shape_difference4,1,,TRUE,,intensity,0.1,0.05,0.7,0.3,0.82,20,400,1E-11,3.5,0.01,0.5,0.1,,,,,,,,,,,,,,,,,,,,,,,,,,,,,,,,,,,,,,,,,,,,,,,,,,,,,,,,,,,,,,,,,,,,,,,,,,,,,,,,,
,,,,,639188,001,2025-03-17_13h17.01.639,Utility_discrimination_2024_2cat,2024.2.4,MacIntel,35.71428571,,,,,,,,1,"[0.5,0.5]","[0.924,0.383]",s,"[0.2694693242911693,0.2694693242911693]","[0.7305306757088307,0.7305306757088307]",551.505,554.085,0,d,0,1.055,,0.107286894,0.297374488,0.190087594,554.088,554.088,0,138,138,138,1,-0.326068848,-0.326068848,shape_difference2,1,,TRUE,,intensity,0.1,0.05,0.7,0.3,0.82,20,400,1E-11,3.5,0.01,0.5,0.1,,,,,,,,,,,,,,,,,,,,,,,,,,,,,,,,,,,,,,,,,,,,,,,,,,,,,,,,,,,,,,,,,,,,,,,,,,,,,,,,,
,,,,,639188,001,2025-03-17_13h17.01.639,Utility_discrimination_2024_2cat,2024.2.4,MacIntel,35.71428571,,,,,,,,0,"[0.5,0.5]","[1,0]",s,"[0.6993358590438767,0.5826251450365852]","[0.3006641409561232,0.4173748549634147]",554.089,556.451,1,d,1,0.835,,-0.357582596,-0.109738285,0.247844311,556.454,556.454,0,139,139,139,1,0.215731449,0.215731449,shape_difference1,1,,TRUE,,intensity,0.1,0.05,0.7,0.3,0.82,20,400,1E-11,3.5,0.01,0.5,0.1,,,,,,,,,,,,,,,,,,,,,,,,,,,,,,,,,,,,,,,,,,,,,,,,,,,,,,,,,,,,,,,,,,,,,,,,,,,,,,,,,
,,,,,639188,001,2025-03-17_13h17.01.639,Utility_discrimination_2024_2cat,2024.2.4,MacIntel,35.71428571,,,,,,,,3,"[0.5,0.5]","[0.383,0.924]",d,"[0.28679910565837474,0.5]","[0.7132008943416253,0.5]",556.455,558.769,1,s,1,0.787,,-0.486260698,-0.259813413,0.226447286,558.77,558.77,0,140,140,140,1,-0.213200894,-0.213200894,shape_difference0,1,,TRUE,,intensity,0.1,0.05,0.7,0.3,0.82,20,400,1E-11,3.5,0.01,0.5,0.1,,,,,,,,,,,,,,,,,,,,,,,,,,,,,,,,,,,,,,,,,,,,,,,,,,,,,,,,,,,,,,,,,,,,,,,,,,,,,,,,,
,,,,,639188,001,2025-03-17_13h17.01.639,Utility_discrimination_2024_2cat,2024.2.4,MacIntel,35.71428571,,,,,,,,2,"[0.5,0.5]","[0.707,0.707]",s,"[0.364410899868407,0.1728868707008045]","[0.635589100131593,0.8271131292991956]",558.771,561.169,1,s,1,0.869,,-0.395290526,-0.200909134,0.194381392,561.171,561.171,0,141,141,141,1,-0.354018538,-0.354018538,shape_difference3,1,,TRUE,,intensity,0.1,0.05,0.7,0.3,0.82,20,400,1E-11,3.5,0.01,0.5,0.1,,,,,,,,,,,,,,,,,,,,,,,,,,,,,,,,,,,,,,,,,,,,,,,,,,,,,,,,,,,,,,,,,,,,,,,,,,,,,,,,,
,,,,,639188,001,2025-03-17_13h17.01.639,Utility_discrimination_2024_2cat,2024.2.4,MacIntel,35.71428571,,,,,,,,1,"[0.5,0.5]","[0.924,0.383]",s,"[0.2834045171970698,0.2834045171970698]","[0.7165954828029302,0.7165954828029302]",561.172,563.552,1,d,1,0.858,,0.106073601,0.295020863,0.188947262,563.554,563.554,0,142,142,142,1,-0.306358533,-0.306358533,shape_difference2,1,,TRUE,,intensity,0.1,0.05,0.7,0.3,0.82,20,400,1E-11,3.5,0.01,0.5,0.1,,,,,,,,,,,,,,,,,,,,,,,,,,,,,,,,,,,,,,,,,,,,,,,,,,,,,,,,,,,,,,,,,,,,,,,,,,,,,,,,,
,,,,,639188,001,2025-03-17_13h17.01.639,Utility_discrimination_2024_2cat,2024.2.4,MacIntel,35.71428571,,,,,,,,4,"[0.5,0.5]","[0,1]",d,"[0.6895640337568567,0.5785747023039784]","[0.31043596624314335,0.42142529769602155]",563.555,566.152,1,d,1,1.072,,0.036067746,0.27510339,0.239035644,566.154,566.154,0,143,143,143,1,0.205155881,0.205155881,shape_difference1,1,,TRUE,,intensity,0.1,0.05,0.7,0.3,0.82,20,400,1E-11,3.5,0.01,0.5,0.1,,,,,,,,,,,,,,,,,,,,,,,,,,,,,,,,,,,,,,,,,,,,,,,,,,,,,,,,,,,,,,,,,,,,,,,,,,,,,,,,,
,,,,,639188,001,2025-03-17_13h17.01.639,Utility_discrimination_2024_2cat,2024.2.4,MacIntel,35.71428571,,,,,,,,1,"[0.5,0.5]","[0.924,0.383]",d,"[0.5,0.6634512058605196]","[0.5,0.33654879413948036]",566.155,568.819,0,d,0,1.139,,0.104949285,0.292580933,0.187631648,568.821,568.821,0,144,144,144,1,0.163451206,0.163451206,shape_difference4,1,,TRUE,,intensity,0.1,0.05,0.7,0.3,0.82,20,400,1E-11,3.5,0.01,0.5,0.1,,,,,,,,,,,,,,,,,,,,,,,,,,,,,,,,,,,,,,,,,,,,,,,,,,,,,,,,,,,,,,,,,,,,,,,,,,,,,,,,,
,,,,,639188,001,2025-03-17_13h17.01.639,Utility_discrimination_2024_2cat,2024.2.4,MacIntel,35.71428571,,,,,,,,4,"[0.5,0.5]","[0,1]",s,"[0.6806811207446266,0.5748927156333247]","[0.3193188792553734,0.42510728436667533]",568.821,571.235,1,s,1,0.888,,0.101495176,0.294836916,0.19334174,571.237,571.237,0,145,145,145,1,0.195542338,0.195542338,shape_difference1,1,,TRUE,,intensity,0.1,0.05,0.7,0.3,0.82,20,400,1E-11,3.5,0.01,0.5,0.1,,,,,,,,,,,,,,,,,,,,,,,,,,,,,,,,,,,,,,,,,,,,,,,,,,,,,,,,,,,,,,,,,,,,,,,,,,,,,,,,,
,,,,,639188,001,2025-03-17_13h17.01.639,Utility_discrimination_2024_2cat,2024.2.4,MacIntel,35.71428571,,,,,,,,2,"[0.5,0.5]","[0.707,0.707]",s,"[0.5,0.6793571844875033]","[0.5,0.32064281551249674]",571.238,573.752,1,d,1,0.982,,-0.396361516,-0.2048899,0.191471615,573.755,573.755,0,146,146,146,1,0.179357184,0.179357184,shape_difference4,1,,TRUE,,intensity,0.1,0.05,0.7,0.3,0.82,20,400,1E-11,3.5,0.01,0.5,0.1,,,,,,,,,,,,,,,,,,,,,,,,,,,,,,,,,,,,,,,,,,,,,,,,,,,,,,,,,,,,,,,,,,,,,,,,,,,,,,,,,
,,,,,639188,001,2025-03-17_13h17.01.639,Utility_discrimination_2024_2cat,2024.2.4,MacIntel,35.71428571,,,,,,,,3,"[0.5,0.5]","[0.383,0.924]",d,"[0.27861856544329944,0.27861856544329944]","[0.7213814345567006,0.7213814345567006]",573.756,576.135,1,d,1,0.85,,-0.488788915,-0.274433739,0.214355175,576.138,576.138,0,147,147,147,1,-0.313127913,-0.313127913,shape_difference2,1,,TRUE,,intensity,0.1,0.05,0.7,0.3,0.82,20,400,1E-11,3.5,0.01,0.5,0.1,,,,,,,,,,,,,,,,,,,,,,,,,,,,,,,,,,,,,,,,,,,,,,,,,,,,,,,,,,,,,,,,,,,,,,,,,,,,,,,,,
,,,,,639188,001,2025-03-17_13h17.01.639,Utility_discrimination_2024_2cat,2024.2.4,MacIntel,35.71428571,,,,,,,,0,"[0.5,0.5]","[1,0]",d,"[0.3623698956370418,0.16796288138022614]","[0.6376301043629582,0.8320371186197739]",576.139,578.586,1,d,1,0.926,,-0.381394873,-0.11294599,0.268448883,578.587,578.587,0,148,148,148,1,-0.359347531,-0.359347531,shape_difference3,1,,TRUE,,intensity,0.1,0.05,0.7,0.3,0.82,20,400,1E-11,3.5,0.01,0.5,0.1,,,,,,,,,,,,,,,,,,,,,,,,,,,,,,,,,,,,,,,,,,,,,,,,,,,,,,,,,,,,,,,,,,,,,,,,,,,,,,,,,
,,,,,639188,001,2025-03-17_13h17.01.639,Utility_discrimination_2024_2cat,2024.2.4,MacIntel,35.71428571,,,,,,,,1,"[0.5,0.5]","[0.924,0.383]",d,"[0.28018406183722955,0.5]","[0.7198159381627705,0.5]",578.588,581.119,1,d,1,1.01,,0.103875643,0.28997663,0.186100987,581.121,581.121,0,149,149,149,1,-0.219815938,-0.219815938,shape_difference0,1,,TRUE,,intensity,0.1,0.05,0.7,0.3,0.82,20,400,1E-11,3.5,0.01,0.5,0.1,,,,,,,,,,,,,,,,,,,,,,,,,,,,,,,,,,,,,,,,,,,,,,,,,,,,,,,,,,,,,,,,,,,,,,,,,,,,,,,,,
,,,,,639188,001,2025-03-17_13h17.01.639,Utility_discrimination_2024_2cat,2024.2.4,MacIntel,35.71428571,,,,,,,,2,"[0.5,0.5]","[0.707,0.707]",d,"[0.6744041583070255,0.5722909011164402]","[0.32559584169297445,0.4277090988835598]",581.122,583.836,1,d,1,1.194,,-0.397406176,-0.208989954,0.188416221,583.838,583.838,0,150,150,150,1,0.188749089,0.188749089,shape_difference1,1,,TRUE,,intensity,0.1,0.05,0.7,0.3,0.82,20,400,1E-11,3.5,0.01,0.5,0.1,,,,,,,,,,,,,,,,,,,,,,,,,,,,,,,,,,,,,,,,,,,,,,,,,,,,,,,,,,,,,,,,,,,,,,,,,,,,,,,,,
,,,,,639188,001,2025-03-17_13h17.01.639,Utility_discrimination_2024_2cat,2024.2.4,MacIntel,35.71428571,,,,,,,,4,"[0.5,0.5]","[0,1]",d,"[0.2746904685463525,0.2746904685463525]","[0.7253095314536475,0.7253095314536475]",583.838,586.519,1,s,1,1.159,,0.100304517,0.289088452,0.188783935,586.521,586.521,0,151,151,151,1,-0.31868392,-0.31868392,shape_difference2,1,,TRUE,,intensity,0.1,0.05,0.7,0.3,0.82,20,400,1E-11,3.5,0.01,0.5,0.1,,,,,,,,,,,,,,,,,,,,,,,,,,,,,,,,,,,,,,,,,,,,,,,,,,,,,,,,,,,,,,,,,,,,,,,,,,,,,,,,,
,,,,,639188,001,2025-03-17_13h17.01.639,Utility_discrimination_2024_2cat,2024.2.4,MacIntel,35.71428571,,,,,,,,0,"[0.5,0.5]","[1,0]",s,"[0.5,0.6748130731663438]","[0.5,0.3251869268336563]",586.521,588.902,1,d,1,0.852,,-0.402418607,-0.116619286,0.285799321,588.905,588.905,0,152,152,152,1,0.174813073,0.174813073,shape_difference4,1,,TRUE,,intensity,0.1,0.05,0.7,0.3,0.82,20,400,1E-11,3.5,0.01,0.5,0.1,,,,,,,,,,,,,,,,,,,,,,,,,,,,,,,,,,,,,,,,,,,,,,,,,,,,,,,,,,,,,,,,,,,,,,,,,,,,,,,,,
,,,,,639188,001,2025-03-17_13h17.01.639,Utility_discrimination_2024_2cat,2024.2.4,MacIntel,35.71428571,,,,,,,,3,"[0.5,0.5]","[0.383,0.924]",d,"[0.2744109957373069,0.5]","[0.7255890042626931,0.5]",588.906,591.319,1,d,1,0.883,,-0.491011504,-0.293098171,0.197913333,591.321,591.321,0,153,153,153,1,-0.225589004,-0.225589004,shape_difference0,1,,TRUE,,intensity,0.1,0.05,0.7,0.3,0.82,20,400,1E-11,3.5,0.01,0.5,0.1,,,,,,,,,,,,,,,,,,,,,,,,,,,,,,,,,,,,,,,,,,,,,,,,,,,,,,,,,,,,,,,,,,,,,,,,,,,,,,,,,
,,,,,639188,001,2025-03-17_13h17.01.639,Utility_discrimination_2024_2cat,2024.2.4,MacIntel,35.71428571,,,,,,,,1,"[0.5,0.5]","[0.924,0.383]",d,"[0.36004350223710235,0.16235038137619467]","[0.6399564977628976,0.8376496186238054]",591.322,593.868,1,s,1,1.017,,0.102818542,0.287121141,0.184302599,593.87,593.87,0,154,154,154,1,-0.365421665,-0.365421665,shape_difference3,1,,TRUE,,intensity,0.1,0.05,0.7,0.3,0.82,20,400,1E-11,3.5,0.01,0.5,0.1,,,,,,,,,,,,,,,,,,,,,,,,,,,,,,,,,,,,,,,,,,,,,,,,,,,,,,,,,,,,,,,,,,,,,,,,,,,,,,,,,
,,,,,639188,001,2025-03-17_13h17.01.639,Utility_discrimination_2024_2cat,2024.2.4,MacIntel,35.71428571,,,,,,,,4,"[0.5,0.5]","[0,1]",s,"[0.6691717906027808,0.5701220733775595]","[0.3308282093972193,0.42987792662244045]",593.871,596.435,1,s,1,1.032,,0.087577219,0.282997208,0.195419989,596.437,596.437,0,155,155,155,1,0.183086353,0.183086353,shape_difference1,1,,TRUE,,intensity,0.1,0.05,0.7,0.3,0.82,20,400,1E-11,3.5,0.01,0.5,0.1,,,,,,,,,,,,,,,,,,,,,,,,,,,,,,,,,,,,,,,,,,,,,,,,,,,,,,,,,,,,,,,,,,,,,,,,,,,,,,,,,
,,,,,639188,001,2025-03-17_13h17.01.639,Utility_discrimination_2024_2cat,2024.2.4,MacIntel,35.71428571,,,,,,,,0,"[0.5,0.5]","[1,0]",s,"[0.5,0.6710308934252041]","[0.5,0.32896910657479594]",596.438,598.986,1,d,1,1.017,,-0.44059503,-0.120935367,0.319659663,598.988,598.988,0,156,156,156,1,0.171030893,0.171030893,shape_difference4,1,,TRUE,,intensity,0.1,0.05,0.7,0.3,0.82,20,400,1E-11,3.5,0.01,0.5,0.1,,,,,,,,,,,,,,,,,,,,,,,,,,,,,,,,,,,,,,,,,,,,,,,,,,,,,,,,,,,,,,,,,,,,,,,,,,,,,,,,,
,,,,,639188,001,2025-03-17_13h17.01.639,Utility_discrimination_2024_2cat,2024.2.4,MacIntel,35.71428571,,,,,,,,3,"[0.5,0.5]","[0.383,0.924]",d,"[0.2692629768339131,0.5]","[0.7307370231660869,0.5]",598.989,601.519,1,d,1,1,,-0.493019122,-0.301394682,0.19162444,601.521,601.521,0,157,157,157,1,-0.230737023,-0.230737023,shape_difference0,1,,TRUE,,intensity,0.1,0.05,0.7,0.3,0.82,20,400,1E-11,3.5,0.01,0.5,0.1,,,,,,,,,,,,,,,,,,,,,,,,,,,,,,,,,,,,,,,,,,,,,,,,,,,,,,,,,,,,,,,,,,,,,,,,,,,,,,,,,
,,,,,639188,001,2025-03-17_13h17.01.639,Utility_discrimination_2024_2cat,2024.2.4,MacIntel,35.71428571,,,,,,,,2,"[0.5,0.5]","[0.707,0.707]",d,"[0.35734766096782755,0.15584657632969362]","[0.6426523390321724,0.8441534236703063]",601.522,604.402,1,d,1,1.351,,-0.398458312,-0.213349191,0.185109122,604.405,604.405,0,158,158,158,1,-0.372460415,-0.372460415,shape_difference3,1,,TRUE,,intensity,0.1,0.05,0.7,0.3,0.82,20,400,1E-11,3.5,0.01,0.5,0.1,,,,,,,,,,,,,,,,,,,,,,,,,,,,,,,,,,,,,,,,,,,,,,,,,,,,,,,,,,,,,,,,,,,,,,,,,,,,,,,,,
,,,,,639188,001,2025-03-17_13h17.01.639,Utility_discrimination_2024_2cat,2024.2.4,MacIntel,35.71428571,,,,,,,,0,"[0.5,0.5]","[1,0]",d,"[0.2714365770570328,0.2714365770570328]","[0.7285634229429672,0.7285634229429672]",604.406,606.735,1,d,1,0.801,,-0.47010071,-0.126119859,0.343980851,606.739,606.739,0,159,159,159,1,-0.323286313,-0.323286313,shape_difference2,1,,TRUE,,intensity,0.1,0.05,0.7,0.3,0.82,20,400,1E-11,3.5,0.01,0.5,0.1,,,,,,,,,,,,,,,,,,,,,,,,,,,,,,,,,,,,,,,,,,,,,,,,,,,,,,,,,,,,,,,,,,,,,,,,,,,,,,,,,
,,,,,639188,001,2025-03-17_13h17.01.639,Utility_discrimination_2024_2cat,2024.2.4,MacIntel,35.71428571,,,,,,,,4,"[0.5,0.5]","[0,1]",d,"[0.2645530809514298,0.5]","[0.7354469190485702,0.5]",606.74,609.169,1,d,1,0.901,,0.073932591,0.276329039,0.202396448,609.171,609.171,0,160,160,160,1,-0.235446919,-0.235446919,shape_difference0,1,,TRUE,,intensity,0.1,0.05,0.7,0.3,0.82,20,400,1E-11,3.5,0.01,0.5,0.1,,,,,,,,,,,,,,,,,,,,,,,,,,,,,,,,,,,,,,,,,,,,,,,,,,,,,,,,,,,,,,,,,,,,,,,,,,,,,,,,,
,,,,,639188,001,2025-03-17_13h17.01.639,Utility_discrimination_2024_2cat,2024.2.4,MacIntel,35.71428571,,,,,,,,3,"[0.5,0.5]","[0.383,0.924]",d,"[0.5,0.6678290139917408]","[0.5,0.33217098600825923]",609.172,611.785,1,d,1,1.082,,-0.494888772,-0.3034202,0.191468572,611.788,611.789,0,161,161,161,1,0.167829014,0.167829014,shape_difference4,1,,TRUE,,intensity,0.1,0.05,0.7,0.3,0.82,20,400,1E-11,3.5,0.01,0.5,0.1,,,,,,,,,,,,,,,,,,,,,,,,,,,,,,,,,,,,,,,,,,,,,,,,,,,,,,,,,,,,,,,,,,,,,,,,,,,,,,,,,
,,,,,639188,001,2025-03-17_13h17.01.639,Utility_discrimination_2024_2cat,2024.2.4,MacIntel,35.71428571,,,,,,,,1,"[0.5,0.5]","[0.924,0.383]",d,"[0.3541813419617109,0.14820772838804408]","[0.6458186580382891,0.8517922716119559]",611.789,614.269,1,d,1,0.95,,0.101746497,0.283915185,0.182168688,614.271,614.271,0,162,162,162,1,-0.380727567,-0.380727567,shape_difference3,1,,TRUE,,intensity,0.1,0.05,0.7,0.3,0.82,20,400,1E-11,3.5,0.01,0.5,0.1,,,,,,,,,,,,,,,,,,,,,,,,,,,,,,,,,,,,,,,,,,,,,,,,,,,,,,,,,,,,,,,,,,,,,,,,,,,,,,,,,
,,,,,639188,001,2025-03-17_13h17.01.639,Utility_discrimination_2024_2cat,2024.2.4,MacIntel,35.71428571,,,,,,,,2,"[0.5,0.5]","[0.707,0.707]",d,"[0.664780044276219,0.5683016850192553]","[0.33521995572378105,0.43169831498074474]",614.272,616.869,1,s,1,1.072,,-0.399548838,-0.218121323,0.181427515,616.871,616.871,0,163,163,163,1,0.178333381,0.178333381,shape_difference1,1,,TRUE,,intensity,0.1,0.05,0.7,0.3,0.82,20,400,1E-11,3.5,0.01,0.5,0.1,,,,,,,,,,,,,,,,,,,,,,,,,,,,,,,,,,,,,,,,,,,,,,,,,,,,,,,,,,,,,,,,,,,,,,,,,,,,,,,,,
,,,,,639188,001,2025-03-17_13h17.01.639,Utility_discrimination_2024_2cat,2024.2.4,MacIntel,35.71428571,,,,,,,,1,"[0.5,0.5]","[0.924,0.383]",s,"[0.2687124982403642,0.2687124982403642]","[0.7312875017596359,0.7312875017596359]",616.871,619.419,1,s,1,1.017,,0.100629411,0.280242526,0.179613115,619.421,619.421,0,164,164,164,1,-0.327139324,-0.327139324,shape_difference2,1,,TRUE,,intensity,0.1,0.05,0.7,0.3,0.82,20,400,1E-11,3.5,0.01,0.5,0.1,,,,,,,,,,,,,,,,,,,,,,,,,,,,,,,,,,,,,,,,,,,,,,,,,,,,,,,,,,,,,,,,,,,,,,,,,,,,,,,,,
,,,,,639188,001,2025-03-17_13h17.01.639,Utility_discrimination_2024_2cat,2024.2.4,MacIntel,35.71428571,,,,,,,,0,"[0.5,0.5]","[1,0]",s,"[0.6610627412589961,0.5667608548725059]","[0.3389372587410039,0.43323914512749406]",619.422,622.052,1,s,1,1.1,,-0.493129358,-0.132465428,0.36066393,622.054,622.054,0,165,165,165,1,0.174310326,0.174310326,shape_difference1,1,,TRUE,,intensity,0.1,0.05,0.7,0.3,0.82,20,400,1E-11,3.5,0.01,0.5,0.1,,,,,,,,,,,,,,,,,,,,,,,,,,,,,,,,,,,,,,,,,,,,,,,,,,,,,,,,,,,,,,,,,,,,,,,,,,,,,,,,,
,,,,,639188,001,2025-03-17_13h17.01.639,Utility_discrimination_2024_2cat,2024.2.4,MacIntel,35.71428571,,,,,,,,4,"[0.5,0.5]","[0,1]",s,"[0.2601157643929539,0.5]","[0.7398842356070461,0.5]",622.055,624.736,1,s,1,1.159,,0.062886203,0.268819351,0.205933148,624.737,624.737,0,166,166,166,1,-0.239884236,-0.239884236,shape_difference0,1,,TRUE,,intensity,0.1,0.05,0.7,0.3,0.82,20,400,1E-11,3.5,0.01,0.5,0.1,,,,,,,,,,,,,,,,,,,,,,,,,,,,,,,,,,,,,,,,,,,,,,,,,,,,,,,,,,,,,,,,,,,,,,,,,,,,,,,,,
,,,,,639188,001,2025-03-17_13h17.01.639,Utility_discrimination_2024_2cat,2024.2.4,MacIntel,35.71428571,,,,,,,,3,"[0.5,0.5]","[0.383,0.924]",s,"[0.5,0.665064731045328]","[0.5,0.33493526895467196]",624.738,627.236,1,s,1,0.967,,-0.496687987,-0.305493574,0.191194413,627.238,627.238,0,167,167,167,1,0.165064731,0.165064731,shape_difference4,1,,TRUE,,intensity,0.1,0.05,0.7,0.3,0.82,20,400,1E-11,3.5,0.01,0.5,0.1,,,,,,,,,,,,,,,,,,,,,,,,,,,,,,,,,,,,,,,,,,,,,,,,,,,,,,,,,,,,,,,,,,,,,,,,,,,,,,,,,
,,,,,639188,001,2025-03-17_13h17.01.639,Utility_discrimination_2024_2cat,2024.2.4,MacIntel,35.71428571,,,,,,,,2,"[0.5,0.5]","[0.707,0.707]",s,"[0.3504214516905183,0.13913687039696848]","[0.6495785483094817,0.8608631296030316]",627.239,629.769,1,s,1,1.004,,-0.409802483,-0.223480999,0.186321484,629.771,629.771,0,168,168,168,1,-0.390544513,-0.390544513,shape_difference3,1,,TRUE,,intensity,0.1,0.05,0.7,0.3,0.82,20,400,1E-11,3.5,0.01,0.5,0.1,,,,,,,,,,,,,,,,,,,,,,,,,,,,,,,,,,,,,,,,,,,,,,,,,,,,,,,,,,,,,,,,,,,,,,,,,,,,,,,,,
,,,,,639188,001,2025-03-17_13h17.01.639,Utility_discrimination_2024_2cat,2024.2.4,MacIntel,35.71428571,,,,,,,,3,"[0.5,0.5]","[0.383,0.924]",s,"[0.26640339180994366,0.26640339180994366]","[0.7335966081900563,0.7335966081900563]",629.772,632.252,1,s,1,0.95,,-0.498478192,-0.307683001,0.190795191,632.254,632.254,0,169,169,169,1,-0.330405386,-0.330405386,shape_difference2,1,,TRUE,,intensity,0.1,0.05,0.7,0.3,0.82,20,400,1E-11,3.5,0.01,0.5,0.1,,,,,,,,,,,,,,,,,,,,,,,,,,,,,,,,,,,,,,,,,,,,,,,,,,,,,,,,,,,,,,,,,,,,,,,,,,,,,,,,,
,,,,,639188,001,2025-03-17_13h17.01.639,Utility_discrimination_2024_2cat,2024.2.4,MacIntel,35.71428571,,,,,,,,4,"[0.5,0.5]","[0,1]",s,"[0.34619608329564017,0.1289430312406567]","[0.6538039167043599,0.8710569687593432]",632.255,634.769,1,d,1,0.985,,0.05385599,0.260158801,0.206302811,634.771,634.771,0,170,170,170,1,-0.401576806,-0.401576806,shape_difference3,1,,TRUE,,intensity,0.1,0.05,0.7,0.3,0.82,20,400,1E-11,3.5,0.01,0.5,0.1,,,,,,,,,,,,,,,,,,,,,,,,,,,,,,,,,,,,,,,,,,,,,,,,,,,,,,,,,,,,,,,,,,,,,,,,,,,,,,,,,
,,,,,639188,001,2025-03-17_13h17.01.639,Utility_discrimination_2024_2cat,2024.2.4,MacIntel,35.71428571,,,,,,,,0,"[0.5,0.5]","[1,0]",d,"[0.5,0.6626237820108756]","[0.5,0.3373762179891244]",634.772,637.335,1,d,1,1.033,,-0.520097229,-0.140357419,0.379739809,637.338,637.338,0,171,171,171,1,0.162623782,0.162623782,shape_difference4,1,,TRUE,,intensity,0.1,0.05,0.7,0.3,0.82,20,400,1E-11,3.5,0.01,0.5,0.1,,,,,,,,,,,,,,,,,,,,,,,,,,,,,,,,,,,,,,,,,,,,,,,,,,,,,,,,,,,,,,,,,,,,,,,,,,,,,,,,,
,,,,,639188,001,2025-03-17_13h17.01.639,Utility_discrimination_2024_2cat,2024.2.4,MacIntel,35.71428571,,,,,,,,1,"[0.5,0.5]","[0.924,0.383]",d,"[0.2557996772525768,0.5]","[0.7442003227474232,0.5]",637.338,639.752,1,d,1,0.887,,0.091380131,0.275964398,0.184584268,639.754,639.755,0,172,172,172,1,-0.244200323,-0.244200323,shape_difference0,1,,TRUE,,intensity,0.1,0.05,0.7,0.3,0.82,20,400,1E-11,3.5,0.01,0.5,0.1,,,,,,,,,,,,,,,,,,,,,,,,,,,,,,,,,,,,,,,,,,,,,,,,,,,,,,,,,,,,,,,,,,,,,,,,,,,,,,,,,
,,,,,639188,001,2025-03-17_13h17.01.639,Utility_discrimination_2024_2cat,2024.2.4,MacIntel,35.71428571,,,,,,,,2,"[0.5,0.5]","[0.707,0.707]",d,"[0.6578833029807888,0.565442970824288]","[0.3421166970192112,0.434557029175712]",639.755,642.253,1,s,1,0.968,,-0.423574864,-0.229632268,0.193942596,642.255,642.255,0,173,173,173,1,0.170869376,0.170869376,shape_difference1,1,,TRUE,,intensity,0.1,0.05,0.7,0.3,0.82,20,400,1E-11,3.5,0.01,0.5,0.1,,,,,,,,,,,,,,,,,,,,,,,,,,,,,,,,,,,,,,,,,,,,,,,,,,,,,,,,,,,,,,,,,,,,,,,,,,,,,,,,,
,,,,,639188,001,2025-03-17_13h17.01.639,Utility_discrimination_2024_2cat,2024.2.4,MacIntel,35.71428571,,,,,,,,3,"[0.5,0.5]","[0.383,0.924]",s,"[0.26441676610179277,0.26441676610179277]","[0.7355832338982072,0.7355832338982072]",642.256,644.719,1,s,1,0.933,,-0.505482818,-0.310065638,0.195417181,644.721,644.721,0,174,174,174,1,-0.333215324,-0.333215324,shape_difference2,1,,TRUE,,intensity,0.1,0.05,0.7,0.3,0.82,20,400,1E-11,3.5,0.01,0.5,0.1,,,,,,,,,,,,,,,,,,,,,,,,,,,,,,,,,,,,,,,,,,,,,,,,,,,,,,,,,,,,,,,,,,,,,,,,,,,,,,,,,
,,,,,639188,001,2025-03-17_13h17.01.639,Utility_discrimination_2024_2cat,2024.2.4,MacIntel,35.71428571,,,,,,,,4,"[0.5,0.5]","[0,1]",s,"[0.3431963323806419,0.1217060342551256]","[0.656803667619358,0.8782939657448744]",644.721,647.219,1,d,1,0.966,,0.046410604,0.249975782,0.203565178,647.221,647.221,0,175,175,175,1,-0.409409054,-0.409409054,shape_difference3,1,,TRUE,,intensity,0.1,0.05,0.7,0.3,0.82,20,400,1E-11,3.5,0.01,0.5,0.1,,,,,,,,,,,,,,,,,,,,,,,,,,,,,,,,,,,,,,,,,,,,,,,,,,,,,,,,,,,,,,,,,,,,,,,,,,,,,,,,,
,,,,,639188,001,2025-03-17_13h17.01.639,Utility_discrimination_2024_2cat,2024.2.4,MacIntel,35.71428571,,,,,,,,1,"[0.5,0.5]","[0.924,0.383]",d,"[0.5,0.6604126809449411]","[0.5,0.33958731905505884]",647.222,649.652,1,s,1,0.901,,0.075302423,0.270912477,0.195610054,649.655,649.655,0,176,176,176,1,0.160412681,0.160412681,shape_difference4,1,,TRUE,,intensity,0.1,0.05,0.7,0.3,0.82,20,400,1E-11,3.5,0.01,0.5,0.1,,,,,,,,,,,,,,,,,,,,,,,,,,,,,,,,,,,,,,,,,,,,,,,,,,,,,,,,,,,,,,,,,,,,,,,,,,,,,,,,,
,,,,,639188,001,2025-03-17_13h17.01.639,Utility_discrimination_2024_2cat,2024.2.4,MacIntel,35.71428571,,,,,,,,0,"[0.5,0.5]","[1,0]",s,"[0.6551283420364652,0.5643010335497469]","[0.3448716579635348,0.4356989664502531]",649.656,652.152,1,d,1,0.969,,-0.545686125,-0.150309432,0.395376693,652.154,652.154,0,177,177,177,1,0.167887816,0.167887816,shape_difference1,1,,TRUE,,intensity,0.1,0.05,0.7,0.3,0.82,20,400,1E-11,3.5,0.01,0.5,0.1,,,,,,,,,,,,,,,,,,,,,,,,,,,,,,,,,,,,,,,,,,,,,,,,,,,,,,,,,,,,,,,,,,,,,,,,,,,,,,,,,
,,,,,639188,001,2025-03-17_13h17.01.639,Utility_discrimination_2024_2cat,2024.2.4,MacIntel,35.71428571,,,,,,,,2,"[0.5,0.5]","[0.707,0.707]",d,"[0.2514614661078184,0.5]","[0.7485385338921816,0.5]",652.155,654.636,1,s,1,0.953,,-0.434820726,-0.236818981,0.198001745,654.638,654.638,0,178,178,178,1,-0.248538534,-0.248538534,shape_difference0,1,,TRUE,,intensity,0.1,0.05,0.7,0.3,0.82,20,400,1E-11,3.5,0.01,0.5,0.1,,,,,,,,,,,,,,,,,,,,,,,,,,,,,,,,,,,,,,,,,,,,,,,,,,,,,,,,,,,,,,,,,,,,,,,,,,,,,,,,,
,,,,,639188,001,2025-03-17_13h17.01.639,Utility_discrimination_2024_2cat,2024.2.4,MacIntel,35.71428571,,,,,,,,2,"[0.5,0.5]","[0.707,0.707]",s,"[0.26267707055861644,0.26267707055861644]","[0.7373229294413836,0.7373229294413836]",654.638,657.102,1,s,1,0.934,,-0.444078092,-0.245337866,0.198740226,657.104,657.104,0,179,179,179,1,-0.335675996,-0.335675996,shape_difference2,1,,TRUE,,intensity,0.1,0.05,0.7,0.3,0.82,20,400,1E-11,3.5,0.01,0.5,0.1,,,,,,,,,,,,,,,,,,,,,,,,,,,,,,,,,,,,,,,,,,,,,,,,,,,,,,,,,,,,,,,,,,,,,,,,,,,,,,,,,
,,,,,639188,001,2025-03-17_13h17.01.639,Utility_discrimination_2024_2cat,2024.2.4,MacIntel,35.71428571,,,,,,,,0,"[0.5,0.5]","[1,0]",s,"[0.26112158629276816,0.26112158629276816]","[0.7388784137072318,0.7388784137072318]",657.105,659.419,1,d,1,0.785,,-0.566062135,-0.163012977,0.403049158,659.421,659.421,0,180,180,180,1,-0.337876116,-0.337876116,shape_difference2,1,,TRUE,,intensity,0.1,0.05,0.7,0.3,0.82,20,400,1E-11,3.5,0.01,0.5,0.1,,,,,,,,,,,,,,,,,,,,,,,,,,,,,,,,,,,,,,,,,,,,,,,,,,,,,,,,,,,,,,,,,,,,,,,,,,,,,,,,,
,,,,,639188,001,2025-03-17_13h17.01.639,Utility_discrimination_2024_2cat,2024.2.4,MacIntel,35.71428571,,,,,,,,4,"[0.5,0.5]","[0,1]",d,"[0.24696021115403533,0.5]","[0.7530397888459647,0.5]",659.421,661.852,1,d,1,0.901,,0.040225947,0.237814353,0.197588406,661.854,661.854,0,181,181,181,1,-0.253039789,-0.253039789,shape_difference0,1,,TRUE,,intensity,0.1,0.05,0.7,0.3,0.82,20,400,1E-11,3.5,0.01,0.5,0.1,,,,,,,,,,,,,,,,,,,,,,,,,,,,,,,,,,,,,,,,,,,,,,,,,,,,,,,,,,,,,,,,,,,,,,,,,,,,,,,,,
,,,,,639188,001,2025-03-17_13h17.01.639,Utility_discrimination_2024_2cat,2024.2.4,MacIntel,35.71428571,,,,,,,,3,"[0.5,0.5]","[0.383,0.924]",d,"[0.5,0.6583530268279787]","[0.5,0.34164697317202125]",661.854,664.702,1,d,1,1.317,,-0.533867998,-0.312731636,0.221136362,664.704,664.704,0,182,182,182,1,0.158353027,0.158353027,shape_difference4,1,,TRUE,,intensity,0.1,0.05,0.7,0.3,0.82,20,400,1E-11,3.5,0.01,0.5,0.1,,,,,,,,,,,,,,,,,,,,,,,,,,,,,,,,,,,,,,,,,,,,,,,,,,,,,,,,,,,,,,,,,,,,,,,,,,,,,,,,,
,,,,,639188,001,2025-03-17_13h17.01.639,Utility_discrimination_2024_2cat,2024.2.4,MacIntel,35.71428571,,,,,,,,1,"[0.5,0.5]","[0.924,0.383]",d,"[0.3406523314821996,0.11556854905888364]","[0.6593476685178004,0.8844314509411164]",664.704,667.269,1,d,1,1.038,,0.062084668,0.264879872,0.202795205,667.271,667.271,0,183,183,183,1,-0.416051354,-0.416051354,shape_difference3,1,,TRUE,,intensity,0.1,0.05,0.7,0.3,0.82,20,400,1E-11,3.5,0.01,0.5,0.1,,,,,,,,,,,,,,,,,,,,,,,,,,,,,,,,,,,,,,,,,,,,,,,,,,,,,,,,,,,,,,,,,,,,,,,,,,,,,,,,,
,,,,,639188,001,2025-03-17_13h17.01.639,Utility_discrimination_2024_2cat,2024.2.4,MacIntel,35.71428571,,,,,,,,0,"[0.5,0.5]","[1,0]",d,"[0.6527025973316503,0.5632955571190715]","[0.3472974026683497,0.43670444288092847]",667.272,669.836,1,d,1,1.043,,-0.595638951,-0.17935749,0.416281461,669.838,669.838,0,184,184,184,1,0.165262551,0.165262551,shape_difference1,1,,TRUE,,intensity,0.1,0.05,0.7,0.3,0.82,20,400,1E-11,3.5,0.01,0.5,0.1,,,,,,,,,,,,,,,,,,,,,,,,,,,,,,,,,,,,,,,,,,,,,,,,,,,,,,,,,,,,,,,,,,,,,,,,,,,,,,,,,
,,,,,639188,001,2025-03-17_13h17.01.639,Utility_discrimination_2024_2cat,2024.2.4,MacIntel,35.71428571,,,,,,,,1,"[0.5,0.5]","[0.924,0.383]",d,"[0.23987124981356234,0.5]","[0.7601287501864377,0.5]",669.838,672.319,1,s,1,0.958,,0.051114776,0.257609458,0.206494683,672.322,672.322,0,185,185,185,1,-0.26012875,-0.26012875,shape_difference0,1,,TRUE,,intensity,0.1,0.05,0.7,0.3,0.82,20,400,1E-11,3.5,0.01,0.5,0.1,,,,,,,,,,,,,,,,,,,,,,,,,,,,,,,,,,,,,,,,,,,,,,,,,,,,,,,,,,,,,,,,,,,,,,,,,,,,,,,,,
,,,,,639188,001,2025-03-17_13h17.01.639,Utility_discrimination_2024_2cat,2024.2.4,MacIntel,35.71428571,,,,,,,,3,"[0.5,0.5]","[0.383,0.924]",s,"[0.6505248821457883,0.5623928894608625]","[0.3494751178542117,0.43760711053913753]",672.322,674.686,1,d,1,0.834,,-0.556721927,-0.315789303,0.240932624,674.688,674.688,0,186,186,186,1,0.162905717,0.162905717,shape_difference1,1,,TRUE,,intensity,0.1,0.05,0.7,0.3,0.82,20,400,1E-11,3.5,0.01,0.5,0.1,,,,,,,,,,,,,,,,,,,,,,,,,,,,,,,,,,,,,,,,,,,,,,,,,,,,,,,,,,,,,,,,,,,,,,,,,,,,,,,,,
,,,,,639188,001,2025-03-17_13h17.01.639,Utility_discrimination_2024_2cat,2024.2.4,MacIntel,35.71428571,,,,,,,,2,"[0.5,0.5]","[0.707,0.707]",d,"[0.338468544944862,0.11030009276515002]","[0.661531455055138,0.8896999072348499]",674.689,677.036,1,s,1,0.815,,-0.451753763,-0.255555252,0.196198511,677.037,677.037,0,187,187,187,1,-0.421753146,-0.421753146,shape_difference3,1,,TRUE,,intensity,0.1,0.05,0.7,0.3,0.82,20,400,1E-11,3.5,0.01,0.5,0.1,,,,,,,,,,,,,,,,,,,,,,,,,,,,,,,,,,,,,,,,,,,,,,,,,,,,,,,,,,,,,,,,,,,,,,,,,,,,,,,,,
,,,,,639188,001,2025-03-17_13h17.01.639,Utility_discrimination_2024_2cat,2024.2.4,MacIntel,35.71428571,,,,,,,,4,"[0.5,0.5]","[0,1]",s,"[0.25969725940377675,0.25969725940377675]","[0.7403027405962233,0.7403027405962233]",677.038,679.453,1,d,1,0.884,,0.035055226,0.223105828,0.188050602,679.454,679.454,0,188,188,188,1,-0.339890722,-0.339890722,shape_difference2,1,,TRUE,,intensity,0.1,0.05,0.7,0.3,0.82,20,400,1E-11,3.5,0.01,0.5,0.1,,,,,,,,,,,,,,,,,,,,,,,,,,,,,,,,,,,,,,,,,,,,,,,,,,,,,,,,,,,,,,,,,,,,,,,,,,,,,,,,,
,,,,,639188,001,2025-03-17_13h17.01.639,Utility_discrimination_2024_2cat,2024.2.4,MacIntel,35.71428571,,,,,,,,1,"[0.5,0.5]","[0.924,0.383]",d,"[0.5,0.6563771970275567]","[0.5,0.34362280297244324]",679.455,682.886,1,s,1,1.909,,0.041926922,0.24877859,0.206851667,682.888,682.888,0,189,189,189,1,0.156377197,0.156377197,shape_difference4,1,,TRUE,,intensity,0.1,0.05,0.7,0.3,0.82,20,400,1E-11,3.5,0.01,0.5,0.1,,,,,,,,,,,,,,,,,,,,,,,,,,,,,,,,,,,,,,,,,,,,,,,,,,,,,,,,,,,,,,,,,,,,,,,,,,,,,,,,,
,,,,,639188,001,2025-03-17_13h17.01.639,Utility_discrimination_2024_2cat,2024.2.4,MacIntel,35.71428571,,,,,,,,4,"[0.5,0.5]","[0,1]",s,"[0.6485247965790507,0.5615638496642602]","[0.3514752034209493,0.4384361503357398]",682.889,685.27,1,s,1,0.86,,0.030708077,0.205131667,0.17442359,685.272,685.272,0,190,190,190,1,0.160741122,0.160741122,shape_difference1,1,,TRUE,,intensity,0.1,0.05,0.7,0.3,0.82,20,400,1E-11,3.5,0.01,0.5,0.1,,,,,,,,,,,,,,,,,,,,,,,,,,,,,,,,,,,,,,,,,,,,,,,,,,,,,,,,,,,,,,,,,,,,,,,,,,,,,,,,,
,,,,,639188,001,2025-03-17_13h17.01.639,Utility_discrimination_2024_2cat,2024.2.4,MacIntel,35.71428571,,,,,,,,3,"[0.5,0.5]","[0.383,0.924]",s,"[0.5,0.6544250150464705]","[0.5,0.34557498495352945]",685.272,687.952,1,s,1,1.152,,-0.575426883,-0.319371841,0.256055042,687.954,687.954,0,191,191,191,1,0.154425015,0.154425015,shape_difference4,1,,TRUE,,intensity,0.1,0.05,0.7,0.3,0.82,20,400,1E-11,3.5,0.01,0.5,0.1,,,,,,,,,,,,,,,,,,,,,,,,,,,,,,,,,,,,,,,,,,,,,,,,,,,,,,,,,,,,,,,,,,,,,,,,,,,,,,,,,
