Consent.started,Consent.stopped,key_resp.keys,key_resp.rt,key_resp.duration,participant,session,date,expName,psychopyVersion,OS,frameRate,SetupExperiment.started,SetupExperiment.stopped,DiscrimInstructions_Pre.started,DiscrimInstructions_Pre.stopped,KeyboardResponse.keys,KeyboardResponse.rt,KeyboardResponse.duration,feature_index,feature_center,feature_vector,correct_answer,coord1,coord2,DiscriminationTrial.started,DiscriminationTrial.stopped,PreTest.response,Resp_s_or_d.keys,Resp_s_or_d.corr,Resp_s_or_d.rt,Resp_s_or_d.duration,PreTest.CI_lower,PreTest.CI_upper,PreTest.CI_width,CrashPretest_2.started,CrashPretest_2.stopped,PreTest.thisRepN,PreTest.thisTrialN,PreTest.thisN,PreTest.thisIndex,PreTest.ran,PreTest.intensity,intensity,PreTest.label,PreTest.nReps,PreTest.method,PreTest.autoLog,PreTest.seed,PreTest.varName,PreTest.startVal,PreTest.minVal,PreTest.maxVal,PreTest.startValSd,PreTest.pThreshold,PreTest.nTrials,PreTest.maxTrials,PreTest.stopInterval,PreTest.beta,PreTest.delta,PreTest.gamma,PreTest.grain,WelcomeToCategorizationTask.started,WelcomeToCategorizationTask.stopped,PressAnyKey3.keys,PressAnyKey3.rt,PressAnyKey3.duration,shape_coordinates,category_center,category_sigma,subspace_center,subspace_vector1,subspace_vector2,CategorizationTrial.started,CategorizationTrial.stopped,Respond_1or2.keys,Respond_1or2.rt,Respond_1or2.duration,Feedback.started,Feedback.stopped,xcoord,ycoord,shape_coord,numeric_response_minus1,correctness,truecategory,mixture_index,respAifA,respBifA,respAifB,respBifB,trial_number,D,muAx,muAy,muBx,muBy,sigmaA,sigmaB,priorA,priorB,TrialLoop.thisRepN,TrialLoop.thisTrialN,TrialLoop.thisN,TrialLoop.thisIndex,TrialLoop.ran,DiscriminationInstructions_Post.started,DiscriminationInstructions_Post.stopped,key_resp_2.keys,key_resp_2.rt,key_resp_2.duration,PostTest.response,PostTest.CI_lower,PostTest.CI_upper,PostTest.CI_width,CrashPosttest.started,CrashPosttest.stopped,PostTest.thisRepN,PostTest.thisTrialN,PostTest.thisN,PostTest.thisIndex,PostTest.ran,PostTest.intensity,PostTest.label,PostTest.nReps,PostTest.method,PostTest.autoLog,PostTest.seed,PostTest.varName,PostTest.startVal,PostTest.minVal,PostTest.maxVal,PostTest.startValSd,PostTest.pThreshold,PostTest.nTrials,PostTest.maxTrials,PostTest.stopInterval,PostTest.beta,PostTest.delta,PostTest.gamma,PostTest.grain,Thanks.started,Thanks.stopped
0.0004,11.4849,y,11.4333,,649603,001,2025-03-15_16h48.20.064,Utility_discrimination_2024_2cat,2024.2.4,Win32,60.24096386,,,,,,,,,,,,,,,,,,,,,,,,,,,,,,,,,,,,,,,,,,,,,,,,,,,,,,,,,,,,,,,,,,,,,,,,,,,,,,,,,,,,,,,,,,,,,,,,,,,,,,,,,,,,,,,,,,,,,,,,,,,,,,,,,,,
,,,,,649603,001,2025-03-15_16h48.20.064,Utility_discrimination_2024_2cat,2024.2.4,Win32,60.24096386,11.4854,11.4856,,,,,,,,,,,,,,,,,,,,,,,,,,,,,,,,,,,,,,,,,,,,,,,,,,,,,,,,,,,,,,,,,,,,,,,,,,,,,,,,,,,,,,,,,,,,,,,,,,,,,,,,,,,,,,,,,,,,,,,,,,,,,,,,,
,,,,,649603,001,2025-03-15_16h48.20.064,Utility_discrimination_2024_2cat,2024.2.4,Win32,60.24096386,,,11.4857,27.8482,space,16.3034,,,,,,,,,,,,,,,,,,,,,,,,,,,,,,,,,,,,,,,,,,,,,,,,,,,,,,,,,,,,,,,,,,,,,,,,,,,,,,,,,,,,,,,,,,,,,,,,,,,,,,,,,,,,,,,,,,,,,,,,,,,,,
,,,,,649603,001,2025-03-15_16h48.20.064,Utility_discrimination_2024_2cat,2024.2.4,Win32,60.24096386,,,,,,,,1,"[0.5,0.5]","[0.924,0.383]",,"[0.6185239449756466,0.5]","[0.3814760550243534,0.5]",27.8945,30.8999,1,s,1,1.4926,,-0.447967632,0.547967632,0.995935263,30.9045,30.9047,0,0,0,0,1,0.118523945,0.118523945,shape_difference4,1,,TRUE,,intensity,0.1,0.05,0.7,0.3,0.82,20,400,1E-11,3.5,0.01,0.5,0.1,,,,,,,,,,,,,,,,,,,,,,,,,,,,,,,,,,,,,,,,,,,,,,,,,,,,,,,,,,,,,,,,,,,,,,,,,,,,,,,,,
,,,,,649603,001,2025-03-15_16h48.20.064,Utility_discrimination_2024_2cat,2024.2.4,Win32,60.24096386,,,,,,,,2,"[0.5,0.5]","[0.707,0.707]",s,"[0.6095161251574974,0.5453946709256726]","[0.3904838748425025,0.4546053290743273]",30.9058,33.5355,1,s,1,1.1079,,-0.447967632,0.547967632,0.995935263,33.5383,33.5385,0,1,1,1,1,0.118523945,0.118523945,shape_difference1,1,,TRUE,,intensity,0.1,0.05,0.7,0.3,0.82,20,400,1E-11,3.5,0.01,0.5,0.1,,,,,,,,,,,,,,,,,,,,,,,,,,,,,,,,,,,,,,,,,,,,,,,,,,,,,,,,,,,,,,,,,,,,,,,,,,,,,,,,,
,,,,,649603,001,2025-03-15_16h48.20.064,Utility_discrimination_2024_2cat,2024.2.4,Win32,60.24096386,,,,,,,,0,"[0.5,0.5]","[1,0]",s,"[0.5837964290977822,0.5837964290977822]","[0.4162035709022178,0.4162035709022178]",33.5401,35.9873,0,d,0,0.925,,-0.447967632,0.547967632,0.995935263,35.9897,35.9897,0,2,2,2,1,0.118523945,0.118523945,shape_difference2,1,,TRUE,,intensity,0.1,0.05,0.7,0.3,0.82,20,400,1E-11,3.5,0.01,0.5,0.1,,,,,,,,,,,,,,,,,,,,,,,,,,,,,,,,,,,,,,,,,,,,,,,,,,,,,,,,,,,,,,,,,,,,,,,,,,,,,,,,,
,,,,,649603,001,2025-03-15_16h48.20.064,Utility_discrimination_2024_2cat,2024.2.4,Win32,60.24096386,,,,,,,,3,"[0.5,0.5]","[0.383,0.924]",s,"[0.6185239449756466,0.5]","[0.3814760550243534,0.5]",35.9907,38.3725,0,s,0,0.856,,-0.447967632,0.547967632,0.995935263,38.3763,38.3765,0,3,3,3,1,0.118523945,0.118523945,shape_difference0,1,,TRUE,,intensity,0.1,0.05,0.7,0.3,0.82,20,400,1E-11,3.5,0.01,0.5,0.1,,,,,,,,,,,,,,,,,,,,,,,,,,,,,,,,,,,,,,,,,,,,,,,,,,,,,,,,,,,,,,,,,,,,,,,,,,,,,,,,,
,,,,,649603,001,2025-03-15_16h48.20.064,Utility_discrimination_2024_2cat,2024.2.4,Win32,60.24096386,,,,,,,,4,"[0.5,0.5]","[0,1]",d,"[0.5453946709256726,0.6095161251574974]","[0.4546053290743273,0.3904838748425025]",38.3779,40.7578,1,s,1,0.8487,,-0.479157219,0.478510979,0.957668197,40.7605,40.7606,0,4,4,4,1,0.118523945,0.118523945,shape_difference3,1,,TRUE,,intensity,0.1,0.05,0.7,0.3,0.82,20,400,1E-11,3.5,0.01,0.5,0.1,,,,,,,,,,,,,,,,,,,,,,,,,,,,,,,,,,,,,,,,,,,,,,,,,,,,,,,,,,,,,,,,,,,,,,,,,,,,,,,,,
,,,,,649603,001,2025-03-15_16h48.20.064,Utility_discrimination_2024_2cat,2024.2.4,Win32,60.24096386,,,,,,,,0,"[0.5,0.5]","[1,0]",s,"[0.5,0.5370015867235566]","[0.5,0.4629984132764434]",40.7618,43.2099,0,s,0,0.9175,,0.008797352,0.664308158,0.655510806,43.2143,43.2144,0,5,5,5,1,0.037001587,0.037001587,shape_difference4,1,,TRUE,,intensity,0.1,0.05,0.7,0.3,0.82,20,400,1E-11,3.5,0.01,0.5,0.1,,,,,,,,,,,,,,,,,,,,,,,,,,,,,,,,,,,,,,,,,,,,,,,,,,,,,,,,,,,,,,,,,,,,,,,,,,,,,,,,,
,,,,,649603,001,2025-03-15_16h48.20.064,Utility_discrimination_2024_2cat,2024.2.4,Win32,60.24096386,,,,,,,,2,"[0.5,0.5]","[0.707,0.707]",d,"[0.8247185585179694,0.5]","[0.17528144148203062,0.5]",43.2154,45.4453,1,d,1,0.7117,,0.008797352,0.664308158,0.655510806,45.4491,45.4491,0,6,6,6,1,0.324718559,0.324718559,shape_difference0,1,,TRUE,,intensity,0.1,0.05,0.7,0.3,0.82,20,400,1E-11,3.5,0.01,0.5,0.1,,,,,,,,,,,,,,,,,,,,,,,,,,,,,,,,,,,,,,,,,,,,,,,,,,,,,,,,,,,,,,,,,,,,,,,,,,,,,,,,,
,,,,,649603,001,2025-03-15_16h48.20.064,Utility_discrimination_2024_2cat,2024.2.4,Win32,60.24096386,,,,,,,,1,"[0.5,0.5]","[0.924,0.383]",d,"[0.7295760208722043,0.7295760208722043]","[0.2704239791277957,0.2704239791277957]",45.4505,47.8304,1,d,1,0.849,,-0.479157219,0.478510979,0.957668197,47.8339,47.8339,0,7,7,7,1,0.324718559,0.324718559,shape_difference2,1,,TRUE,,intensity,0.1,0.05,0.7,0.3,0.82,20,400,1E-11,3.5,0.01,0.5,0.1,,,,,,,,,,,,,,,,,,,,,,,,,,,,,,,,,,,,,,,,,,,,,,,,,,,,,,,,,,,,,,,,,,,,,,,,,,,,,,,,,
,,,,,649603,001,2025-03-15_16h48.20.064,Utility_discrimination_2024_2cat,2024.2.4,Win32,60.24096386,,,,,,,,3,"[0.5,0.5]","[0.383,0.924]",d,"[0.5341894661325662,0.5141716077151222]","[0.46581053386743376,0.48582839228487784]",47.8352,50.5161,0,s,0,1.1502,,-0.479157219,0.478510979,0.957668197,50.5192,50.5192,0,8,8,8,1,0.037001587,0.037001587,shape_difference1,1,,TRUE,,intensity,0.1,0.05,0.7,0.3,0.82,20,400,1E-11,3.5,0.01,0.5,0.1,,,,,,,,,,,,,,,,,,,,,,,,,,,,,,,,,,,,,,,,,,,,,,,,,,,,,,,,,,,,,,,,,,,,,,,,,,,,,,,,,
,,,,,649603,001,2025-03-15_16h48.20.064,Utility_discrimination_2024_2cat,2024.2.4,Win32,60.24096386,,,,,,,,4,"[0.5,0.5]","[0,1]",d,"[0.5141716077151222,0.5341894661325662]","[0.48582839228487784,0.46581053386743376]",50.5205,54.2857,0,s,0,2.2411,,-0.090065158,0.591798206,0.681863364,54.2893,54.2894,0,9,9,9,1,0.037001587,0.037001587,shape_difference3,1,,TRUE,,intensity,0.1,0.05,0.7,0.3,0.82,20,400,1E-11,3.5,0.01,0.5,0.1,,,,,,,,,,,,,,,,,,,,,,,,,,,,,,,,,,,,,,,,,,,,,,,,,,,,,,,,,,,,,,,,,,,,,,,,,,,,,,,,,
,,,,,649603,001,2025-03-15_16h48.20.064,Utility_discrimination_2024_2cat,2024.2.4,Win32,60.24096386,,,,,,,,1,"[0.5,0.5]","[0.924,0.383]",d,"[0.5,0.7256621725789216]","[0.5,0.2743378274210784]",54.2906,57.6395,1,s,1,1.8253,,-0.090065158,0.591798206,0.681863364,57.6431,57.6431,0,10,10,10,1,0.225662173,0.225662173,shape_difference4,1,,TRUE,,intensity,0.1,0.05,0.7,0.3,0.82,20,400,1E-11,3.5,0.01,0.5,0.1,,,,,,,,,,,,,,,,,,,,,,,,,,,,,,,,,,,,,,,,,,,,,,,,,,,,,,,,,,,,,,,,,,,,,,,,,,,,,,,,,
,,,,,649603,001,2025-03-15_16h48.20.064,Utility_discrimination_2024_2cat,2024.2.4,Win32,60.24096386,,,,,,,,0,"[0.5,0.5]","[1,0]",s,"[0.7085118474629236,0.586428612097727]","[0.2914881525370764,0.413571387902273]",57.6446,59.7908,1,s,1,0.6159,,-0.003741292,0.604569979,0.608311271,59.795,59.795,0,11,11,11,1,0.225662173,0.225662173,shape_difference1,1,,TRUE,,intensity,0.1,0.05,0.7,0.3,0.82,20,400,1E-11,3.5,0.01,0.5,0.1,,,,,,,,,,,,,,,,,,,,,,,,,,,,,,,,,,,,,,,,,,,,,,,,,,,,,,,,,,,,,,,,,,,,,,,,,,,,,,,,,
,,,,,649603,001,2025-03-15_16h48.20.064,Utility_discrimination_2024_2cat,2024.2.4,Win32,60.24096386,,,,,,,,3,"[0.5,0.5]","[0.383,0.924]",s,"[0.7748173464265704,0.5]","[0.22518265357342954,0.5]",59.7966,62.076,1,s,1,0.7561,,-0.090065158,0.591798206,0.681863364,62.0797,62.0797,0,12,12,12,1,0.274817346,0.274817346,shape_difference0,1,,TRUE,,intensity,0.1,0.05,0.7,0.3,0.82,20,400,1E-11,3.5,0.01,0.5,0.1,,,,,,,,,,,,,,,,,,,,,,,,,,,,,,,,,,,,,,,,,,,,,,,,,,,,,,,,,,,,,,,,,,,,,,,,,,,,,,,,,
,,,,,649603,001,2025-03-15_16h48.20.064,Utility_discrimination_2024_2cat,2024.2.4,Win32,60.24096386,,,,,,,,2,"[0.5,0.5]","[0.707,0.707]",s,"[0.586428612097727,0.7085118474629236]","[0.413571387902273,0.2914881525370764]",62.0814,64.3608,1,d,1,0.7547,,-0.003741292,0.604569979,0.608311271,64.3643,64.3643,0,13,13,13,1,0.225662173,0.225662173,shape_difference3,1,,TRUE,,intensity,0.1,0.05,0.7,0.3,0.82,20,400,1E-11,3.5,0.01,0.5,0.1,,,,,,,,,,,,,,,,,,,,,,,,,,,,,,,,,,,,,,,,,,,,,,,,,,,,,,,,,,,,,,,,,,,,,,,,,,,,,,,,,
,,,,,649603,001,2025-03-15_16h48.20.064,Utility_discrimination_2024_2cat,2024.2.4,Win32,60.24096386,,,,,,,,1,"[0.5,0.5]","[0.924,0.383]",d,"[0.6942958639235853,0.6942958639235853]","[0.30570413607641467,0.30570413607641467]",64.3654,66.8462,1,d,1,0.955,,-0.09936101,0.537490534,0.636851544,66.8486,66.8486,0,14,14,14,1,0.274817346,0.274817346,shape_difference2,1,,TRUE,,intensity,0.1,0.05,0.7,0.3,0.82,20,400,1E-11,3.5,0.01,0.5,0.1,,,,,,,,,,,,,,,,,,,,,,,,,,,,,,,,,,,,,,,,,,,,,,,,,,,,,,,,,,,,,,,,,,,,,,,,,,,,,,,,,
,,,,,649603,001,2025-03-15_16h48.20.064,Utility_discrimination_2024_2cat,2024.2.4,Win32,60.24096386,,,,,,,,2,"[0.5,0.5]","[0.707,0.707]",d,"[0.658672159494192,0.5657699535565752]","[0.341327840505808,0.4342300464434248]",66.8497,69.2148,0,s,0,0.8373,,-0.026700702,0.552121039,0.578821741,69.2179,69.2179,0,15,15,15,1,0.171723116,0.171723116,shape_difference1,1,,TRUE,,intensity,0.1,0.05,0.7,0.3,0.82,20,400,1E-11,3.5,0.01,0.5,0.1,,,,,,,,,,,,,,,,,,,,,,,,,,,,,,,,,,,,,,,,,,,,,,,,,,,,,,,,,,,,,,,,,,,,,,,,,,,,,,,,,
,,,,,649603,001,2025-03-15_16h48.20.064,Utility_discrimination_2024_2cat,2024.2.4,Win32,60.24096386,,,,,,,,4,"[0.5,0.5]","[0,1]",d,"[0.6669698042543574,0.6669698042543574]","[0.33303019574564263,0.33303019574564263]",69.2189,71.6168,1,d,1,0.8688,,-0.09936101,0.537490534,0.636851544,71.62,71.6201,0,16,16,16,1,0.236166626,0.236166626,shape_difference2,1,,TRUE,,intensity,0.1,0.05,0.7,0.3,0.82,20,400,1E-11,3.5,0.01,0.5,0.1,,,,,,,,,,,,,,,,,,,,,,,,,,,,,,,,,,,,,,,,,,,,,,,,,,,,,,,,,,,,,,,,,,,,,,,,,,,,,,,,,
,,,,,649603,001,2025-03-15_16h48.20.064,Utility_discrimination_2024_2cat,2024.2.4,Win32,60.24096386,,,,,,,,3,"[0.5,0.5]","[0.383,0.924]",d,"[0.5,0.6717231163357056]","[0.5,0.3282768836642944]",71.6215,73.9854,1,s,1,0.8394,,-0.09936101,0.537490534,0.636851544,73.9893,73.9893,0,17,17,17,1,0.171723116,0.171723116,shape_difference4,1,,TRUE,,intensity,0.1,0.05,0.7,0.3,0.82,20,400,1E-11,3.5,0.01,0.5,0.1,,,,,,,,,,,,,,,,,,,,,,,,,,,,,,,,,,,,,,,,,,,,,,,,,,,,,,,,,,,,,,,,,,,,,,,,,,,,,,,,,
,,,,,649603,001,2025-03-15_16h48.20.064,Utility_discrimination_2024_2cat,2024.2.4,Win32,60.24096386,,,,,,,,0,"[0.5,0.5]","[1,0]",s,"[0.5657699535565752,0.658672159494192]","[0.4342300464434248,0.341327840505808]",73.9906,76.2876,1,s,1,0.7722,,-0.026700702,0.552121039,0.578821741,76.2922,76.2923,0,18,18,18,1,0.171723116,0.171723116,shape_difference3,1,,TRUE,,intensity,0.1,0.05,0.7,0.3,0.82,20,400,1E-11,3.5,0.01,0.5,0.1,,,,,,,,,,,,,,,,,,,,,,,,,,,,,,,,,,,,,,,,,,,,,,,,,,,,,,,,,,,,,,,,,,,,,,,,,,,,,,,,,
,,,,,649603,001,2025-03-15_16h48.20.064,Utility_discrimination_2024_2cat,2024.2.4,Win32,60.24096386,,,,,,,,4,"[0.5,0.5]","[0,1]",s,"[0.7361666255365733,0.5]","[0.26383337446342664,0.5]",76.2935,78.5559,0,d,0,0.7319,,-0.120490743,0.470685176,0.591175919,78.5586,78.5587,0,19,19,19,1,0.236166626,0.236166626,shape_difference0,1,,TRUE,,intensity,0.1,0.05,0.7,0.3,0.82,20,400,1E-11,3.5,0.01,0.5,0.1,,,,,,,,,,,,,,,,,,,,,,,,,,,,,,,,,,,,,,,,,,,,,,,,,,,,,,,,,,,,,,,,,,,,,,,,,,,,,,,,,
,,,,,649603,001,2025-03-15_16h48.20.064,Utility_discrimination_2024_2cat,2024.2.4,Win32,60.24096386,,,,,,,,2,"[0.5,0.5]","[0.707,0.707]",s,"[0.5,0.6306116159745301]","[0.5,0.3693883840254699]",78.5605,80.7577,1,s,1,0.6768,,-0.050981617,0.494068035,0.545049652,80.7615,80.7615,0,20,20,20,1,0.130611616,0.130611616,shape_difference4,1,,TRUE,,intensity,0.1,0.05,0.7,0.3,0.82,20,400,1E-11,3.5,0.01,0.5,0.1,,,,,,,,,,,,,,,,,,,,,,,,,,,,,,,,,,,,,,,,,,,,,,,,,,,,,,,,,,,,,,,,,,,,,,,,,,,,,,,,,
,,,,,649603,001,2025-03-15_16h48.20.064,Utility_discrimination_2024_2cat,2024.2.4,Win32,60.24096386,,,,,,,,1,"[0.5,0.5]","[0.924,0.383]",s,"[0.6390775312535046,0.6390775312535046]","[0.3609224687464953,0.3609224687464953]",80.7627,83.2934,1,d,1,1.0014,,0.064206312,0.666780888,0.602574576,83.2957,83.2957,0,21,21,21,1,0.196715037,0.196715037,shape_difference2,1,,TRUE,,intensity,0.1,0.05,0.7,0.3,0.82,20,400,1E-11,3.5,0.01,0.5,0.1,,,,,,,,,,,,,,,,,,,,,,,,,,,,,,,,,,,,,,,,,,,,,,,,,,,,,,,,,,,,,,,,,,,,,,,,,,,,,,,,,
,,,,,649603,001,2025-03-15_16h48.20.064,Utility_discrimination_2024_2cat,2024.2.4,Win32,60.24096386,,,,,,,,0,"[0.5,0.5]","[1,0]",d,"[0.8141874624294083,0.6302313832364322]","[0.18581253757059168,0.36976861676356776]",83.2975,85.7452,1,d,1,0.9232,,0.105213017,0.641946211,0.536733194,85.7479,85.7479,0,22,22,22,1,0.340029721,0.340029721,shape_difference1,1,,TRUE,,intensity,0.1,0.05,0.7,0.3,0.82,20,400,1E-11,3.5,0.01,0.5,0.1,,,,,,,,,,,,,,,,,,,,,,,,,,,,,,,,,,,,,,,,,,,,,,,,,,,,,,,,,,,,,,,,,,,,,,,,,,,,,,,,,
,,,,,649603,001,2025-03-15_16h48.20.064,Utility_discrimination_2024_2cat,2024.2.4,Win32,60.24096386,,,,,,,,3,"[0.5,0.5]","[0.383,0.924]",d,"[0.8329731738562145,0.5]","[0.16702682614378545,0.5]",85.7495,87.8806,0,s,0,0.6092,,-0.120490743,0.470685176,0.591175919,87.8827,87.8828,0,23,23,23,1,0.332973174,0.332973174,shape_difference0,1,,TRUE,,intensity,0.1,0.05,0.7,0.3,0.82,20,400,1E-11,3.5,0.01,0.5,0.1,,,,,,,,,,,,,,,,,,,,,,,,,,,,,,,,,,,,,,,,,,,,,,,,,,,,,,,,,,,,,,,,,,,,,,,,,,,,,,,,,
,,,,,649603,001,2025-03-15_16h48.20.064,Utility_discrimination_2024_2cat,2024.2.4,Win32,60.24096386,,,,,,,,2,"[0.5,0.5]","[0.707,0.707]",d,"[0.550024248918245,0.6206851331604658]","[0.44997575108175497,0.3793148668395342]",87.8839,90.2662,0,d,0,0.8551,,-0.067097964,0.445046575,0.512144539,90.269,90.269,0,24,24,24,1,0.130611616,0.130611616,shape_difference3,1,,TRUE,,intensity,0.1,0.05,0.7,0.3,0.82,20,400,1E-11,3.5,0.01,0.5,0.1,,,,,,,,,,,,,,,,,,,,,,,,,,,,,,,,,,,,,,,,,,,,,,,,,,,,,,,,,,,,,,,,,,,,,,,,,,,,,,,,,
,,,,,649603,001,2025-03-15_16h48.20.064,Utility_discrimination_2024_2cat,2024.2.4,Win32,60.24096386,,,,,,,,0,"[0.5,0.5]","[1,0]",s,"[0.6202573175539916,0.6202573175539916]","[0.37974268244600834,0.37974268244600834]",90.2701,92.868,1,s,1,1.0658,,0.203316349,0.72284052,0.51952417,92.8708,92.871,0,25,25,25,1,0.170095216,0.170095216,shape_difference2,1,,TRUE,,intensity,0.1,0.05,0.7,0.3,0.82,20,400,1E-11,3.5,0.01,0.5,0.1,,,,,,,,,,,,,,,,,,,,,,,,,,,,,,,,,,,,,,,,,,,,,,,,,,,,,,,,,,,,,,,,,,,,,,,,,,,,,,,,,
,,,,,649603,001,2025-03-15_16h48.20.064,Utility_discrimination_2024_2cat,2024.2.4,Win32,60.24096386,,,,,,,,4,"[0.5,0.5]","[0,1]",s,"[0.9300692633198508,0.5]","[0.06993073668014915,0.5]",92.8735,95.6701,1,s,1,1.2666,,-0.144584963,0.406347617,0.550932581,95.6733,95.6733,0,26,26,26,1,0.430069263,0.430069263,shape_difference0,1,,TRUE,,intensity,0.1,0.05,0.7,0.3,0.82,20,400,1E-11,3.5,0.01,0.5,0.1,,,,,,,,,,,,,,,,,,,,,,,,,,,,,,,,,,,,,,,,,,,,,,,,,,,,,,,,,,,,,,,,,,,,,,,,,,,,,,,,,
,,,,,649603,001,2025-03-15_16h48.20.064,Utility_discrimination_2024_2cat,2024.2.4,Win32,60.24096386,,,,,,,,1,"[0.5,0.5]","[0.924,0.383]",s,"[0.5,0.5917420996447461]","[0.5,0.4082579003552539]",95.6744,98.2057,1,s,1,0.9996,,0.046106493,0.612747238,0.566640745,98.2097,98.2097,0,27,27,27,1,0.0917421,0.0917421,shape_difference4,1,,TRUE,,intensity,0.1,0.05,0.7,0.3,0.82,20,400,1E-11,3.5,0.01,0.5,0.1,,,,,,,,,,,,,,,,,,,,,,,,,,,,,,,,,,,,,,,,,,,,,,,,,,,,,,,,,,,,,,,,,,,,,,,,,,,,,,,,,
,,,,,649603,001,2025-03-15_16h48.20.064,Utility_discrimination_2024_2cat,2024.2.4,Win32,60.24096386,,,,,,,,3,"[0.5,0.5]","[0.383,0.924]",s,"[0.7714365447053668,0.6125110353053631]","[0.22856345529463312,0.3874889646946369]",98.2109,100.5744,1,d,1,0.8407,,0.003655665,0.572085223,0.568429559,100.5814,100.5814,0,28,28,28,1,0.293762494,0.293762494,shape_difference1,1,,TRUE,,intensity,0.1,0.05,0.7,0.3,0.82,20,400,1E-11,3.5,0.01,0.5,0.1,,,,,,,,,,,,,,,,,,,,,,,,,,,,,,,,,,,,,,,,,,,,,,,,,,,,,,,,,,,,,,,,,,,,,,,,,,,,,,,,,
,,,,,649603,001,2025-03-15_16h48.20.064,Utility_discrimination_2024_2cat,2024.2.4,Win32,60.24096386,,,,,,,,3,"[0.5,0.5]","[0.383,0.924]",d,"[0.589686398841138,0.7163713643060355]","[0.4103136011588619,0.28362863569396446]",100.5833,102.5759,1,d,1,0.4739,,-0.011268795,0.514865831,0.526134626,102.5796,102.5796,0,29,29,29,1,0.234168143,0.234168143,shape_difference3,1,,TRUE,,intensity,0.1,0.05,0.7,0.3,0.82,20,400,1E-11,3.5,0.01,0.5,0.1,,,,,,,,,,,,,,,,,,,,,,,,,,,,,,,,,,,,,,,,,,,,,,,,,,,,,,,,,,,,,,,,,,,,,,,,,,,,,,,,,
,,,,,649603,001,2025-03-15_16h48.20.064,Utility_discrimination_2024_2cat,2024.2.4,Win32,60.24096386,,,,,,,,1,"[0.5,0.5]","[0.924,0.383]",d,"[0.5738562893841641,0.6781807085926048]","[0.4261437106158359,0.3218192914073952]",102.5826,104.8278,1,d,1,0.7161,,0.034258812,0.562756016,0.528497204,104.8303,104.8303,0,30,30,30,1,0.192836265,0.192836265,shape_difference3,1,,TRUE,,intensity,0.1,0.05,0.7,0.3,0.82,20,400,1E-11,3.5,0.01,0.5,0.1,,,,,,,,,,,,,,,,,,,,,,,,,,,,,,,,,,,,,,,,,,,,,,,,,,,,,,,,,,,,,,,,,,,,,,,,,,,,,,,,,
,,,,,649603,001,2025-03-15_16h48.20.064,Utility_discrimination_2024_2cat,2024.2.4,Win32,60.24096386,,,,,,,,4,"[0.5,0.5]","[0,1]",d,"[0.7423583717217473,0.6004580696638845]","[0.25764162827825265,0.3995419303361155]",104.8318,107.2799,1,s,1,0.9159,,-0.160589475,0.350306654,0.510896129,107.283,107.2832,0,31,31,31,1,0.26229261,0.26229261,shape_difference1,1,,TRUE,,intensity,0.1,0.05,0.7,0.3,0.82,20,400,1E-11,3.5,0.01,0.5,0.1,,,,,,,,,,,,,,,,,,,,,,,,,,,,,,,,,,,,,,,,,,,,,,,,,,,,,,,,,,,,,,,,,,,,,,,,,,,,,,,,,
,,,,,649603,001,2025-03-15_16h48.20.064,Utility_discrimination_2024_2cat,2024.2.4,Win32,60.24096386,,,,,,,,2,"[0.5,0.5]","[0.707,0.707]",s,"[0.5,0.5661561925116445]","[0.5,0.43384380748835555]",107.2847,110.8493,0,d,0,2.0378,,-0.078138993,0.387434732,0.465573725,110.8525,110.8525,0,32,32,32,1,0.066156193,0.066156193,shape_difference4,1,,TRUE,,intensity,0.1,0.05,0.7,0.3,0.82,20,400,1E-11,3.5,0.01,0.5,0.1,,,,,,,,,,,,,,,,,,,,,,,,,,,,,,,,,,,,,,,,,,,,,,,,,,,,,,,,,,,,,,,,,,,,,,,,,,,,,,,,,
,,,,,649603,001,2025-03-15_16h48.20.064,Utility_discrimination_2024_2cat,2024.2.4,Win32,60.24096386,,,,,,,,0,"[0.5,0.5]","[1,0]",s,"[0.6042140812410881,0.6042140812410881]","[0.3957859187589119,0.3957859187589119]",110.8538,113.3181,1,d,1,0.9424,,0.188107535,0.679010172,0.490902637,113.3223,113.3223,0,33,33,33,1,0.147403227,0.147403227,shape_difference2,1,,TRUE,,intensity,0.1,0.05,0.7,0.3,0.82,20,400,1E-11,3.5,0.01,0.5,0.1,,,,,,,,,,,,,,,,,,,,,,,,,,,,,,,,,,,,,,,,,,,,,,,,,,,,,,,,,,,,,,,,,,,,,,,,,,,,,,,,,
,,,,,649603,001,2025-03-15_16h48.20.064,Utility_discrimination_2024_2cat,2024.2.4,Win32,60.24096386,,,,,,,,3,"[0.5,0.5]","[0.383,0.924]",d,"[0.8921342069674211,0.5]","[0.10786579303257893,0.5]",113.3234,115.6199,1,s,1,0.774,,-0.030796683,0.460349377,0.49114606,115.6233,115.6233,0,34,34,34,1,0.392134207,0.392134207,shape_difference0,1,,TRUE,,intensity,0.1,0.05,0.7,0.3,0.82,20,400,1E-11,3.5,0.01,0.5,0.1,,,,,,,,,,,,,,,,,,,,,,,,,,,,,,,,,,,,,,,,,,,,,,,,,,,,,,,,,,,,,,,,,,,,,,,,,,,,,,,,,
,,,,,649603,001,2025-03-15_16h48.20.064,Utility_discrimination_2024_2cat,2024.2.4,Win32,60.24096386,,,,,,,,1,"[0.5,0.5]","[0.924,0.383]",s,"[0.5639289954103861,0.6542307878830204]","[0.43607100458961384,0.34576921211697964]",115.6245,118.1555,1,d,1,1.0021,,0.026241905,0.49758731,0.471345405,118.1591,118.1591,0,35,35,35,1,0.166916437,0.166916437,shape_difference3,1,,TRUE,,intensity,0.1,0.05,0.7,0.3,0.82,20,400,1E-11,3.5,0.01,0.5,0.1,,,,,,,,,,,,,,,,,,,,,,,,,,,,,,,,,,,,,,,,,,,,,,,,,,,,,,,,,,,,,,,,,,,,,,,,,,,,,,,,,
,,,,,649603,001,2025-03-15_16h48.20.064,Utility_discrimination_2024_2cat,2024.2.4,Win32,60.24096386,,,,,,,,2,"[0.5,0.5]","[0.707,0.707]",d,"[0.7174714087780494,0.5901423696558366]","[0.28252859122195056,0.4098576303441635]",118.1599,120.5576,1,d,1,0.8772,,-0.090658615,0.352456116,0.443114731,120.5604,120.5604,0,36,36,36,1,0.235358668,0.235358668,shape_difference1,1,,TRUE,,intensity,0.1,0.05,0.7,0.3,0.82,20,400,1E-11,3.5,0.01,0.5,0.1,,,,,,,,,,,,,,,,,,,,,,,,,,,,,,,,,,,,,,,,,,,,,,,,,,,,,,,,,,,,,,,,,,,,,,,,,,,,,,,,,
,,,,,649603,001,2025-03-15_16h48.20.064,Utility_discrimination_2024_2cat,2024.2.4,Win32,60.24096386,,,,,,,,0,"[0.5,0.5]","[1,0]",d,"[0.5879166828752915,0.5879166828752915]","[0.4120833171247084,0.4120833171247084]",120.5617,123.026,0,d,0,0.9379,,0.169284443,0.631078363,0.46179392,123.03,123.0301,0,37,37,37,1,0.124351744,0.124351744,shape_difference2,1,,TRUE,,intensity,0.1,0.05,0.7,0.3,0.82,20,400,1E-11,3.5,0.01,0.5,0.1,,,,,,,,,,,,,,,,,,,,,,,,,,,,,,,,,,,,,,,,,,,,,,,,,,,,,,,,,,,,,,,,,,,,,,,,,,,,,,,,,
,,,,,649603,001,2025-03-15_16h48.20.064,Utility_discrimination_2024_2cat,2024.2.4,Win32,60.24096386,,,,,,,,4,"[0.5,0.5]","[0,1]",s,"[0.8668517334388227,0.5]","[0.1331482665611773,0.5]",123.031,125.5615,1,d,1,1.0086,,-0.042952876,0.488607625,0.531560501,125.5643,125.5644,0,38,38,38,1,0.366851733,0.366851733,shape_difference0,1,,TRUE,,intensity,0.1,0.05,0.7,0.3,0.82,20,400,1E-11,3.5,0.01,0.5,0.1,,,,,,,,,,,,,,,,,,,,,,,,,,,,,,,,,,,,,,,,,,,,,,,,,,,,,,,,,,,,,,,,,,,,,,,,,,,,,,,,,
,,,,,649603,001,2025-03-15_16h48.20.064,Utility_discrimination_2024_2cat,2024.2.4,Win32,60.24096386,,,,,,,,4,"[0.5,0.5]","[0,1]",d,"[0.5,0.6708898226107778]","[0.5,0.32911017738922227]",125.5661,127.9303,0,d,0,0.8384,,0.056073834,0.617551257,0.561477423,127.9338,127.9338,0,39,39,39,1,0.170889823,0.170889823,shape_difference4,1,,TRUE,,intensity,0.1,0.05,0.7,0.3,0.82,20,400,1E-11,3.5,0.01,0.5,0.1,,,,,,,,,,,,,,,,,,,,,,,,,,,,,,,,,,,,,,,,,,,,,,,,,,,,,,,,,,,,,,,,,,,,,,,,,,,,,,,,,
,,,,,649603,001,2025-03-15_16h48.20.064,Utility_discrimination_2024_2cat,2024.2.4,Win32,60.24096386,,,,,,,,1,"[0.5,0.5]","[0.924,0.383]",s,"[0.5,0.7922294940093778]","[0.5,0.2077705059906222]",127.9349,130.0489,1,d,1,0.5829,,0.017569522,0.460819634,0.443250112,130.0512,130.0512,0,40,40,40,1,0.292229494,0.292229494,shape_difference4,1,,TRUE,,intensity,0.1,0.05,0.7,0.3,0.82,20,400,1E-11,3.5,0.01,0.5,0.1,,,,,,,,,,,,,,,,,,,,,,,,,,,,,,,,,,,,,,,,,,,,,,,,,,,,,,,,,,,,,,,,,,,,,,,,,,,,,,,,,
,,,,,649603,001,2025-03-15_16h48.20.064,Utility_discrimination_2024_2cat,2024.2.4,Win32,60.24096386,,,,,,,,2,"[0.5,0.5]","[0.707,0.707]",d,"[0.6915852549641255,0.5794125028693291]","[0.30841474503587457,0.42058749713067095]",130.0521,132.5008,1,s,1,0.917,,0.008070822,0.430403835,0.422333013,132.5047,132.5047,0,41,41,41,1,0.20734335,0.20734335,shape_difference1,1,,TRUE,,intensity,0.1,0.05,0.7,0.3,0.82,20,400,1E-11,3.5,0.01,0.5,0.1,,,,,,,,,,,,,,,,,,,,,,,,,,,,,,,,,,,,,,,,,,,,,,,,,,,,,,,,,,,,,,,,,,,,,,,,,,,,,,,,,
,,,,,649603,001,2025-03-15_16h48.20.064,Utility_discrimination_2024_2cat,2024.2.4,Win32,60.24096386,,,,,,,,3,"[0.5,0.5]","[0.383,0.924]",s,"[0.6277527917925052,0.6277527917925052]","[0.37224720820749485,0.37224720820749485]",132.5056,134.6693,1,s,1,0.6338,,-0.04414718,0.394342532,0.438489712,134.6719,134.6719,0,42,42,42,1,0.180697018,0.180697018,shape_difference2,1,,TRUE,,intensity,0.1,0.05,0.7,0.3,0.82,20,400,1E-11,3.5,0.01,0.5,0.1,,,,,,,,,,,,,,,,,,,,,,,,,,,,,,,,,,,,,,,,,,,,,,,,,,,,,,,,,,,,,,,,,,,,,,,,,,,,,,,,,
,,,,,649603,001,2025-03-15_16h48.20.064,Utility_discrimination_2024_2cat,2024.2.4,Win32,60.24096386,,,,,,,,0,"[0.5,0.5]","[1,0]",s,"[0.5555348756482092,0.6339796999972462]","[0.44446512435179075,0.36602030000275376]",134.6732,136.9378,1,s,1,0.7367,,0.156307471,0.582010389,0.425702919,136.9408,136.9408,0,43,43,43,1,0.144999675,0.144999675,shape_difference3,1,,TRUE,,intensity,0.1,0.05,0.7,0.3,0.82,20,400,1E-11,3.5,0.01,0.5,0.1,,,,,,,,,,,,,,,,,,,,,,,,,,,,,,,,,,,,,,,,,,,,,,,,,,,,,,,,,,,,,,,,,,,,,,,,,,,,,,,,,
,,,,,649603,001,2025-03-15_16h48.20.064,Utility_discrimination_2024_2cat,2024.2.4,Win32,60.24096386,,,,,,,,3,"[0.5,0.5]","[0.383,0.924]",s,"[0.8452285662726056,0.5]","[0.15477143372739444,0.5]",136.9416,139.1728,0,s,0,0.7073,,-0.058252429,0.358095927,0.416348356,139.1754,139.1754,0,44,44,44,1,0.345228566,0.345228566,shape_difference0,1,,TRUE,,intensity,0.1,0.05,0.7,0.3,0.82,20,400,1E-11,3.5,0.01,0.5,0.1,,,,,,,,,,,,,,,,,,,,,,,,,,,,,,,,,,,,,,,,,,,,,,,,,,,,,,,,,,,,,,,,,,,,,,,,,,,,,,,,,
,,,,,649603,001,2025-03-15_16h48.20.064,Utility_discrimination_2024_2cat,2024.2.4,Win32,60.24096386,,,,,,,,2,"[0.5,0.5]","[0.707,0.707]",d,"[0.5473778932828842,0.6143007138208487]","[0.4526221067171157,0.3856992861791513]",139.1767,142.2921,1,d,1,1.5842,,0.004441546,0.382823497,0.37838195,142.2969,142.297,0,45,45,45,1,0.123702071,0.123702071,shape_difference3,1,,TRUE,,intensity,0.1,0.05,0.7,0.3,0.82,20,400,1E-11,3.5,0.01,0.5,0.1,,,,,,,,,,,,,,,,,,,,,,,,,,,,,,,,,,,,,,,,,,,,,,,,,,,,,,,,,,,,,,,,,,,,,,,,,,,,,,,,,
,,,,,649603,001,2025-03-15_16h48.20.064,Utility_discrimination_2024_2cat,2024.2.4,Win32,60.24096386,,,,,,,,0,"[0.5,0.5]","[1,0]",d,"[0.6157355786248377,0.6157355786248377]","[0.38426442137516226,0.38426442137516226]",142.2984,144.3941,1,d,1,0.5679,,0.214066834,0.651098377,0.437031543,144.3978,144.398,0,46,46,46,1,0.163699545,0.163699545,shape_difference2,1,,TRUE,,intensity,0.1,0.05,0.7,0.3,0.82,20,400,1E-11,3.5,0.01,0.5,0.1,,,,,,,,,,,,,,,,,,,,,,,,,,,,,,,,,,,,,,,,,,,,,,,,,,,,,,,,,,,,,,,,,,,,,,,,,,,,,,,,,
,,,,,649603,001,2025-03-15_16h48.20.064,Utility_discrimination_2024_2cat,2024.2.4,Win32,60.24096386,,,,,,,,4,"[0.5,0.5]","[0,1]",d,"[0.8914413398263549,0.5]","[0.10855866017364513,0.5]",144.3994,147.3964,1,d,1,1.4715,,0.043752549,0.565618193,0.521865644,147.3999,147.3999,0,47,47,47,1,0.39144134,0.39144134,shape_difference0,1,,TRUE,,intensity,0.1,0.05,0.7,0.3,0.82,20,400,1E-11,3.5,0.01,0.5,0.1,,,,,,,,,,,,,,,,,,,,,,,,,,,,,,,,,,,,,,,,,,,,,,,,,,,,,,,,,,,,,,,,,,,,,,,,,,,,,,,,,
,,,,,649603,001,2025-03-15_16h48.20.064,Utility_discrimination_2024_2cat,2024.2.4,Win32,60.24096386,,,,,,,,1,"[0.5,0.5]","[0.924,0.383]",d,"[0.5,0.760538473720338]","[0.5,0.239461526279662]",147.4011,149.6315,1,d,1,0.705,,0.011343888,0.407493809,0.396149921,149.6358,149.6358,0,48,48,48,1,0.260538474,0.260538474,shape_difference4,1,,TRUE,,intensity,0.1,0.05,0.7,0.3,0.82,20,400,1E-11,3.5,0.01,0.5,0.1,,,,,,,,,,,,,,,,,,,,,,,,,,,,,,,,,,,,,,,,,,,,,,,,,,,,,,,,,,,,,,,,,,,,,,,,,,,,,,,,,
,,,,,649603,001,2025-03-15_16h48.20.064,Utility_discrimination_2024_2cat,2024.2.4,Win32,60.24096386,,,,,,,,2,"[0.5,0.5]","[0.707,0.707]",d,"[0.6724413346454404,0.5714773064601771]","[0.3275586653545596,0.42852269353982286]",149.6368,151.9171,0,d,0,0.7494,,0.00165167,0.343370219,0.34171855,151.9204,151.9204,0,49,49,49,1,0.186624821,0.186624821,shape_difference1,1,,TRUE,,intensity,0.1,0.05,0.7,0.3,0.82,20,400,1E-11,3.5,0.01,0.5,0.1,,,,,,,,,,,,,,,,,,,,,,,,,,,,,,,,,,,,,,,,,,,,,,,,,,,,,,,,,,,,,,,,,,,,,,,,,,,,,,,,,
,,,,,649603,001,2025-03-15_16h48.20.064,Utility_discrimination_2024_2cat,2024.2.4,Win32,60.24096386,,,,,,,,0,"[0.5,0.5]","[1,0]",s,"[0.6052692875284184,0.6052692875284184]","[0.39473071247158165,0.39473071247158165]",151.9217,154.3522,1,d,1,0.9013,,0.210089791,0.597895353,0.387805562,154.3545,154.3545,0,50,50,50,1,0.148895739,0.148895739,shape_difference2,1,,TRUE,,intensity,0.1,0.05,0.7,0.3,0.82,20,400,1E-11,3.5,0.01,0.5,0.1,,,,,,,,,,,,,,,,,,,,,,,,,,,,,,,,,,,,,,,,,,,,,,,,,,,,,,,,,,,,,,,,,,,,,,,,,,,,,,,,,
,,,,,649603,001,2025-03-15_16h48.20.064,Utility_discrimination_2024_2cat,2024.2.4,Win32,60.24096386,,,,,,,,3,"[0.5,0.5]","[0.383,0.924]",d,"[0.872983014536753,0.5]","[0.12701698546324702,0.5]",154.3556,156.6048,1,s,1,0.7199,,-0.068194537,0.306984031,0.375178568,156.6087,156.6089,0,51,51,51,1,0.372983015,0.372983015,shape_difference0,1,,TRUE,,intensity,0.1,0.05,0.7,0.3,0.82,20,400,1E-11,3.5,0.01,0.5,0.1,,,,,,,,,,,,,,,,,,,,,,,,,,,,,,,,,,,,,,,,,,,,,,,,,,,,,,,,,,,,,,,,,,,,,,,,,,,,,,,,,
,,,,,649603,001,2025-03-15_16h48.20.064,Utility_discrimination_2024_2cat,2024.2.4,Win32,60.24096386,,,,,,,,4,"[0.5,0.5]","[0,1]",s,"[0.5384122332256965,0.5926707663199571]","[0.4615877667743035,0.4073292336800429]",156.6111,158.8397,1,s,1,0.7016,,0.03542131,0.499109844,0.463688533,158.8444,158.8444,0,52,52,52,1,0.100293037,0.100293037,shape_difference3,1,,TRUE,,intensity,0.1,0.05,0.7,0.3,0.82,20,400,1E-11,3.5,0.01,0.5,0.1,,,,,,,,,,,,,,,,,,,,,,,,,,,,,,,,,,,,,,,,,,,,,,,,,,,,,,,,,,,,,,,,,,,,,,,,,,,,,,,,,
,,,,,649603,001,2025-03-15_16h48.20.064,Utility_discrimination_2024_2cat,2024.2.4,Win32,60.24096386,,,,,,,,1,"[0.5,0.5]","[0.924,0.383]",s,"[0.5,0.7334477271320778]","[0.5,0.2665522728679221]",158.8463,160.9581,1,d,1,0.5811,,0.094504131,0.506022103,0.411517972,160.9608,160.9608,0,53,53,53,1,0.233447727,0.233447727,shape_difference4,1,,TRUE,,intensity,0.1,0.05,0.7,0.3,0.82,20,400,1E-11,3.5,0.01,0.5,0.1,,,,,,,,,,,,,,,,,,,,,,,,,,,,,,,,,,,,,,,,,,,,,,,,,,,,,,,,,,,,,,,,,,,,,,,,,,,,,,,,,
,,,,,649603,001,2025-03-15_16h48.20.064,Utility_discrimination_2024_2cat,2024.2.4,Win32,60.24096386,,,,,,,,0,"[0.5,0.5]","[1,0]",d,"[0.7378335519957107,0.5985825220934602]","[0.26216644800428934,0.4014174779065398]",160.9627,163.1436,1,d,1,0.6547,,0.207144577,0.566255683,0.359111106,163.1468,163.1468,0,54,54,54,1,0.257395619,0.257395619,shape_difference1,1,,TRUE,,intensity,0.1,0.05,0.7,0.3,0.82,20,400,1E-11,3.5,0.01,0.5,0.1,,,,,,,,,,,,,,,,,,,,,,,,,,,,,,,,,,,,,,,,,,,,,,,,,,,,,,,,,,,,,,,,,,,,,,,,,,,,,,,,,
,,,,,649603,001,2025-03-15_16h48.20.064,Utility_discrimination_2024_2cat,2024.2.4,Win32,60.24096386,,,,,,,,1,"[0.5,0.5]","[0.924,0.383]",d,"[0.857360356380697,0.5]","[0.14263964361930304,0.5]",163.1493,165.2285,1,s,1,0.5495,,0.078111185,0.463792878,0.385681693,165.2333,165.2333,0,55,55,55,1,0.357360356,0.357360356,shape_difference0,1,,TRUE,,intensity,0.1,0.05,0.7,0.3,0.82,20,400,1E-11,3.5,0.01,0.5,0.1,,,,,,,,,,,,,,,,,,,,,,,,,,,,,,,,,,,,,,,,,,,,,,,,,,,,,,,,,,,,,,,,,,,,,,,,,,,,,,,,,
,,,,,649603,001,2025-03-15_16h48.20.064,Utility_discrimination_2024_2cat,2024.2.4,Win32,60.24096386,,,,,,,,4,"[0.5,0.5]","[0,1]",s,"[0.7204704388695067,0.5913854741201526]","[0.2795295611304933,0.4086145258798473]",165.2351,167.6632,1,s,1,0.9036,,0.026680104,0.462040399,0.435360295,167.6659,167.6659,0,56,56,56,1,0.238604371,0.238604371,shape_difference1,1,,TRUE,,intensity,0.1,0.05,0.7,0.3,0.82,20,400,1E-11,3.5,0.01,0.5,0.1,,,,,,,,,,,,,,,,,,,,,,,,,,,,,,,,,,,,,,,,,,,,,,,,,,,,,,,,,,,,,,,,,,,,,,,,,,,,,,,,,
,,,,,649603,001,2025-03-15_16h48.20.064,Utility_discrimination_2024_2cat,2024.2.4,Win32,60.24096386,,,,,,,,2,"[0.5,0.5]","[0.707,0.707]",s,"[0.5,0.7056382795133814]","[0.5,0.29436172048661857]",167.6672,169.7819,1,d,1,0.5839,,-0.014346739,0.301715938,0.316062676,169.786,169.7861,0,57,57,57,1,0.20563828,0.20563828,shape_difference4,1,,TRUE,,intensity,0.1,0.05,0.7,0.3,0.82,20,400,1E-11,3.5,0.01,0.5,0.1,,,,,,,,,,,,,,,,,,,,,,,,,,,,,,,,,,,,,,,,,,,,,,,,,,,,,,,,,,,,,,,,,,,,,,,,,,,,,,,,,
,,,,,649603,001,2025-03-15_16h48.20.064,Utility_discrimination_2024_2cat,2024.2.4,Win32,60.24096386,,,,,,,,3,"[0.5,0.5]","[0.383,0.924]",d,"[0.5950076283562015,0.5950076283562015]","[0.40499237164379853,0.40499237164379853]",169.7872,172.0172,0,d,0,0.7066,,-0.075380169,0.279253359,0.354633528,172.0195,172.0195,0,58,58,58,1,0.13438137,0.13438137,shape_difference2,1,,TRUE,,intensity,0.1,0.05,0.7,0.3,0.82,20,400,1E-11,3.5,0.01,0.5,0.1,,,,,,,,,,,,,,,,,,,,,,,,,,,,,,,,,,,,,,,,,,,,,,,,,,,,,,,,,,,,,,,,,,,,,,,,,,,,,,,,,
,,,,,649603,001,2025-03-15_16h48.20.064,Utility_discrimination_2024_2cat,2024.2.4,Win32,60.24096386,,,,,,,,3,"[0.5,0.5]","[0.383,0.924]",s,"[0.5331354034533942,0.5799402422739849]","[0.46686459654660584,0.42005975772601506]",172.0204,175.0528,0,d,0,1.5074,,0.002120245,0.364500246,0.362380001,175.0571,175.0571,0,59,59,59,1,0.086515414,0.086515414,shape_difference3,1,,TRUE,,intensity,0.1,0.05,0.7,0.3,0.82,20,400,1E-11,3.5,0.01,0.5,0.1,,,,,,,,,,,,,,,,,,,,,,,,,,,,,,,,,,,,,,,,,,,,,,,,,,,,,,,,,,,,,,,,,,,,,,,,,,,,,,,,,
,,,,,649603,001,2025-03-15_16h48.20.064,Utility_discrimination_2024_2cat,2024.2.4,Win32,60.24096386,,,,,,,,0,"[0.5,0.5]","[1,0]",s,"[0.5545933384825579,0.6317082108560926]","[0.4454066615174421,0.36829178914390737]",175.0585,177.338,1,s,1,0.7597,,0.204886225,0.523319415,0.31843319,177.3416,177.3416,0,60,60,60,1,0.142541354,0.142541354,shape_difference3,1,,TRUE,,intensity,0.1,0.05,0.7,0.3,0.82,20,400,1E-11,3.5,0.01,0.5,0.1,,,,,,,,,,,,,,,,,,,,,,,,,,,,,,,,,,,,,,,,,,,,,,,,,,,,,,,,,,,,,,,,,,,,,,,,,,,,,,,,,
,,,,,649603,001,2025-03-15_16h48.20.064,Utility_discrimination_2024_2cat,2024.2.4,Win32,60.24096386,,,,,,,,1,"[0.5,0.5]","[0.924,0.383]",s,"[0.8434708097359206,0.5]","[0.1565291902640794,0.5]",177.3434,179.757,0,s,0,0.8898,,0.059876553,0.422292203,0.362415649,179.7599,179.76,0,61,61,61,1,0.34347081,0.34347081,shape_difference0,1,,TRUE,,intensity,0.1,0.05,0.7,0.3,0.82,20,400,1E-11,3.5,0.01,0.5,0.1,,,,,,,,,,,,,,,,,,,,,,,,,,,,,,,,,,,,,,,,,,,,,,,,,,,,,,,,,,,,,,,,,,,,,,,,,,,,,,,,,
,,,,,649603,001,2025-03-15_16h48.20.064,Utility_discrimination_2024_2cat,2024.2.4,Win32,60.24096386,,,,,,,,2,"[0.5,0.5]","[0.707,0.707]",d,"[0.70292526792775,0.584112962788234]","[0.29707473207225,0.41588703721176595]",179.7613,182.1589,1,d,1,0.8659,,0.014057541,0.371369084,0.357311543,182.1622,182.1622,0,62,62,62,1,0.219616091,0.219616091,shape_difference1,1,,TRUE,,intensity,0.1,0.05,0.7,0.3,0.82,20,400,1E-11,3.5,0.01,0.5,0.1,,,,,,,,,,,,,,,,,,,,,,,,,,,,,,,,,,,,,,,,,,,,,,,,,,,,,,,,,,,,,,,,,,,,,,,,,,,,,,,,,
,,,,,649603,001,2025-03-15_16h48.20.064,Utility_discrimination_2024_2cat,2024.2.4,Win32,60.24096386,,,,,,,,4,"[0.5,0.5]","[0,1]",d,"[0.6192525520369337,0.6192525520369337]","[0.38074744796306625,0.38074744796306625]",182.1646,185.2117,1,s,1,1.5185,,0.020504999,0.408632681,0.388127682,185.2161,185.2161,0,63,63,63,1,0.168674048,0.168674048,shape_difference2,1,,TRUE,,intensity,0.1,0.05,0.7,0.3,0.82,20,400,1E-11,3.5,0.01,0.5,0.1,,,,,,,,,,,,,,,,,,,,,,,,,,,,,,,,,,,,,,,,,,,,,,,,,,,,,,,,,,,,,,,,,,,,,,,,,,,,,,,,,
,,,,,649603,001,2025-03-15_16h48.20.064,Utility_discrimination_2024_2cat,2024.2.4,Win32,60.24096386,,,,,,,,1,"[0.5,0.5]","[0.924,0.383]",s,"[0.5,0.686908029174839]","[0.5,0.31309197082516105]",185.2175,187.3802,0,d,0,0.6357,,0.046879931,0.388871967,0.341992037,187.3837,187.3837,0,64,64,64,1,0.186908029,0.186908029,shape_difference4,1,,TRUE,,intensity,0.1,0.05,0.7,0.3,0.82,20,400,1E-11,3.5,0.01,0.5,0.1,,,,,,,,,,,,,,,,,,,,,,,,,,,,,,,,,,,,,,,,,,,,,,,,,,,,,,,,,,,,,,,,,,,,,,,,,,,,,,,,,
,,,,,649603,001,2025-03-15_16h48.20.064,Utility_discrimination_2024_2cat,2024.2.4,Win32,60.24096386,,,,,,,,2,"[0.5,0.5]","[0.707,0.707]",s,"[0.6840647398172022,0.5762952330627581]","[0.3159352601827978,0.4237047669372419]",187.3852,189.8989,1,d,1,0.9942,,0.011239121,0.332012128,0.320773006,189.9032,189.9032,0,65,65,65,1,0.199204264,0.199204264,shape_difference1,1,,TRUE,,intensity,0.1,0.05,0.7,0.3,0.82,20,400,1E-11,3.5,0.01,0.5,0.1,,,,,,,,,,,,,,,,,,,,,,,,,,,,,,,,,,,,,,,,,,,,,,,,,,,,,,,,,,,,,,,,,,,,,,,,,,,,,,,,,
,,,,,649603,001,2025-03-15_16h48.20.064,Utility_discrimination_2024_2cat,2024.2.4,Win32,60.24096386,,,,,,,,0,"[0.5,0.5]","[1,0]",d,"[0.6108542104116214,0.6108542104116214]","[0.3891457895883787,0.3891457895883787]",189.9047,192.0175,1,s,1,0.5854,,0.217389205,0.578669983,0.361280778,192.0229,192.023,0,66,66,66,1,0.156795206,0.156795206,shape_difference2,1,,TRUE,,intensity,0.1,0.05,0.7,0.3,0.82,20,400,1E-11,3.5,0.01,0.5,0.1,,,,,,,,,,,,,,,,,,,,,,,,,,,,,,,,,,,,,,,,,,,,,,,,,,,,,,,,,,,,,,,,,,,,,,,,,,,,,,,,,
,,,,,649603,001,2025-03-15_16h48.20.064,Utility_discrimination_2024_2cat,2024.2.4,Win32,60.24096386,,,,,,,,3,"[0.5,0.5]","[0.383,0.924]",s,"[0.8739133802814635,0.5]","[0.12608661971853652,0.5]",192.0252,194.9694,1,d,1,1.4173,,-0.007940465,0.32225898,0.330199446,194.9733,194.9733,0,67,67,67,1,0.37391338,0.37391338,shape_difference0,1,,TRUE,,intensity,0.1,0.05,0.7,0.3,0.82,20,400,1E-11,3.5,0.01,0.5,0.1,,,,,,,,,,,,,,,,,,,,,,,,,,,,,,,,,,,,,,,,,,,,,,,,,,,,,,,,,,,,,,,,,,,,,,,,,,,,,,,,,
,,,,,649603,001,2025-03-15_16h48.20.064,Utility_discrimination_2024_2cat,2024.2.4,Win32,60.24096386,,,,,,,,4,"[0.5,0.5]","[0,1]",d,"[0.5481887837215372,0.6162570134691916]","[0.45181121627846277,0.3837429865308084]",194.9753,197.4556,1,d,1,0.9607,,0.100158856,0.507123201,0.406964344,197.4598,197.4598,0,68,68,68,1,0.125819279,0.125819279,shape_difference3,1,,TRUE,,intensity,0.1,0.05,0.7,0.3,0.82,20,400,1E-11,3.5,0.01,0.5,0.1,,,,,,,,,,,,,,,,,,,,,,,,,,,,,,,,,,,,,,,,,,,,,,,,,,,,,,,,,,,,,,,,,,,,,,,,,,,,,,,,,
,,,,,649603,001,2025-03-15_16h48.20.064,Utility_discrimination_2024_2cat,2024.2.4,Win32,60.24096386,,,,,,,,1,"[0.5,0.5]","[0.924,0.383]",d,"[0.5,0.7542396588913277]","[0.5,0.2457603411086723]",197.4613,199.9739,1,s,1,0.9832,,0.037413214,0.365954023,0.328540809,199.9771,199.9771,0,69,69,69,1,0.254239659,0.254239659,shape_difference4,1,,TRUE,,intensity,0.1,0.05,0.7,0.3,0.82,20,400,1E-11,3.5,0.01,0.5,0.1,,,,,,,,,,,,,,,,,,,,,,,,,,,,,,,,,,,,,,,,,,,,,,,,,,,,,,,,,,,,,,,,,,,,,,,,,,,,,,,,,
,,,,,649603,001,2025-03-15_16h48.20.064,Utility_discrimination_2024_2cat,2024.2.4,Win32,60.24096386,,,,,,,,0,"[0.5,0.5]","[1,0]",s,"[0.6734386288474666,0.5718906870655625]","[0.32656137115253336,0.42810931293443755]",199.9787,202.3096,1,s,1,0.8079,,0.214266747,0.544969681,0.330702934,202.3142,202.3142,0,70,70,70,1,0.187704144,0.187704144,shape_difference1,1,,TRUE,,intensity,0.1,0.05,0.7,0.3,0.82,20,400,1E-11,3.5,0.01,0.5,0.1,,,,,,,,,,,,,,,,,,,,,,,,,,,,,,,,,,,,,,,,,,,,,,,,,,,,,,,,,,,,,,,,,,,,,,,,,,,,,,,,,
,,,,,649603,001,2025-03-15_16h48.20.064,Utility_discrimination_2024_2cat,2024.2.4,Win32,60.24096386,,,,,,,,4,"[0.5,0.5]","[0,1]",s,"[0.8619645433921307,0.5]","[0.1380354566078693,0.5]",202.3164,204.6275,1,s,1,0.7852,,0.084113454,0.462997265,0.378883812,204.6312,204.6312,0,71,71,71,1,0.361964543,0.361964543,shape_difference0,1,,TRUE,,intensity,0.1,0.05,0.7,0.3,0.82,20,400,1E-11,3.5,0.01,0.5,0.1,,,,,,,,,,,,,,,,,,,,,,,,,,,,,,,,,,,,,,,,,,,,,,,,,,,,,,,,,,,,,,,,,,,,,,,,,,,,,,,,,
,,,,,649603,001,2025-03-15_16h48.20.064,Utility_discrimination_2024_2cat,2024.2.4,Win32,60.24096386,,,,,,,,3,"[0.5,0.5]","[0.383,0.924]",s,"[0.5,0.7350423343476364]","[0.5,0.2649576656523635]",204.6323,206.9633,1,s,1,0.8043,,-0.028106661,0.289294048,0.317400709,206.967,206.967,0,72,72,72,1,0.235042334,0.235042334,shape_difference4,1,,TRUE,,intensity,0.1,0.05,0.7,0.3,0.82,20,400,1E-11,3.5,0.01,0.5,0.1,,,,,,,,,,,,,,,,,,,,,,,,,,,,,,,,,,,,,,,,,,,,,,,,,,,,,,,,,,,,,,,,,,,,,,,,,,,,,,,,,
,,,,,649603,001,2025-03-15_16h48.20.064,Utility_discrimination_2024_2cat,2024.2.4,Win32,60.24096386,,,,,,,,2,"[0.5,0.5]","[0.707,0.707]",s,"[0.5412168009016033,0.5994368773709698]","[0.4587831990983967,0.40056312262903015]",206.9687,209.4154,1,s,1,0.9191,,0.00906906,0.29492068,0.28585162,209.42,209.4201,0,73,73,73,1,0.107615668,0.107615668,shape_difference3,1,,TRUE,,intensity,0.1,0.05,0.7,0.3,0.82,20,400,1E-11,3.5,0.01,0.5,0.1,,,,,,,,,,,,,,,,,,,,,,,,,,,,,,,,,,,,,,,,,,,,,,,,,,,,,,,,,,,,,,,,,,,,,,,,,,,,,,,,,
,,,,,649603,001,2025-03-15_16h48.20.064,Utility_discrimination_2024_2cat,2024.2.4,Win32,60.24096386,,,,,,,,0,"[0.5,0.5]","[1,0]",s,"[0.6032759941700829,0.6032759941700829]","[0.396724005829917,0.396724005829917]",209.4218,211.7673,0,s,0,0.8198,,0.211902303,0.499744863,0.28784256,211.7717,211.7717,0,74,74,74,1,0.146076371,0.146076371,shape_difference2,1,,TRUE,,intensity,0.1,0.05,0.7,0.3,0.82,20,400,1E-11,3.5,0.01,0.5,0.1,,,,,,,,,,,,,,,,,,,,,,,,,,,,,,,,,,,,,,,,,,,,,,,,,,,,,,,,,,,,,,,,,,,,,,,,,,,,,,,,,
,,,,,649603,001,2025-03-15_16h48.20.064,Utility_discrimination_2024_2cat,2024.2.4,Win32,60.24096386,,,,,,,,3,"[0.5,0.5]","[0.383,0.924]",d,"[0.8513829535113459,0.5]","[0.14861704648865415,0.5]",211.7732,214.0023,0,s,0,0.6998,,-0.042762583,0.267646452,0.310409035,214.0057,214.0058,0,75,75,75,1,0.351382954,0.351382954,shape_difference0,1,,TRUE,,intensity,0.1,0.05,0.7,0.3,0.82,20,400,1E-11,3.5,0.01,0.5,0.1,,,,,,,,,,,,,,,,,,,,,,,,,,,,,,,,,,,,,,,,,,,,,,,,,,,,,,,,,,,,,,,,,,,,,,,,,,,,,,,,,
,,,,,649603,001,2025-03-15_16h48.20.064,Utility_discrimination_2024_2cat,2024.2.4,Win32,60.24096386,,,,,,,,4,"[0.5,0.5]","[0,1]",d,"[0.535733541387123,0.5862083348347302]","[0.46426645861287696,0.41379166516526983]",214.0073,216.1876,1,s,1,0.6588,,0.064998647,0.419933615,0.354934969,216.1911,216.1912,0,76,76,76,1,0.093299064,0.093299064,shape_difference3,1,,TRUE,,intensity,0.1,0.05,0.7,0.3,0.82,20,400,1E-11,3.5,0.01,0.5,0.1,,,,,,,,,,,,,,,,,,,,,,,,,,,,,,,,,,,,,,,,,,,,,,,,,,,,,,,,,,,,,,,,,,,,,,,,,,,,,,,,,
,,,,,649603,001,2025-03-15_16h48.20.064,Utility_discrimination_2024_2cat,2024.2.4,Win32,60.24096386,,,,,,,,1,"[0.5,0.5]","[0.924,0.383]",s,"[0.5,0.7155080242879421]","[0.5,0.28449197571205787]",216.1926,218.4061,1,s,1,0.6907,,0.030370089,0.336436607,0.306066518,218.4104,218.4105,0,77,77,77,1,0.215508024,0.215508024,shape_difference4,1,,TRUE,,intensity,0.1,0.05,0.7,0.3,0.82,20,400,1E-11,3.5,0.01,0.5,0.1,,,,,,,,,,,,,,,,,,,,,,,,,,,,,,,,,,,,,,,,,,,,,,,,,,,,,,,,,,,,,,,,,,,,,,,,,,,,,,,,,
,,,,,649603,001,2025-03-15_16h48.20.064,Utility_discrimination_2024_2cat,2024.2.4,Win32,60.24096386,,,,,,,,2,"[0.5,0.5]","[0.707,0.707]",s,"[0.6647532654910446,0.5682905851548378]","[0.3352467345089553,0.43170941484516223]",218.4119,220.7079,0,s,0,0.7662,,0.019800488,0.347545737,0.327745249,220.7134,220.7134,0,78,78,78,1,0.1783044,0.1783044,shape_difference1,1,,TRUE,,intensity,0.1,0.05,0.7,0.3,0.82,20,400,1E-11,3.5,0.01,0.5,0.1,,,,,,,,,,,,,,,,,,,,,,,,,,,,,,,,,,,,,,,,,,,,,,,,,,,,,,,,,,,,,,,,,,,,,,,,,,,,,,,,,
,,,,,649603,001,2025-03-15_16h48.20.064,Utility_discrimination_2024_2cat,2024.2.4,Win32,60.24096386,,,,,,,,3,"[0.5,0.5]","[0.383,0.924]",d,"[0.6200315553738863,0.6200315553738863]","[0.3799684446261137,0.3799684446261137]",220.7149,223.2099,0,s,0,0.9761,,-0.053628252,0.240211642,0.293839894,223.2133,223.2133,0,79,79,79,1,0.169775892,0.169775892,shape_difference2,1,,TRUE,,intensity,0.1,0.05,0.7,0.3,0.82,20,400,1E-11,3.5,0.01,0.5,0.1,,,,,,,,,,,,,,,,,,,,,,,,,,,,,,,,,,,,,,,,,,,,,,,,,,,,,,,,,,,,,,,,,,,,,,,,,,,,,,,,,
,,,,,649603,001,2025-03-15_16h48.20.064,Utility_discrimination_2024_2cat,2024.2.4,Win32,60.24096386,,,,,,,,0,"[0.5,0.5]","[1,0]",d,"[0.5322107182728448,0.5777094090968894]","[0.46778928172715517,0.4222905909031106]",223.2147,225.3616,0,s,0,0.6202,,0.244893783,0.593498048,0.348604265,225.3661,225.3661,0,80,80,80,1,0.084101092,0.084101092,shape_difference3,1,,TRUE,,intensity,0.1,0.05,0.7,0.3,0.82,20,400,1E-11,3.5,0.01,0.5,0.1,,,,,,,,,,,,,,,,,,,,,,,,,,,,,,,,,,,,,,,,,,,,,,,,,,,,,,,,,,,,,,,,,,,,,,,,,,,,,,,,,
,,,,,649603,001,2025-03-15_16h48.20.064,Utility_discrimination_2024_2cat,2024.2.4,Win32,60.24096386,,,,,,,,2,"[0.5,0.5]","[0.707,0.707]",d,"[0.8963589696626116,0.5]","[0.10364103033738836,0.5]",225.3691,228.1809,0,d,0,1.2866,,0.076771488,0.4310403,0.354268812,228.1843,228.1843,0,81,81,81,1,0.39635897,0.39635897,shape_difference0,1,,TRUE,,intensity,0.1,0.05,0.7,0.3,0.82,20,400,1E-11,3.5,0.01,0.5,0.1,,,,,,,,,,,,,,,,,,,,,,,,,,,,,,,,,,,,,,,,,,,,,,,,,,,,,,,,,,,,,,,,,,,,,,,,,,,,,,,,,
,,,,,649603,001,2025-03-15_16h48.20.064,Utility_discrimination_2024_2cat,2024.2.4,Win32,60.24096386,,,,,,,,1,"[0.5,0.5]","[0.924,0.383]",s,"[0.6546269669267143,0.6546269669267143]","[0.3453730330732857,0.3453730330732857]",228.1858,231.4668,1,s,1,1.7526,,0.102178175,0.393759928,0.291581753,231.4713,231.4713,0,82,82,82,1,0.218708581,0.218708581,shape_difference2,1,,TRUE,,intensity,0.1,0.05,0.7,0.3,0.82,20,400,1E-11,3.5,0.01,0.5,0.1,,,,,,,,,,,,,,,,,,,,,,,,,,,,,,,,,,,,,,,,,,,,,,,,,,,,,,,,,,,,,,,,,,,,,,,,,,,,,,,,,
,,,,,649603,001,2025-03-15_16h48.20.064,Utility_discrimination_2024_2cat,2024.2.4,Win32,60.24096386,,,,,,,,4,"[0.5,0.5]","[0,1]",s,"[0.7037749664755127,0.5844651646754561]","[0.29622503352448726,0.41553483532454394]",231.4729,234.1025,1,s,1,1.1063,,0.051341204,0.387242077,0.335900873,234.1059,234.106,0,83,83,83,1,0.220535678,0.220535678,shape_difference1,1,,TRUE,,intensity,0.1,0.05,0.7,0.3,0.82,20,400,1E-11,3.5,0.01,0.5,0.1,,,,,,,,,,,,,,,,,,,,,,,,,,,,,,,,,,,,,,,,,,,,,,,,,,,,,,,,,,,,,,,,,,,,,,,,,,,,,,,,,
,,,,,649603,001,2025-03-15_16h48.20.064,Utility_discrimination_2024_2cat,2024.2.4,Win32,60.24096386,,,,,,,,1,"[0.5,0.5]","[0.924,0.383]",s,"[0.5,0.6966966036190925]","[0.5,0.3033033963809075]",234.1078,236.4879,1,d,1,0.8538,,0.099445046,0.375546295,0.27610125,236.4938,236.4939,0,84,84,84,1,0.196696604,0.196696604,shape_difference4,1,,TRUE,,intensity,0.1,0.05,0.7,0.3,0.82,20,400,1E-11,3.5,0.01,0.5,0.1,,,,,,,,,,,,,,,,,,,,,,,,,,,,,,,,,,,,,,,,,,,,,,,,,,,,,,,,,,,,,,,,,,,,,,,,,,,,,,,,,
,,,,,649603,001,2025-03-15_16h48.20.064,Utility_discrimination_2024_2cat,2024.2.4,Win32,60.24096386,,,,,,,,2,"[0.5,0.5]","[0.707,0.707]",d,"[0.6878853680889422,0.5778788917511525]","[0.3121146319110578,0.4221211082488475]",236.4962,238.6896,0,s,0,0.6698,,0.060481371,0.391718902,0.331237531,238.693,238.6931,0,85,85,85,1,0.203339143,0.203339143,shape_difference1,1,,TRUE,,intensity,0.1,0.05,0.7,0.3,0.82,20,400,1E-11,3.5,0.01,0.5,0.1,,,,,,,,,,,,,,,,,,,,,,,,,,,,,,,,,,,,,,,,,,,,,,,,,,,,,,,,,,,,,,,,,,,,,,,,,,,,,,,,,
,,,,,649603,001,2025-03-15_16h48.20.064,Utility_discrimination_2024_2cat,2024.2.4,Win32,60.24096386,,,,,,,,4,"[0.5,0.5]","[0,1]",d,"[0.6404816256156611,0.6404816256156611]","[0.35951837438433887,0.35951837438433887]",238.6955,241.4919,1,s,1,1.2756,,0.041370208,0.363106893,0.321736686,241.4964,241.4964,0,86,86,86,1,0.198701026,0.198701026,shape_difference2,1,,TRUE,,intensity,0.1,0.05,0.7,0.3,0.82,20,400,1E-11,3.5,0.01,0.5,0.1,,,,,,,,,,,,,,,,,,,,,,,,,,,,,,,,,,,,,,,,,,,,,,,,,,,,,,,,,,,,,,,,,,,,,,,,,,,,,,,,,
,,,,,649603,001,2025-03-15_16h48.20.064,Utility_discrimination_2024_2cat,2024.2.4,Win32,60.24096386,,,,,,,,0,"[0.5,0.5]","[1,0]",s,"[0.5,0.6860797782135635]","[0.5,0.3139202217864365]",241.4983,244.7945,1,s,1,1.769,,0.306540011,0.671607128,0.365067116,244.7983,244.7983,0,87,87,87,1,0.186079778,0.186079778,shape_difference4,1,,TRUE,,intensity,0.1,0.05,0.7,0.3,0.82,20,400,1E-11,3.5,0.01,0.5,0.1,,,,,,,,,,,,,,,,,,,,,,,,,,,,,,,,,,,,,,,,,,,,,,,,,,,,,,,,,,,,,,,,,,,,,,,,,,,,,,,,,
,,,,,649603,001,2025-03-15_16h48.20.064,Utility_discrimination_2024_2cat,2024.2.4,Win32,60.24096386,,,,,,,,3,"[0.5,0.5]","[0.383,0.924]",s,"[0.9510866508841475,0.5]","[0.048913349115852545,0.5]",244.8011,247.4633,1,d,1,1.1416,,0.005100201,0.292598605,0.287498404,247.4681,247.4682,0,88,88,88,1,0.451086651,0.451086651,shape_difference0,1,,TRUE,,intensity,0.1,0.05,0.7,0.3,0.82,20,400,1E-11,3.5,0.01,0.5,0.1,,,,,,,,,,,,,,,,,,,,,,,,,,,,,,,,,,,,,,,,,,,,,,,,,,,,,,,,,,,,,,,,,,,,,,,,,,,,,,,,,
,,,,,649603,001,2025-03-15_16h48.20.064,Utility_discrimination_2024_2cat,2024.2.4,Win32,60.24096386,,,,,,,,0,"[0.5,0.5]","[1,0]",d,"[0.5477457423588489,0.6151881617221315]","[0.4522542576411511,0.38481183827786847]",247.4698,252.5679,1,s,1,3.5746,,0.304625507,0.628726199,0.324100692,252.5723,252.5723,0,89,89,89,1,0.124662513,0.124662513,shape_difference3,1,,TRUE,,intensity,0.1,0.05,0.7,0.3,0.82,20,400,1E-11,3.5,0.01,0.5,0.1,,,,,,,,,,,,,,,,,,,,,,,,,,,,,,,,,,,,,,,,,,,,,,,,,,,,,,,,,,,,,,,,,,,,,,,,,,,,,,,,,
,,,,,649603,001,2025-03-15_16h48.20.064,Utility_discrimination_2024_2cat,2024.2.4,Win32,60.24096386,,,,,,,,2,"[0.5,0.5]","[0.707,0.707]",s,"[0.9352336024182066,0.5]","[0.06476639758179337,0.5]",252.574,254.9693,1,s,1,0.8665,,0.048629258,0.368342804,0.319713545,254.9731,254.9732,0,90,90,90,1,0.435233602,0.435233602,shape_difference0,1,,TRUE,,intensity,0.1,0.05,0.7,0.3,0.82,20,400,1E-11,3.5,0.01,0.5,0.1,,,,,,,,,,,,,,,,,,,,,,,,,,,,,,,,,,,,,,,,,,,,,,,,,,,,,,,,,,,,,,,,,,,,,,,,,,,,,,,,,
,,,,,649603,001,2025-03-15_16h48.20.064,Utility_discrimination_2024_2cat,2024.2.4,Win32,60.24096386,,,,,,,,3,"[0.5,0.5]","[0.383,0.924]",s,"[0.63294839065314,0.63294839065314]","[0.36705160934686,0.36705160934686]",254.9747,257.1715,1,d,1,0.6678,,0.003237054,0.27472422,0.271487165,257.176,257.176,0,91,91,91,1,0.188045814,0.188045814,shape_difference2,1,,TRUE,,intensity,0.1,0.05,0.7,0.3,0.82,20,400,1E-11,3.5,0.01,0.5,0.1,,,,,,,,,,,,,,,,,,,,,,,,,,,,,,,,,,,,,,,,,,,,,,,,,,,,,,,,,,,,,,,,,,,,,,,,,,,,,,,,,
,,,,,649603,001,2025-03-15_16h48.20.064,Utility_discrimination_2024_2cat,2024.2.4,Win32,60.24096386,,,,,,,,4,"[0.5,0.5]","[0,1]",d,"[0.5418297344009845,0.6009155994425839]","[0.4581702655990155,0.3990844005574161]",257.1776,260.391,0,s,0,1.6854,,0.033937933,0.332028397,0.298090464,260.3944,260.3944,0,92,92,92,1,0.109216017,0.109216017,shape_difference3,1,,TRUE,,intensity,0.1,0.05,0.7,0.3,0.82,20,400,1E-11,3.5,0.01,0.5,0.1,,,,,,,,,,,,,,,,,,,,,,,,,,,,,,,,,,,,,,,,,,,,,,,,,,,,,,,,,,,,,,,,,,,,,,,,,,,,,,,,,
,,,,,649603,001,2025-03-15_16h48.20.064,Utility_discrimination_2024_2cat,2024.2.4,Win32,60.24096386,,,,,,,,1,"[0.5,0.5]","[0.924,0.383]",d,"[0.5,0.6774227404436161]","[0.5,0.32257725955638394]",260.396,262.5592,1,s,1,0.6334,,0.109969615,0.428930795,0.31896118,262.5632,262.5633,0,93,93,93,1,0.17742274,0.17742274,shape_difference4,1,,TRUE,,intensity,0.1,0.05,0.7,0.3,0.82,20,400,1E-11,3.5,0.01,0.5,0.1,,,,,,,,,,,,,,,,,,,,,,,,,,,,,,,,,,,,,,,,,,,,,,,,,,,,,,,,,,,,,,,,,,,,,,,,,,,,,,,,,
,,,,,649603,001,2025-03-15_16h48.20.064,Utility_discrimination_2024_2cat,2024.2.4,Win32,60.24096386,,,,,,,,0,"[0.5,0.5]","[1,0]",s,"[0.7270310471136716,0.5941048604378097]","[0.2729689528863284,0.40589513956219025]",262.5648,264.9448,1,s,1,0.8501,,0.302321002,0.594549588,0.292228586,264.9479,264.9479,0,94,94,94,1,0.245704596,0.245704596,shape_difference1,1,,TRUE,,intensity,0.1,0.05,0.7,0.3,0.82,20,400,1E-11,3.5,0.01,0.5,0.1,,,,,,,,,,,,,,,,,,,,,,,,,,,,,,,,,,,,,,,,,,,,,,,,,,,,,,,,,,,,,,,,,,,,,,,,,,,,,,,,,
,,,,,649603,001,2025-03-15_16h48.20.064,Utility_discrimination_2024_2cat,2024.2.4,Win32,60.24096386,,,,,,,,3,"[0.5,0.5]","[0.383,0.924]",s,"[0.9188868040712891,0.5]","[0.08111319592871091,0.5]",264.9495,267.1798,0,s,0,0.7038,,0.011250126,0.324304768,0.313054642,267.1833,267.1833,0,95,95,95,1,0.418886804,0.418886804,shape_difference0,1,,TRUE,,intensity,0.1,0.05,0.7,0.3,0.82,20,400,1E-11,3.5,0.01,0.5,0.1,,,,,,,,,,,,,,,,,,,,,,,,,,,,,,,,,,,,,,,,,,,,,,,,,,,,,,,,,,,,,,,,,,,,,,,,,,,,,,,,,
,,,,,649603,001,2025-03-15_16h48.20.064,Utility_discrimination_2024_2cat,2024.2.4,Win32,60.24096386,,,,,,,,4,"[0.5,0.5]","[0,1]",d,"[0.5562840480634128,0.6357871028997218]","[0.4437159519365872,0.36421289710027815]",267.1857,269.5819,1,s,1,0.8659,,0.028288376,0.298295469,0.270007093,269.5858,269.5859,0,96,96,96,1,0.146955739,0.146955739,shape_difference3,1,,TRUE,,intensity,0.1,0.05,0.7,0.3,0.82,20,400,1E-11,3.5,0.01,0.5,0.1,,,,,,,,,,,,,,,,,,,,,,,,,,,,,,,,,,,,,,,,,,,,,,,,,,,,,,,,,,,,,,,,,,,,,,,,,,,,,,,,,
,,,,,649603,001,2025-03-15_16h48.20.064,Utility_discrimination_2024_2cat,2024.2.4,Win32,60.24096386,,,,,,,,1,"[0.5,0.5]","[0.924,0.383]",s,"[0.5,0.670155637858089]","[0.5,0.32984436214191104]",269.5876,271.7331,1,d,1,0.6261,,0.10797218,0.395257533,0.287285353,271.7362,271.7363,0,97,97,97,1,0.170155638,0.170155638,shape_difference4,1,,TRUE,,intensity,0.1,0.05,0.7,0.3,0.82,20,400,1E-11,3.5,0.01,0.5,0.1,,,,,,,,,,,,,,,,,,,,,,,,,,,,,,,,,,,,,,,,,,,,,,,,,,,,,,,,,,,,,,,,,,,,,,,,,,,,,,,,,
,,,,,649603,001,2025-03-15_16h48.20.064,Utility_discrimination_2024_2cat,2024.2.4,Win32,60.24096386,,,,,,,,2,"[0.5,0.5]","[0.707,0.707]",d,"[0.7153509120057752,0.589263419153909]","[0.28464908799422484,0.41073658084609105]",271.7388,274.0024,1,s,1,0.7394,,0.039824305,0.33857312,0.298748815,274.0058,274.0058,0,98,98,98,1,0.233063758,0.233063758,shape_difference1,1,,TRUE,,intensity,0.1,0.05,0.7,0.3,0.82,20,400,1E-11,3.5,0.01,0.5,0.1,,,,,,,,,,,,,,,,,,,,,,,,,,,,,,,,,,,,,,,,,,,,,,,,,,,,,,,,,,,,,,,,,,,,,,,,,,,,,,,,,
,,,,,649603,001,2025-03-15_16h48.20.064,Utility_discrimination_2024_2cat,2024.2.4,Win32,60.24096386,,,,,,,,3,"[0.5,0.5]","[0.383,0.924]",s,"[0.6268689481524996,0.6268689481524996]","[0.3731310518475004,0.3731310518475004]",274.0078,277.0544,0,s,0,1.5186,,0.009327917,0.29356672,0.284238804,277.0578,277.0578,0,99,99,99,1,0.179446886,0.179446886,shape_difference2,1,,TRUE,,intensity,0.1,0.05,0.7,0.3,0.82,20,400,1E-11,3.5,0.01,0.5,0.1,,,,,,,,,,,,,,,,,,,,,,,,,,,,,,,,,,,,,,,,,,,,,,,,,,,,,,,,,,,,,,,,,,,,,,,,,,,,,,,,,
,,,,,649603,001,2025-03-15_16h48.20.064,Utility_discrimination_2024_2cat,2024.2.4,Win32,60.24096386,,,,,,,,1,"[0.5,0.5]","[0.924,0.383]",d,"[0.551823436778406,0.6250257325933344]","[0.44817656322159405,0.37497426740666556]",277.0592,279.3068,1,d,1,0.7186,,0.106276732,0.379671349,0.273394618,279.3112,279.3113,0,100,100,100,1,0.135309234,0.135309234,shape_difference3,1,,TRUE,,intensity,0.1,0.05,0.7,0.3,0.82,20,400,1E-11,3.5,0.01,0.5,0.1,,,,,,,,,,,,,,,,,,,,,,,,,,,,,,,,,,,,,,,,,,,,,,,,,,,,,,,,,,,,,,,,,,,,,,,,,,,,,,,,,
,,,,,649603,001,2025-03-15_16h48.20.064,Utility_discrimination_2024_2cat,2024.2.4,Win32,60.24096386,,,,,,,,0,"[0.5,0.5]","[1,0]",d,"[0.7027885165767674,0.5840562790572532]","[0.29721148342323256,0.41594372094274684]",279.313,281.6919,1,d,1,0.8586,,0.312199862,0.661041198,0.348841336,281.6956,281.6956,0,101,101,101,1,0.219468092,0.219468092,shape_difference1,1,,TRUE,,intensity,0.1,0.05,0.7,0.3,0.82,20,400,1E-11,3.5,0.01,0.5,0.1,,,,,,,,,,,,,,,,,,,,,,,,,,,,,,,,,,,,,,,,,,,,,,,,,,,,,,,,,,,,,,,,,,,,,,,,,,,,,,,,,
,,,,,649603,001,2025-03-15_16h48.20.064,Utility_discrimination_2024_2cat,2024.2.4,Win32,60.24096386,,,,,,,,4,"[0.5,0.5]","[0,1]",d,"[0.9579729293426852,0.5]","[0.04202707065731481,0.5]",281.6975,283.8438,1,s,1,0.6225,,0.023915124,0.289574509,0.265659385,283.8467,283.8467,0,102,102,102,1,0.457972929,0.457972929,shape_difference0,1,,TRUE,,intensity,0.1,0.05,0.7,0.3,0.82,20,400,1E-11,3.5,0.01,0.5,0.1,,,,,,,,,,,,,,,,,,,,,,,,,,,,,,,,,,,,,,,,,,,,,,,,,,,,,,,,,,,,,,,,,,,,,,,,,,,,,,,,,
,,,,,649603,001,2025-03-15_16h48.20.064,Utility_discrimination_2024_2cat,2024.2.4,Win32,60.24096386,,,,,,,,2,"[0.5,0.5]","[0.707,0.707]",s,"[0.5,0.6638538039951385]","[0.5,0.3361461960048615]",283.8491,286.0785,1,d,1,0.7042,,0.103755229,0.395738262,0.291983033,286.0821,286.0821,0,103,103,103,1,0.163853804,0.163853804,shape_difference4,1,,TRUE,,intensity,0.1,0.05,0.7,0.3,0.82,20,400,1E-11,3.5,0.01,0.5,0.1,,,,,,,,,,,,,,,,,,,,,,,,,,,,,,,,,,,,,,,,,,,,,,,,,,,,,,,,,,,,,,,,,,,,,,,,,,,,,,,,,
,,,,,649603,001,2025-03-15_16h48.20.064,Utility_discrimination_2024_2cat,2024.2.4,Win32,60.24096386,,,,,,,,4,"[0.5,0.5]","[0,1]",d,"[0.6542565722311849,0.6542565722311849]","[0.34574342776881506,0.34574342776881506]",286.0837,288.414,1,d,1,0.8001,,0.020473075,0.28016564,0.259692566,288.4171,288.4171,0,104,104,104,1,0.218184685,0.218184685,shape_difference2,1,,TRUE,,intensity,0.1,0.05,0.7,0.3,0.82,20,400,1E-11,3.5,0.01,0.5,0.1,,,,,,,,,,,,,,,,,,,,,,,,,,,,,,,,,,,,,,,,,,,,,,,,,,,,,,,,,,,,,,,,,,,,,,,,,,,,,,,,,
,,,,,649603,001,2025-03-15_16h48.20.064,Utility_discrimination_2024_2cat,2024.2.4,Win32,60.24096386,,,,,,,,2,"[0.5,0.5]","[0.707,0.707]",d,"[0.5,0.658192595314145]","[0.5,0.34180740468585497]",288.4191,290.6327,1,d,1,0.6829,,0.101862854,0.376699825,0.274836971,290.6367,290.6368,0,105,105,105,1,0.158192595,0.158192595,shape_difference4,1,,TRUE,,intensity,0.1,0.05,0.7,0.3,0.82,20,400,1E-11,3.5,0.01,0.5,0.1,,,,,,,,,,,,,,,,,,,,,,,,,,,,,,,,,,,,,,,,,,,,,,,,,,,,,,,,,,,,,,,,,,,,,,,,,,,,,,,,,
,,,,,649603,001,2025-03-15_16h48.20.064,Utility_discrimination_2024_2cat,2024.2.4,Win32,60.24096386,,,,,,,,3,"[0.5,0.5]","[0.383,0.924]",d,"[0.6417267708941241,0.6417267708941241]","[0.3582732291058759,0.3582732291058759]",290.6383,293.0178,1,d,1,0.8497,,0.007739534,0.278019898,0.270280363,293.0216,293.0217,0,106,106,106,1,0.200462194,0.200462194,shape_difference2,1,,TRUE,,intensity,0.1,0.05,0.7,0.3,0.82,20,400,1E-11,3.5,0.01,0.5,0.1,,,,,,,,,,,,,,,,,,,,,,,,,,,,,,,,,,,,,,,,,,,,,,,,,,,,,,,,,,,,,,,,,,,,,,,,,,,,,,,,,
,,,,,649603,001,2025-03-15_16h48.20.064,Utility_discrimination_2024_2cat,2024.2.4,Win32,60.24096386,,,,,,,,1,"[0.5,0.5]","[0.924,0.383]",d,"[0.5470417707426433,0.6134898072224605]","[0.45295822925735674,0.3865101927775395]",293.024,295.3031,0,d,0,0.7514,,0.104781171,0.360699719,0.255918548,295.3072,295.3072,0,107,107,107,1,0.122824467,0.122824467,shape_difference3,1,,TRUE,,intensity,0.1,0.05,0.7,0.3,0.82,20,400,1E-11,3.5,0.01,0.5,0.1,,,,,,,,,,,,,,,,,,,,,,,,,,,,,,,,,,,,,,,,,,,,,,,,,,,,,,,,,,,,,,,,,,,,,,,,,,,,,,,,,
,,,,,649603,001,2025-03-15_16h48.20.064,Utility_discrimination_2024_2cat,2024.2.4,Win32,60.24096386,,,,,,,,0,"[0.5,0.5]","[1,0]",s,"[0.6888685854326201,0.578286437468283]","[0.3111314145673799,0.421713562531717]",295.3089,297.6217,1,d,1,0.7922,,0.310200329,0.618087962,0.307887633,297.6251,297.6253,0,108,108,108,1,0.204403231,0.204403231,shape_difference1,1,,TRUE,,intensity,0.1,0.05,0.7,0.3,0.82,20,400,1E-11,3.5,0.01,0.5,0.1,,,,,,,,,,,,,,,,,,,,,,,,,,,,,,,,,,,,,,,,,,,,,,,,,,,,,,,,,,,,,,,,,,,,,,,,,,,,,,,,,
,,,,,649603,001,2025-03-15_16h48.20.064,Utility_discrimination_2024_2cat,2024.2.4,Win32,60.24096386,,,,,,,,3,"[0.5,0.5]","[0.383,0.924]",d,"[0.9451936377003094,0.5]","[0.0548063622996906,0.5]",297.6267,300.4239,1,d,1,1.2682,,0.0139531,0.320746889,0.306793789,300.4279,300.428,0,109,109,109,1,0.445193638,0.445193638,shape_difference0,1,,TRUE,,intensity,0.1,0.05,0.7,0.3,0.82,20,400,1E-11,3.5,0.01,0.5,0.1,,,,,,,,,,,,,,,,,,,,,,,,,,,,,,,,,,,,,,,,,,,,,,,,,,,,,,,,,,,,,,,,,,,,,,,,,,,,,,,,,
,,,,,649603,001,2025-03-15_16h48.20.064,Utility_discrimination_2024_2cat,2024.2.4,Win32,60.24096386,,,,,,,,2,"[0.5,0.5]","[0.707,0.707]",d,"[0.5585034117632178,0.6411413902590424]","[0.4414965882367822,0.35885860974095757]",300.4296,302.8089,1,d,1,0.8447,,0.10004956,0.35317574,0.25312618,302.8123,302.8123,0,110,110,110,1,0.152750422,0.152750422,shape_difference3,1,,TRUE,,intensity,0.1,0.05,0.7,0.3,0.82,20,400,1E-11,3.5,0.01,0.5,0.1,,,,,,,,,,,,,,,,,,,,,,,,,,,,,,,,,,,,,,,,,,,,,,,,,,,,,,,,,,,,,,,,,,,,,,,,,,,,,,,,,
,,,,,649603,001,2025-03-15_16h48.20.064,Utility_discrimination_2024_2cat,2024.2.4,Win32,60.24096386,,,,,,,,4,"[0.5,0.5]","[0,1]",d,"[0.634979693926961,0.634979693926961]","[0.36502030607303904,0.36502030607303904]",302.814,305.1117,1,d,1,0.7679,,0.017722918,0.269565518,0.2518426,305.1153,305.1153,0,111,111,111,1,0.190918945,0.190918945,shape_difference2,1,,TRUE,,intensity,0.1,0.05,0.7,0.3,0.82,20,400,1E-11,3.5,0.01,0.5,0.1,,,,,,,,,,,,,,,,,,,,,,,,,,,,,,,,,,,,,,,,,,,,,,,,,,,,,,,,,,,,,,,,,,,,,,,,,,,,,,,,,
,,,,,649603,001,2025-03-15_16h48.20.064,Utility_discrimination_2024_2cat,2024.2.4,Win32,60.24096386,,,,,,,,1,"[0.5,0.5]","[0.924,0.383]",d,"[0.5,0.6529160528777964]","[0.5,0.34708394712220353]",305.1173,314.3192,1,s,1,7.6729,,0.103407486,0.33687123,0.233463744,314.3244,314.3244,0,112,112,112,1,0.152916053,0.152916053,shape_difference4,1,,TRUE,,intensity,0.1,0.05,0.7,0.3,0.82,20,400,1E-11,3.5,0.01,0.5,0.1,,,,,,,,,,,,,,,,,,,,,,,,,,,,,,,,,,,,,,,,,,,,,,,,,,,,,,,,,,,,,,,,,,,,,,,,,,,,,,,,,
,,,,,649603,001,2025-03-15_16h48.20.064,Utility_discrimination_2024_2cat,2024.2.4,Win32,60.24096386,,,,,,,,0,"[0.5,0.5]","[1,0]",s,"[0.6788729758011955,0.5741432356405388]","[0.3211270241988045,0.4258567643594612]",314.3262,316.8208,1,s,1,0.9672,,0.308282347,0.592614871,0.284332524,316.8247,316.8248,0,113,113,113,1,0.193585472,0.193585472,shape_difference1,1,,TRUE,,intensity,0.1,0.05,0.7,0.3,0.82,20,400,1E-11,3.5,0.01,0.5,0.1,,,,,,,,,,,,,,,,,,,,,,,,,,,,,,,,,,,,,,,,,,,,,,,,,,,,,,,,,,,,,,,,,,,,,,,,,,,,,,,,,
,,,,,649603,001,2025-03-15_16h48.20.064,Utility_discrimination_2024_2cat,2024.2.4,Win32,60.24096386,,,,,,,,0,"[0.5,0.5]","[1,0]",s,"[0.9326032118803114,0.5]","[0.06739678811968863,0.5]",316.8264,319.0396,1,s,1,0.6927,,0.306665501,0.577659858,0.270994357,319.0431,319.0431,0,114,114,114,1,0.432603212,0.432603212,shape_difference0,1,,TRUE,,intensity,0.1,0.05,0.7,0.3,0.82,20,400,1E-11,3.5,0.01,0.5,0.1,,,,,,,,,,,,,,,,,,,,,,,,,,,,,,,,,,,,,,,,,,,,,,,,,,,,,,,,,,,,,,,,,,,,,,,,,,,,,,,,,
,,,,,649603,001,2025-03-15_16h48.20.064,Utility_discrimination_2024_2cat,2024.2.4,Win32,60.24096386,,,,,,,,1,"[0.5,0.5]","[0.924,0.383]",s,"[0.9190277586843139,0.5]","[0.08097224131568614,0.5]",319.0447,321.2917,1,s,1,0.7172,,0.102093942,0.30615947,0.204065528,321.2957,321.2957,0,115,115,115,1,0.419027759,0.419027759,shape_difference0,1,,TRUE,,intensity,0.1,0.05,0.7,0.3,0.82,20,400,1E-11,3.5,0.01,0.5,0.1,,,,,,,,,,,,,,,,,,,,,,,,,,,,,,,,,,,,,,,,,,,,,,,,,,,,,,,,,,,,,,,,,,,,,,,,,,,,,,,,,
,,,,,649603,001,2025-03-15_16h48.20.064,Utility_discrimination_2024_2cat,2024.2.4,Win32,60.24096386,,,,,,,,3,"[0.5,0.5]","[0.383,0.924]",s,"[0.6721511352865079,0.5713570181977625]","[0.327848864713492,0.4286429818022375]",321.2973,323.5599,1,s,1,0.7441,,0.012132469,0.290037845,0.277905377,323.5635,323.5636,0,116,116,116,1,0.186310752,0.186310752,shape_difference1,1,,TRUE,,intensity,0.1,0.05,0.7,0.3,0.82,20,400,1E-11,3.5,0.01,0.5,0.1,,,,,,,,,,,,,,,,,,,,,,,,,,,,,,,,,,,,,,,,,,,,,,,,,,,,,,,,,,,,,,,,,,,,,,,,,,,,,,,,,
,,,,,649603,001,2025-03-15_16h48.20.064,Utility_discrimination_2024_2cat,2024.2.4,Win32,60.24096386,,,,,,,,2,"[0.5,0.5]","[0.707,0.707]",s,"[0.5548154078460978,0.6322439604433273]","[0.4451845921539022,0.3677560395566727]",323.5652,326.0121,1,d,1,0.9274,,0.081747581,0.323147871,0.24140029,326.0172,326.0172,0,117,117,117,1,0.143121169,0.143121169,shape_difference3,1,,TRUE,,intensity,0.1,0.05,0.7,0.3,0.82,20,400,1E-11,3.5,0.01,0.5,0.1,,,,,,,,,,,,,,,,,,,,,,,,,,,,,,,,,,,,,,,,,,,,,,,,,,,,,,,,,,,,,,,,,,,,,,,,,,,,,,,,,
,,,,,649603,001,2025-03-15_16h48.20.064,Utility_discrimination_2024_2cat,2024.2.4,Win32,60.24096386,,,,,,,,4,"[0.5,0.5]","[0,1]",d,"[0.6297057672793991,0.6297057672793991]","[0.3702942327206009,0.3702942327206009]",326.0188,328.3304,1,s,1,0.784,,0.015495782,0.25716622,0.241670438,328.3339,328.334,0,118,118,118,1,0.18345936,0.18345936,shape_difference2,1,,TRUE,,intensity,0.1,0.05,0.7,0.3,0.82,20,400,1E-11,3.5,0.01,0.5,0.1,,,,,,,,,,,,,,,,,,,,,,,,,,,,,,,,,,,,,,,,,,,,,,,,,,,,,,,,,,,,,,,,,,,,,,,,,,,,,,,,,
,,,,,649603,001,2025-03-15_16h48.20.064,Utility_discrimination_2024_2cat,2024.2.4,Win32,60.24096386,,,,,,,,0,"[0.5,0.5]","[1,0]",s,"[0.5,0.6478148428107133]","[0.5,0.35218515718928667]",328.3356,331.0492,1,d,1,1.1924,,0.305252001,0.559331577,0.254079576,331.0537,331.0537,0,119,119,119,1,0.147814843,0.147814843,shape_difference4,1,,TRUE,,intensity,0.1,0.05,0.7,0.3,0.82,20,400,1E-11,3.5,0.01,0.5,0.1,,,,,,,,,,,,,,,,,,,,,,,,,,,,,,,,,,,,,,,,,,,,,,,,,,,,,,,,,,,,,,,,,,,,,,,,,,,,,,,,,
,,,,,649603,001,2025-03-15_16h48.20.064,Utility_discrimination_2024_2cat,2024.2.4,Win32,60.24096386,,,,,,,,2,"[0.5,0.5]","[0.707,0.707]",d,"[0.9039652054285541,0.5]","[0.09603479457144593,0.5]",331.0555,336.7876,1,s,1,4.2074,,0.067351779,0.29746719,0.23011541,336.7918,336.7918,0,120,120,120,1,0.403965205,0.403965205,shape_difference0,1,,TRUE,,intensity,0.1,0.05,0.7,0.3,0.82,20,400,1E-11,3.5,0.01,0.5,0.1,,,,,,,,,,,,,,,,,,,,,,,,,,,,,,,,,,,,,,,,,,,,,,,,,,,,,,,,,,,,,,,,,,,,,,,,,,,,,,,,,
,,,,,649603,001,2025-03-15_16h48.20.064,Utility_discrimination_2024_2cat,2024.2.4,Win32,60.24096386,,,,,,,,3,"[0.5,0.5]","[0.383,0.924]",s,"[0.6254179930354176,0.6254179930354176]","[0.3745820069645824,0.3745820069645824]",336.7934,339.1229,1,d,1,0.8036,,0.010469383,0.276369264,0.265899881,339.1258,339.1259,0,121,121,121,1,0.177394615,0.177394615,shape_difference2,1,,TRUE,,intensity,0.1,0.05,0.7,0.3,0.82,20,400,1E-11,3.5,0.01,0.5,0.1,,,,,,,,,,,,,,,,,,,,,,,,,,,,,,,,,,,,,,,,,,,,,,,,,,,,,,,,,,,,,,,,,,,,,,,,,,,,,,,,,
,,,,,649603,001,2025-03-15_16h48.20.064,Utility_discrimination_2024_2cat,2024.2.4,Win32,60.24096386,,,,,,,,1,"[0.5,0.5]","[0.924,0.383]",d,"[0.5510119463086804,0.6230679853504458]","[0.44898805369131956,0.3769320146495542]",339.1276,341.3916,1,d,1,0.7327,,0.100789591,0.295495212,0.194705622,341.3946,341.3946,0,122,122,122,1,0.13319046,0.13319046,shape_difference3,1,,TRUE,,intensity,0.1,0.05,0.7,0.3,0.82,20,400,1E-11,3.5,0.01,0.5,0.1,,,,,,,,,,,,,,,,,,,,,,,,,,,,,,,,,,,,,,,,,,,,,,,,,,,,,,,,,,,,,,,,,,,,,,,,,,,,,,,,,
,,,,,649603,001,2025-03-15_16h48.20.064,Utility_discrimination_2024_2cat,2024.2.4,Win32,60.24096386,,,,,,,,4,"[0.5,0.5]","[0,1]",d,"[0.6666988214598414,0.5690970223150641]","[0.3333011785401586,0.4309029776849359]",341.3962,343.8098,1,d,1,0.8827,,0.013262505,0.244364726,0.231102221,343.8129,343.8129,0,123,123,123,1,0.18040998,0.18040998,shape_difference1,1,,TRUE,,intensity,0.1,0.05,0.7,0.3,0.82,20,400,1E-11,3.5,0.01,0.5,0.1,,,,,,,,,,,,,,,,,,,,,,,,,,,,,,,,,,,,,,,,,,,,,,,,,,,,,,,,,,,,,,,,,,,,,,,,,,,,,,,,,
,,,,,649603,001,2025-03-15_16h48.20.064,Utility_discrimination_2024_2cat,2024.2.4,Win32,60.24096386,,,,,,,,3,"[0.5,0.5]","[0.383,0.924]",d,"[0.5,0.6421037047417641]","[0.5,0.35789629525823585]",343.8144,345.9782,1,d,1,0.6396,,0.009123107,0.259886044,0.250762937,345.9832,345.9832,0,124,124,124,1,0.142103705,0.142103705,shape_difference4,1,,TRUE,,intensity,0.1,0.05,0.7,0.3,0.82,20,400,1E-11,3.5,0.01,0.5,0.1,,,,,,,,,,,,,,,,,,,,,,,,,,,,,,,,,,,,,,,,,,,,,,,,,,,,,,,,,,,,,,,,,,,,,,,,,,,,,,,,,
,,,,,649603,001,2025-03-15_16h48.20.064,Utility_discrimination_2024_2cat,2024.2.4,Win32,60.24096386,,,,,,,,2,"[0.5,0.5]","[0.707,0.707]",d,"[0.546859866076697,0.613050956279029]","[0.45314013392330293,0.38694904372097105]",345.9846,348.2473,0,s,0,0.7338,,0.056174837,0.290674569,0.234499732,348.2514,348.2515,0,125,125,125,1,0.12234952,0.12234952,shape_difference3,1,,TRUE,,intensity,0.1,0.05,0.7,0.3,0.82,20,400,1E-11,3.5,0.01,0.5,0.1,,,,,,,,,,,,,,,,,,,,,,,,,,,,,,,,,,,,,,,,,,,,,,,,,,,,,,,,,,,,,,,,,,,,,,,,,,,,,,,,,
,,,,,649603,001,2025-03-15_16h48.20.064,Utility_discrimination_2024_2cat,2024.2.4,Win32,60.24096386,,,,,,,,4,"[0.5,0.5]","[0,1]",d,"[0.6218623968242011,0.6218623968242011]","[0.3781376031757989,0.3781376031757989]",348.253,350.449,1,s,1,0.6658,,0.011411951,0.228334808,0.216922857,350.4524,350.4525,0,126,126,126,1,0.172365483,0.172365483,shape_difference2,1,,TRUE,,intensity,0.1,0.05,0.7,0.3,0.82,20,400,1E-11,3.5,0.01,0.5,0.1,,,,,,,,,,,,,,,,,,,,,,,,,,,,,,,,,,,,,,,,,,,,,,,,,,,,,,,,,,,,,,,,,,,,,,,,,,,,,,,,,
,,,,,649603,001,2025-03-15_16h48.20.064,Utility_discrimination_2024_2cat,2024.2.4,Win32,60.24096386,,,,,,,,0,"[0.5,0.5]","[1,0]",s,"[0.5,0.635740520456207]","[0.5,0.36425947954379295]",350.454,352.7843,1,s,1,0.7991,,0.303967195,0.536199369,0.232232174,352.7875,352.7875,0,127,127,127,1,0.13574052,0.13574052,shape_difference4,1,,TRUE,,intensity,0.1,0.05,0.7,0.3,0.82,20,400,1E-11,3.5,0.01,0.5,0.1,,,,,,,,,,,,,,,,,,,,,,,,,,,,,,,,,,,,,,,,,,,,,,,,,,,,,,,,,,,,,,,,,,,,,,,,,,,,,,,,,
,,,,,649603,001,2025-03-15_16h48.20.064,Utility_discrimination_2024_2cat,2024.2.4,Win32,60.24096386,,,,,,,,1,"[0.5,0.5]","[0.924,0.383]",s,"[0.8934396714158709,0.5]","[0.10656032858412912,0.5]",352.7889,355.0025,1,s,1,0.691,,0.092762942,0.289939111,0.197176169,355.0057,355.0058,0,128,128,128,1,0.393439671,0.393439671,shape_difference0,1,,TRUE,,intensity,0.1,0.05,0.7,0.3,0.82,20,400,1E-11,3.5,0.01,0.5,0.1,,,,,,,,,,,,,,,,,,,,,,,,,,,,,,,,,,,,,,,,,,,,,,,,,,,,,,,,,,,,,,,,,,,,,,,,,,,,,,,,,
,,,,,649603,001,2025-03-15_16h48.20.064,Utility_discrimination_2024_2cat,2024.2.4,Win32,60.24096386,,,,,,,,4,"[0.5,0.5]","[0,1]",s,"[0.6622156344461236,0.5672387315940102]","[0.33778436555387636,0.4327612684059899]",355.0073,357.2045,1,s,1,0.6672,,0.009856805,0.207951812,0.198095007,357.2086,357.2086,0,129,129,129,1,0.175558046,0.175558046,shape_difference1,1,,TRUE,,intensity,0.1,0.05,0.7,0.3,0.82,20,400,1E-11,3.5,0.01,0.5,0.1,,,,,,,,,,,,,,,,,,,,,,,,,,,,,,,,,,,,,,,,,,,,,,,,,,,,,,,,,,,,,,,,,,,,,,,,,,,,,,,,,
,,,,,649603,001,2025-03-15_16h48.20.064,Utility_discrimination_2024_2cat,2024.2.4,Win32,60.24096386,,,,,,,,1,"[0.5,0.5]","[0.924,0.383]",s,"[0.5,0.628514866650967]","[0.5,0.371485133349033]",357.2101,359.6068,1,d,1,0.8761,,0.077591498,0.284056649,0.206465151,359.6112,359.6113,0,130,130,130,1,0.128514867,0.128514867,shape_difference4,1,,TRUE,,intensity,0.1,0.05,0.7,0.3,0.82,20,400,1E-11,3.5,0.01,0.5,0.1,,,,,,,,,,,,,,,,,,,,,,,,,,,,,,,,,,,,,,,,,,,,,,,,,,,,,,,,,,,,,,,,,,,,,,,,,,,,,,,,,
,,,,,649603,001,2025-03-15_16h48.20.064,Utility_discrimination_2024_2cat,2024.2.4,Win32,60.24096386,,,,,,,,3,"[0.5,0.5]","[0.383,0.924]",d,"[0.658472342150217,0.5656871288349925]","[0.341527657849783,0.43431287116500744]",359.6128,362.5424,0,s,0,1.4002,,0.014217666,0.289714889,0.275497223,362.5456,362.5457,0,131,131,131,1,0.171506864,0.171506864,shape_difference1,1,,TRUE,,intensity,0.1,0.05,0.7,0.3,0.82,20,400,1E-11,3.5,0.01,0.5,0.1,,,,,,,,,,,,,,,,,,,,,,,,,,,,,,,,,,,,,,,,,,,,,,,,,,,,,,,,,,,,,,,,,,,,,,,,,,,,,,,,,
,,,,,649603,001,2025-03-15_16h48.20.064,Utility_discrimination_2024_2cat,2024.2.4,Win32,60.24096386,,,,,,,,0,"[0.5,0.5]","[1,0]",d,"[0.5569441564179202,0.6373796358489772]","[0.44305584358207983,0.36262036415102283]",362.5473,364.9107,1,s,1,0.8417,,0.302752216,0.506292741,0.203540525,364.9155,364.9156,0,132,132,132,1,0.14867926,0.14867926,shape_difference3,1,,TRUE,,intensity,0.1,0.05,0.7,0.3,0.82,20,400,1E-11,3.5,0.01,0.5,0.1,,,,,,,,,,,,,,,,,,,,,,,,,,,,,,,,,,,,,,,,,,,,,,,,,,,,,,,,,,,,,,,,,,,,,,,,,,,,,,,,,
,,,,,649603,001,2025-03-15_16h48.20.064,Utility_discrimination_2024_2cat,2024.2.4,Win32,60.24096386,,,,,,,,2,"[0.5,0.5]","[0.707,0.707]",s,"[0.8862876914390697,0.5]","[0.11371230856093029,0.5]",364.9176,367.2299,0,s,0,0.7904,,0.047367882,0.283515615,0.236147732,367.2341,367.2342,0,133,133,133,1,0.386287691,0.386287691,shape_difference0,1,,TRUE,,intensity,0.1,0.05,0.7,0.3,0.82,20,400,1E-11,3.5,0.01,0.5,0.1,,,,,,,,,,,,,,,,,,,,,,,,,,,,,,,,,,,,,,,,,,,,,,,,,,,,,,,,,,,,,,,,,,,,,,,,,,,,,,,,,
,,,,,649603,001,2025-03-15_16h48.20.064,Utility_discrimination_2024_2cat,2024.2.4,Win32,60.24096386,,,,,,,,2,"[0.5,0.5]","[0.707,0.707]",d,"[0.6188471379026468,0.6188471379026468]","[0.3811528620973532,0.3811528620973532]",367.2356,369.5482,1,s,1,0.7836,,0.040335617,0.275682281,0.235346664,369.5515,369.5516,0,134,134,134,1,0.168100619,0.168100619,shape_difference2,1,,TRUE,,intensity,0.1,0.05,0.7,0.3,0.82,20,400,1E-11,3.5,0.01,0.5,0.1,,,,,,,,,,,,,,,,,,,,,,,,,,,,,,,,,,,,,,,,,,,,,,,,,,,,,,,,,,,,,,,,,,,,,,,,,,,,,,,,,
,,,,,649603,001,2025-03-15_16h48.20.064,Utility_discrimination_2024_2cat,2024.2.4,Win32,60.24096386,,,,,,,,4,"[0.5,0.5]","[0,1]",s,"[0.6162244013988467,0.6162244013988467]","[0.3837755986011533,0.3837755986011533]",369.553,371.8167,1,d,1,0.7336,,0.008528056,0.198434365,0.189906308,371.821,371.8211,0,135,135,135,1,0.16439095,0.16439095,shape_difference2,1,,TRUE,,intensity,0.1,0.05,0.7,0.3,0.82,20,400,1E-11,3.5,0.01,0.5,0.1,,,,,,,,,,,,,,,,,,,,,,,,,,,,,,,,,,,,,,,,,,,,,,,,,,,,,,,,,,,,,,,,,,,,,,,,,,,,,,,,,
,,,,,649603,001,2025-03-15_16h48.20.064,Utility_discrimination_2024_2cat,2024.2.4,Win32,60.24096386,,,,,,,,0,"[0.5,0.5]","[1,0]",d,"[0.5,0.6201841322497273]","[0.5,0.37981586775027265]",371.8223,374.0354,1,s,1,0.6905,,0.308224217,0.563762982,0.255538765,374.0397,374.0397,0,136,136,136,1,0.120184132,0.120184132,shape_difference4,1,,TRUE,,intensity,0.1,0.05,0.7,0.3,0.82,20,400,1E-11,3.5,0.01,0.5,0.1,,,,,,,,,,,,,,,,,,,,,,,,,,,,,,,,,,,,,,,,,,,,,,,,,,,,,,,,,,,,,,,,,,,,,,,,,,,,,,,,,
,,,,,649603,001,2025-03-15_16h48.20.064,Utility_discrimination_2024_2cat,2024.2.4,Win32,60.24096386,,,,,,,,1,"[0.5,0.5]","[0.924,0.383]",s,"[0.9175239925312213,0.5]","[0.0824760074687787,0.5]",374.0412,376.0869,1,s,1,0.5164,,0.105039942,0.298034337,0.192994395,376.0906,376.0907,0,137,137,137,1,0.417523993,0.417523993,shape_difference0,1,,TRUE,,intensity,0.1,0.05,0.7,0.3,0.82,20,400,1E-11,3.5,0.01,0.5,0.1,,,,,,,,,,,,,,,,,,,,,,,,,,,,,,,,,,,,,,,,,,,,,,,,,,,,,,,,,,,,,,,,,,,,,,,,,,,,,,,,,
,,,,,649603,001,2025-03-15_16h48.20.064,Utility_discrimination_2024_2cat,2024.2.4,Win32,60.24096386,,,,,,,,3,"[0.5,0.5]","[0.383,0.924]",s,"[0.6730578980636148,0.5717328733315633]","[0.3269421019363851,0.4282671266684367]",376.0922,378.1888,1,s,1,0.5739,,0.012310167,0.277344187,0.26503402,378.1929,378.1929,0,138,138,138,1,0.187292097,0.187292097,shape_difference1,1,,TRUE,,intensity,0.1,0.05,0.7,0.3,0.82,20,400,1E-11,3.5,0.01,0.5,0.1,,,,,,,,,,,,,,,,,,,,,,,,,,,,,,,,,,,,,,,,,,,,,,,,,,,,,,,,,,,,,,,,,,,,,,,,,,,,,,,,,
,,,,,649603,001,2025-03-15_16h48.20.064,Utility_discrimination_2024_2cat,2024.2.4,Win32,60.24096386,,,,,,,,4,"[0.5,0.5]","[0,1]",s,"[0.5537168706500076,0.6295937036047181]","[0.44628312934999237,0.37040629639528183]",378.1943,380.7078,1,d,1,0.9894,,0.007370327,0.196107352,0.188737026,380.711,380.7111,0,139,139,139,1,0.140252926,0.140252926,shape_difference3,1,,TRUE,,intensity,0.1,0.05,0.7,0.3,0.82,20,400,1E-11,3.5,0.01,0.5,0.1,,,,,,,,,,,,,,,,,,,,,,,,,,,,,,,,,,,,,,,,,,,,,,,,,,,,,,,,,,,,,,,,,,,,,,,,,,,,,,,,,
,,,,,649603,001,2025-03-15_16h48.20.064,Utility_discrimination_2024_2cat,2024.2.4,Win32,60.24096386,,,,,,,,1,"[0.5,0.5]","[0.924,0.383]",d,"[0.5,0.6104642880652861]","[0.5,0.3895357119347139]",380.7125,383.0428,1,s,1,0.8027,,0.104207164,0.293366958,0.189159795,383.0555,383.0555,0,140,140,140,1,0.110464288,0.110464288,shape_difference4,1,,TRUE,,intensity,0.1,0.05,0.7,0.3,0.82,20,400,1E-11,3.5,0.01,0.5,0.1,,,,,,,,,,,,,,,,,,,,,,,,,,,,,,,,,,,,,,,,,,,,,,,,,,,,,,,,,,,,,,,,,,,,,,,,,,,,,,,,,
,,,,,649603,001,2025-03-15_16h48.20.064,Utility_discrimination_2024_2cat,2024.2.4,Win32,60.24096386,,,,,,,,2,"[0.5,0.5]","[0.707,0.707]",s,"[0.6679410504341147,0.5696119289137077]","[0.33205894956588533,0.4303880710862923]",383.0573,384.9944,0,d,0,0.4198,,0.034653777,0.266821556,0.23216778,384.9974,384.9974,0,141,141,141,1,0.181754384,0.181754384,shape_difference1,1,,TRUE,,intensity,0.1,0.05,0.7,0.3,0.82,20,400,1E-11,3.5,0.01,0.5,0.1,,,,,,,,,,,,,,,,,,,,,,,,,,,,,,,,,,,,,,,,,,,,,,,,,,,,,,,,,,,,,,,,,,,,,,,,,,,,,,,,,
,,,,,649603,001,2025-03-15_16h48.20.064,Utility_discrimination_2024_2cat,2024.2.4,Win32,60.24096386,,,,,,,,0,"[0.5,0.5]","[1,0]",s,"[0.6138776414182899,0.6138776414182899]","[0.38612235858171007,0.38612235858171007]",384.9989,387.3796,1,s,1,0.856,,0.30712171,0.543775032,0.236653322,387.3844,387.3846,0,142,142,142,1,0.161071629,0.161071629,shape_difference2,1,,TRUE,,intensity,0.1,0.05,0.7,0.3,0.82,20,400,1E-11,3.5,0.01,0.5,0.1,,,,,,,,,,,,,,,,,,,,,,,,,,,,,,,,,,,,,,,,,,,,,,,,,,,,,,,,,,,,,,,,,,,,,,,,,,,,,,,,,
,,,,,649603,001,2025-03-15_16h48.20.064,Utility_discrimination_2024_2cat,2024.2.4,Win32,60.24096386,,,,,,,,3,"[0.5,0.5]","[0.383,0.924]",s,"[0.9037283630152758,0.5]","[0.09627163698472418,0.5]",387.387,389.4481,1,s,1,0.5327,,0.010792738,0.262556143,0.251763405,389.4513,389.4513,0,143,143,143,1,0.403728363,0.403728363,shape_difference0,1,,TRUE,,intensity,0.1,0.05,0.7,0.3,0.82,20,400,1E-11,3.5,0.01,0.5,0.1,,,,,,,,,,,,,,,,,,,,,,,,,,,,,,,,,,,,,,,,,,,,,,,,,,,,,,,,,,,,,,,,,,,,,,,,,,,,,,,,,
,,,,,649603,001,2025-03-15_16h48.20.064,Utility_discrimination_2024_2cat,2024.2.4,Win32,60.24096386,,,,,,,,3,"[0.5,0.5]","[0.383,0.924]",s,"[0.5502339461037027,0.6211910344642855]","[0.44976605389629726,0.3788089655357146]",389.4543,391.6835,0,s,0,0.7025,,0.016391931,0.289072598,0.272680668,391.6869,391.687,0,144,144,144,1,0.131159128,0.131159128,shape_difference3,1,,TRUE,,intensity,0.1,0.05,0.7,0.3,0.82,20,400,1E-11,3.5,0.01,0.5,0.1,,,,,,,,,,,,,,,,,,,,,,,,,,,,,,,,,,,,,,,,,,,,,,,,,,,,,,,,,,,,,,,,,,,,,,,,,,,,,,,,,
,,,,,649603,001,2025-03-15_16h48.20.064,Utility_discrimination_2024_2cat,2024.2.4,Win32,60.24096386,,,,,,,,2,"[0.5,0.5]","[0.707,0.707]",d,"[0.5586076448296289,0.6413928559336216]","[0.4413923551703711,0.3586071440663784]",391.6887,393.7181,1,s,1,0.5046,,0.030015138,0.256512894,0.226497756,393.7222,393.7223,0,145,145,145,1,0.153022571,0.153022571,shape_difference3,1,,TRUE,,intensity,0.1,0.05,0.7,0.3,0.82,20,400,1E-11,3.5,0.01,0.5,0.1,,,,,,,,,,,,,,,,,,,,,,,,,,,,,,,,,,,,,,,,,,,,,,,,,,,,,,,,,,,,,,,,,,,,,,,,,,,,,,,,,
,,,,,649603,001,2025-03-15_16h48.20.064,Utility_discrimination_2024_2cat,2024.2.4,Win32,60.24096386,,,,,,,,4,"[0.5,0.5]","[0,1]",s,"[0.6117124731849756,0.6117124731849756]","[0.3882875268150245,0.3882875268150245]",393.7242,397.2208,1,d,1,1.9776,,0.006338383,0.193733727,0.187395344,397.2249,397.2251,0,146,146,146,1,0.158009156,0.158009156,shape_difference2,1,,TRUE,,intensity,0.1,0.05,0.7,0.3,0.82,20,400,1E-11,3.5,0.01,0.5,0.1,,,,,,,,,,,,,,,,,,,,,,,,,,,,,,,,,,,,,,,,,,,,,,,,,,,,,,,,,,,,,,,,,,,,,,,,,,,,,,,,,
,,,,,649603,001,2025-03-15_16h48.20.064,Utility_discrimination_2024_2cat,2024.2.4,Win32,60.24096386,,,,,,,,1,"[0.5,0.5]","[0.924,0.383]",d,"[0.5,0.5993569989865619]","[0.5,0.400643001013438]",397.2276,399.3728,1,s,1,0.6153,,0.107887221,0.326905065,0.219017844,399.3766,399.3766,0,147,147,147,1,0.099356999,0.099356999,shape_difference4,1,,TRUE,,intensity,0.1,0.05,0.7,0.3,0.82,20,400,1E-11,3.5,0.01,0.5,0.1,,,,,,,,,,,,,,,,,,,,,,,,,,,,,,,,,,,,,,,,,,,,,,,,,,,,,,,,,,,,,,,,,,,,,,,,,,,,,,,,,
,,,,,649603,001,2025-03-15_16h48.20.064,Utility_discrimination_2024_2cat,2024.2.4,Win32,60.24096386,,,,,,,,0,"[0.5,0.5]","[1,0]",s,"[0.6884389813593335,0.5781083656500268]","[0.31156101864066654,0.42189163434997323]",399.3783,401.4416,0,s,0,0.5369,,0.306170129,0.518267082,0.212096953,401.4444,401.4446,0,148,148,148,1,0.203938292,0.203938292,shape_difference1,1,,TRUE,,intensity,0.1,0.05,0.7,0.3,0.82,20,400,1E-11,3.5,0.01,0.5,0.1,,,,,,,,,,,,,,,,,,,,,,,,,,,,,,,,,,,,,,,,,,,,,,,,,,,,,,,,,,,,,,,,,,,,,,,,,,,,,,,,,
,,,,,649603,001,2025-03-15_16h48.20.064,Utility_discrimination_2024_2cat,2024.2.4,Win32,60.24096386,,,,,,,,4,"[0.5,0.5]","[0,1]",d,"[0.8938674718164379,0.5]","[0.10613252818356211,0.5]",401.4471,403.343,1,s,1,0.3684,,0.005394505,0.191240169,0.185845664,403.3472,403.3473,0,149,149,149,1,0.393867472,0.393867472,shape_difference0,1,,TRUE,,intensity,0.1,0.05,0.7,0.3,0.82,20,400,1E-11,3.5,0.01,0.5,0.1,,,,,,,,,,,,,,,,,,,,,,,,,,,,,,,,,,,,,,,,,,,,,,,,,,,,,,,,,,,,,,,,,,,,,,,,,,,,,,,,,
,,,,,649603,001,2025-03-15_16h48.20.064,Utility_discrimination_2024_2cat,2024.2.4,Win32,60.24096386,,,,,,,,1,"[0.5,0.5]","[0.924,0.383]",s,"[0.5,0.5920451646310241]","[0.5,0.4079548353689759]",403.3489,405.4116,1,s,1,0.5365,,0.111626221,0.369621156,0.257994935,405.415,405.415,0,150,150,150,1,0.092045165,0.092045165,shape_difference4,1,,TRUE,,intensity,0.1,0.05,0.7,0.3,0.82,20,400,1E-11,3.5,0.01,0.5,0.1,,,,,,,,,,,,,,,,,,,,,,,,,,,,,,,,,,,,,,,,,,,,,,,,,,,,,,,,,,,,,,,,,,,,,,,,,,,,,,,,,
,,,,,649603,001,2025-03-15_16h48.20.064,Utility_discrimination_2024_2cat,2024.2.4,Win32,60.24096386,,,,,,,,2,"[0.5,0.5]","[0.707,0.707]",s,"[0.717942203120894,0.590337514929981]","[0.28205779687910604,0.40966248507001907]",405.4167,407.3966,0,s,0,0.4589,,0.026193731,0.244239895,0.218046164,407.4009,407.401,0,151,151,151,1,0.235868185,0.235868185,shape_difference1,1,,TRUE,,intensity,0.1,0.05,0.7,0.3,0.82,20,400,1E-11,3.5,0.01,0.5,0.1,,,,,,,,,,,,,,,,,,,,,,,,,,,,,,,,,,,,,,,,,,,,,,,,,,,,,,,,,,,,,,,,,,,,,,,,,,,,,,,,,
,,,,,649603,001,2025-03-15_16h48.20.064,Utility_discrimination_2024_2cat,2024.2.4,Win32,60.24096386,,,,,,,,3,"[0.5,0.5]","[0.383,0.924]",d,"[0.6096500647024973,0.6096500647024973]","[0.3903499352975027,0.3903499352975027]",407.4025,409.5482,0,s,0,0.6168,,0.014408798,0.274867385,0.260458587,409.5517,409.5517,0,152,152,152,1,0.155092029,0.155092029,shape_difference2,1,,TRUE,,intensity,0.1,0.05,0.7,0.3,0.82,20,400,1E-11,3.5,0.01,0.5,0.1,,,,,,,,,,,,,,,,,,,,,,,,,,,,,,,,,,,,,,,,,,,,,,,,,,,,,,,,,,,,,,,,,,,,,,,,,,,,,,,,,
,,,,,649603,001,2025-03-15_16h48.20.064,Utility_discrimination_2024_2cat,2024.2.4,Win32,60.24096386,,,,,,,,0,"[0.5,0.5]","[1,0]",d,"[0.5559541832840852,0.6349912933537722]","[0.44404581671591475,0.36500870664622775]",409.5535,411.7829,1,s,1,0.7018,,0.305322725,0.498059037,0.192736312,411.7882,411.7882,0,153,153,153,1,0.146094473,0.146094473,shape_difference3,1,,TRUE,,intensity,0.1,0.05,0.7,0.3,0.82,20,400,1E-11,3.5,0.01,0.5,0.1,,,,,,,,,,,,,,,,,,,,,,,,,,,,,,,,,,,,,,,,,,,,,,,,,,,,,,,,,,,,,,,,,,,,,,,,,,,,,,,,,
,,,,,649603,001,2025-03-15_16h48.20.064,Utility_discrimination_2024_2cat,2024.2.4,Win32,60.24096386,,,,,,,,2,"[0.5,0.5]","[0.707,0.707]",s,"[0.8871171981802292,0.5]","[0.11288280181977084,0.5]",411.7902,413.8847,0,s,0,0.5724,,0.083247907,0.276560347,0.19331244,413.8879,413.888,0,154,154,154,1,0.387117198,0.387117198,shape_difference0,1,,TRUE,,intensity,0.1,0.05,0.7,0.3,0.82,20,400,1E-11,3.5,0.01,0.5,0.1,,,,,,,,,,,,,,,,,,,,,,,,,,,,,,,,,,,,,,,,,,,,,,,,,,,,,,,,,,,,,,,,,,,,,,,,,,,,,,,,,
,,,,,649603,001,2025-03-15_16h48.20.064,Utility_discrimination_2024_2cat,2024.2.4,Win32,60.24096386,,,,,,,,1,"[0.5,0.5]","[0.924,0.383]",d,"[0.6189479100318285,0.6189479100318285]","[0.3810520899681715,0.3810520899681715]",413.8896,416.8376,0,s,0,1.418,,0.117788641,0.393263612,0.275474971,416.8409,416.841,0,155,155,155,1,0.168243154,0.168243154,shape_difference2,1,,TRUE,,intensity,0.1,0.05,0.7,0.3,0.82,20,400,1E-11,3.5,0.01,0.5,0.1,,,,,,,,,,,,,,,,,,,,,,,,,,,,,,,,,,,,,,,,,,,,,,,,,,,,,,,,,,,,,,,,,,,,,,,,,,,,,,,,,
,,,,,649603,001,2025-03-15_16h48.20.064,Utility_discrimination_2024_2cat,2024.2.4,Win32,60.24096386,,,,,,,,3,"[0.5,0.5]","[0.383,0.924]",d,"[0.7369560636239562,0.5982188012640424]","[0.26304393637604384,0.4017811987359576]",416.8424,419.8066,1,s,1,1.4418,,0.012583828,0.261507394,0.248923567,419.8096,419.8096,0,156,156,156,1,0.256445956,0.256445956,shape_difference1,1,,TRUE,,intensity,0.1,0.05,0.7,0.3,0.82,20,400,1E-11,3.5,0.01,0.5,0.1,,,,,,,,,,,,,,,,,,,,,,,,,,,,,,,,,,,,,,,,,,,,,,,,,,,,,,,,,,,,,,,,,,,,,,,,,,,,,,,,,
,,,,,649603,001,2025-03-15_16h48.20.064,Utility_discrimination_2024_2cat,2024.2.4,Win32,60.24096386,,,,,,,,4,"[0.5,0.5]","[0,1]",s,"[0.5531351988403278,0.6281904013797988]","[0.4468648011596722,0.37180959862020124]",419.8113,422.2081,1,d,1,0.8676,,0.004506466,0.188547101,0.184040635,422.2131,422.2133,0,157,157,157,1,0.138734201,0.138734201,shape_difference3,1,,TRUE,,intensity,0.1,0.05,0.7,0.3,0.82,20,400,1E-11,3.5,0.01,0.5,0.1,,,,,,,,,,,,,,,,,,,,,,,,,,,,,,,,,,,,,,,,,,,,,,,,,,,,,,,,,,,,,,,,,,,,,,,,,,,,,,,,,
,,,,,649603,001,2025-03-15_16h48.20.064,Utility_discrimination_2024_2cat,2024.2.4,Win32,60.24096386,,,,,,,,0,"[0.5,0.5]","[1,0]",d,"[0.5,0.5859880230235135]","[0.5,0.41401197697648656]",422.2161,424.8773,1,s,1,1.1352,,0.308900971,0.549001654,0.240100683,424.8806,424.8806,0,158,158,158,1,0.085988023,0.085988023,shape_difference4,1,,TRUE,,intensity,0.1,0.05,0.7,0.3,0.82,20,400,1E-11,3.5,0.01,0.5,0.1,,,,,,,,,,,,,,,,,,,,,,,,,,,,,,,,,,,,,,,,,,,,,,,,,,,,,,,,,,,,,,,,,,,,,,,,,,,,,,,,,
,,,,,649603,001,2025-03-15_16h48.20.064,Utility_discrimination_2024_2cat,2024.2.4,Win32,60.24096386,,,,,,,,1,"[0.5,0.5]","[0.924,0.383]",s,"[0.9162274666541805,0.5]","[0.08377253334581947,0.5]",424.8822,427.0626,1,s,1,0.6592,,0.115543129,0.380036549,0.26449342,427.0668,427.0668,0,159,159,159,1,0.416227467,0.416227467,shape_difference0,1,,TRUE,,intensity,0.1,0.05,0.7,0.3,0.82,20,400,1E-11,3.5,0.01,0.5,0.1,,,,,,,,,,,,,,,,,,,,,,,,,,,,,,,,,,,,,,,,,,,,,,,,,,,,,,,,,,,,,,,,,,,,,,,,,,,,,,,,,
,,,,,649603,001,2025-03-15_16h48.20.064,Utility_discrimination_2024_2cat,2024.2.4,Win32,60.24096386,,,,,,,,2,"[0.5,0.5]","[0.707,0.707]",s,"[0.7305982774638116,0.5955834851392205]","[0.26940172253618844,0.4044165148607794]",427.0684,429.6645,1,d,1,1.0671,,0.104749611,0.292653798,0.187904188,429.6678,429.6679,0,160,160,160,1,0.249565235,0.249565235,shape_difference1,1,,TRUE,,intensity,0.1,0.05,0.7,0.3,0.82,20,400,1E-11,3.5,0.01,0.5,0.1,,,,,,,,,,,,,,,,,,,,,,,,,,,,,,,,,,,,,,,,,,,,,,,,,,,,,,,,,,,,,,,,,,,,,,,,,,,,,,,,,
,,,,,649603,001,2025-03-15_16h48.20.064,Utility_discrimination_2024_2cat,2024.2.4,Win32,60.24096386,,,,,,,,4,"[0.5,0.5]","[0,1]",d,"[0.6276859261655531,0.6276859261655531]","[0.3723140738344469,0.3723140738344469]",429.6695,432.2002,1,d,1,1.0066,,0.003645951,0.18556558,0.181919629,432.2048,432.2048,0,161,161,161,1,0.180602442,0.180602442,shape_difference2,1,,TRUE,,intensity,0.1,0.05,0.7,0.3,0.82,20,400,1E-11,3.5,0.01,0.5,0.1,,,,,,,,,,,,,,,,,,,,,,,,,,,,,,,,,,,,,,,,,,,,,,,,,,,,,,,,,,,,,,,,,,,,,,,,,,,,,,,,,
,,,,,649603,001,2025-03-15_16h48.20.064,Utility_discrimination_2024_2cat,2024.2.4,Win32,60.24096386,,,,,,,,0,"[0.5,0.5]","[1,0]",d,"[0.5,0.5809449523562904]","[0.5,0.4190550476437096]",432.2061,434.9524,1,s,1,1.2172,,0.307953268,0.526694313,0.218741045,434.9557,434.9558,0,162,162,162,1,0.080944952,0.080944952,shape_difference4,1,,TRUE,,intensity,0.1,0.05,0.7,0.3,0.82,20,400,1E-11,3.5,0.01,0.5,0.1,,,,,,,,,,,,,,,,,,,,,,,,,,,,,,,,,,,,,,,,,,,,,,,,,,,,,,,,,,,,,,,,,,,,,,,,,,,,,,,,,
,,,,,649603,001,2025-03-15_16h48.20.064,Utility_discrimination_2024_2cat,2024.2.4,Win32,60.24096386,,,,,,,,3,"[0.5,0.5]","[0.383,0.924]",s,"[0.9033245909636947,0.5]","[0.09667540903630534,0.5]",434.9582,437.3545,1,d,1,0.8702,,0.011123742,0.245158034,0.234034292,437.3582,437.3583,0,163,163,163,1,0.403324591,0.403324591,shape_difference0,1,,TRUE,,intensity,0.1,0.05,0.7,0.3,0.82,20,400,1E-11,3.5,0.01,0.5,0.1,,,,,,,,,,,,,,,,,,,,,,,,,,,,,,,,,,,,,,,,,,,,,,,,,,,,,,,,,,,,,,,,,,,,,,,,,,,,,,,,,
,,,,,649603,001,2025-03-15_16h48.20.064,Utility_discrimination_2024_2cat,2024.2.4,Win32,60.24096386,,,,,,,,1,"[0.5,0.5]","[0.924,0.383]",d,"[0.5500381104219163,0.6207185744904716]","[0.44996188957808375,0.3792814255095284]",437.3599,439.4728,1,s,1,0.5843,,0.113500447,0.367944581,0.254444135,439.4761,439.4762,0,164,164,164,1,0.130647808,0.130647808,shape_difference3,1,,TRUE,,intensity,0.1,0.05,0.7,0.3,0.82,20,400,1E-11,3.5,0.01,0.5,0.1,,,,,,,,,,,,,,,,,,,,,,,,,,,,,,,,,,,,,,,,,,,,,,,,,,,,,,,,,,,,,,,,,,,,,,,,,,,,,,,,,
,,,,,649603,001,2025-03-15_16h48.20.064,Utility_discrimination_2024_2cat,2024.2.4,Win32,60.24096386,,,,,,,,4,"[0.5,0.5]","[0,1]",s,"[0.7240867262705585,0.5928844330753505]","[0.2759132737294415,0.40711556692464945]",439.4782,446.5957,1,s,1,5.5866,,0.0027873,0.182193684,0.179406384,446.5994,446.5995,0,165,165,165,1,0.242518102,0.242518102,shape_difference1,1,,TRUE,,intensity,0.1,0.05,0.7,0.3,0.82,20,400,1E-11,3.5,0.01,0.5,0.1,,,,,,,,,,,,,,,,,,,,,,,,,,,,,,,,,,,,,,,,,,,,,,,,,,,,,,,,,,,,,,,,,,,,,,,,,,,,,,,,,
,,,,,649603,001,2025-03-15_16h48.20.064,Utility_discrimination_2024_2cat,2024.2.4,Win32,60.24096386,,,,,,,,0,"[0.5,0.5]","[1,0]",s,"[0.5,0.5767213204332066]","[0.5,0.42327867956679344]",446.6012,450.482,0,d,0,2.3577,,0.307161218,0.499741633,0.192580414,450.4849,450.485,0,166,166,166,1,0.07672132,0.07672132,shape_difference4,1,,TRUE,,intensity,0.1,0.05,0.7,0.3,0.82,20,400,1E-11,3.5,0.01,0.5,0.1,,,,,,,,,,,,,,,,,,,,,,,,,,,,,,,,,,,,,,,,,,,,,,,,,,,,,,,,,,,,,,,,,,,,,,,,,,,,,,,,,
,,,,,649603,001,2025-03-15_16h48.20.064,Utility_discrimination_2024_2cat,2024.2.4,Win32,60.24096386,,,,,,,,3,"[0.5,0.5]","[0.383,0.924]",s,"[0.8940052503845536,0.5]","[0.10599474961544642,0.5]",450.4867,452.9839,1,s,1,0.966,,0.009946597,0.224693334,0.214746736,452.9883,452.9884,0,167,167,167,1,0.39400525,0.39400525,shape_difference0,1,,TRUE,,intensity,0.1,0.05,0.7,0.3,0.82,20,400,1E-11,3.5,0.01,0.5,0.1,,,,,,,,,,,,,,,,,,,,,,,,,,,,,,,,,,,,,,,,,,,,,,,,,,,,,,,,,,,,,,,,,,,,,,,,,,,,,,,,,
,,,,,649603,001,2025-03-15_16h48.20.064,Utility_discrimination_2024_2cat,2024.2.4,Win32,60.24096386,,,,,,,,2,"[0.5,0.5]","[0.707,0.707]",s,"[0.5465605375734971,0.6123288164958521]","[0.45343946242650285,0.38767118350414786]",452.9899,455.3028,1,d,1,0.7831,,0.104070922,0.287654927,0.183584006,455.3061,455.3062,0,168,168,168,1,0.121567983,0.121567983,shape_difference3,1,,TRUE,,intensity,0.1,0.05,0.7,0.3,0.82,20,400,1E-11,3.5,0.01,0.5,0.1,,,,,,,,,,,,,,,,,,,,,,,,,,,,,,,,,,,,,,,,,,,,,,,,,,,,,,,,,,,,,,,,,,,,,,,,,,,,,,,,,
,,,,,649603,001,2025-03-15_16h48.20.064,Utility_discrimination_2024_2cat,2024.2.4,Win32,60.24096386,,,,,,,,0,"[0.5,0.5]","[1,0]",d,"[0.6247004286164553,0.6247004286164553]","[0.3752995713835448,0.3752995713835448]",455.308,457.4711,1,d,1,0.6424,,0.306485358,0.495669415,0.189184056,457.475,457.475,0,169,169,169,1,0.176379673,0.176379673,shape_difference2,1,,TRUE,,intensity,0.1,0.05,0.7,0.3,0.82,20,400,1E-11,3.5,0.01,0.5,0.1,,,,,,,,,,,,,,,,,,,,,,,,,,,,,,,,,,,,,,,,,,,,,,,,,,,,,,,,,,,,,,,,,,,,,,,,,,,,,,,,,
,,,,,649603,001,2025-03-15_16h48.20.064,Utility_discrimination_2024_2cat,2024.2.4,Win32,60.24096386,,,,,,,,1,"[0.5,0.5]","[0.924,0.383]",d,"[0.8875001971712067,0.5]","[0.11249980282879335,0.5]",457.4768,459.5226,1,s,1,0.5202,,0.11187343,0.353304475,0.241431045,459.5261,459.5262,0,170,170,170,1,0.387500197,0.387500197,shape_difference0,1,,TRUE,,intensity,0.1,0.05,0.7,0.3,0.82,20,400,1E-11,3.5,0.01,0.5,0.1,,,,,,,,,,,,,,,,,,,,,,,,,,,,,,,,,,,,,,,,,,,,,,,,,,,,,,,,,,,,,,,,,,,,,,,,,,,,,,,,,
,,,,,649603,001,2025-03-15_16h48.20.064,Utility_discrimination_2024_2cat,2024.2.4,Win32,60.24096386,,,,,,,,4,"[0.5,0.5]","[0,1]",s,"[0.717018023169466,0.5899544403397246]","[0.28298197683053405,0.41004555966027545]",459.5278,461.8083,0,d,0,0.7501,,0.006826061,0.190621153,0.183795092,461.8119,461.812,0,171,171,171,1,0.23486799,0.23486799,shape_difference1,1,,TRUE,,intensity,0.1,0.05,0.7,0.3,0.82,20,400,1E-11,3.5,0.01,0.5,0.1,,,,,,,,,,,,,,,,,,,,,,,,,,,,,,,,,,,,,,,,,,,,,,,,,,,,,,,,,,,,,,,,,,,,,,,,,,,,,,,,,
,,,,,649603,001,2025-03-15_16h48.20.064,Utility_discrimination_2024_2cat,2024.2.4,Win32,60.24096386,,,,,,,,3,"[0.5,0.5]","[0.383,0.924]",s,"[0.5,0.5930569762509037]","[0.5,0.40694302374909624]",461.8134,464.0436,1,s,1,0.6996,,0.008990222,0.199853759,0.190863537,464.0471,464.0471,0,172,172,172,1,0.093056976,0.093056976,shape_difference4,1,,TRUE,,intensity,0.1,0.05,0.7,0.3,0.82,20,400,1E-11,3.5,0.01,0.5,0.1,,,,,,,,,,,,,,,,,,,,,,,,,,,,,,,,,,,,,,,,,,,,,,,,,,,,,,,,,,,,,,,,,,,,,,,,,,,,,,,,,
,,,,,649603,001,2025-03-15_16h48.20.064,Utility_discrimination_2024_2cat,2024.2.4,Win32,60.24096386,,,,,,,,2,"[0.5,0.5]","[0.707,0.707]",s,"[0.5425878174479314,0.6027444995349572]","[0.4574121825520686,0.39725550046504277]",464.0486,466.2618,1,d,1,0.6843,,0.103406814,0.282318982,0.178912168,466.2656,466.2657,0,173,173,173,1,0.111195346,0.111195346,shape_difference3,1,,TRUE,,intensity,0.1,0.05,0.7,0.3,0.82,20,400,1E-11,3.5,0.01,0.5,0.1,,,,,,,,,,,,,,,,,,,,,,,,,,,,,,,,,,,,,,,,,,,,,,,,,,,,,,,,,,,,,,,,,,,,,,,,,,,,,,,,,
,,,,,649603,001,2025-03-15_16h48.20.064,Utility_discrimination_2024_2cat,2024.2.4,Win32,60.24096386,,,,,,,,1,"[0.5,0.5]","[0.924,0.383]",d,"[0.6222482151797499,0.6222482151797499]","[0.37775178482025007,0.37775178482025007]",466.267,468.6471,1,d,1,0.8501,,0.117858271,0.37977551,0.261917239,468.6514,468.6516,0,174,174,174,1,0.172911195,0.172911195,shape_difference2,1,,TRUE,,intensity,0.1,0.05,0.7,0.3,0.82,20,400,1E-11,3.5,0.01,0.5,0.1,,,,,,,,,,,,,,,,,,,,,,,,,,,,,,,,,,,,,,,,,,,,,,,,,,,,,,,,,,,,,,,,,,,,,,,,,,,,,,,,,
,,,,,649603,001,2025-03-15_16h48.20.064,Utility_discrimination_2024_2cat,2024.2.4,Win32,60.24096386,,,,,,,,3,"[0.5,0.5]","[0.383,0.924]",d,"[0.7340814478889046,0.5970272668197516]","[0.26591855211109533,0.4029727331802484]",468.6537,470.999,1,d,1,0.8177,,0.008206946,0.196833258,0.188626313,471.0031,471.0033,0,175,175,175,1,0.2533349,0.2533349,shape_difference1,1,,TRUE,,intensity,0.1,0.05,0.7,0.3,0.82,20,400,1E-11,3.5,0.01,0.5,0.1,,,,,,,,,,,,,,,,,,,,,,,,,,,,,,,,,,,,,,,,,,,,,,,,,,,,,,,,,,,,,,,,,,,,,,,,,,,,,,,,,
,,,,,649603,001,2025-03-15_16h48.20.064,Utility_discrimination_2024_2cat,2024.2.4,Win32,60.24096386,,,,,,,,0,"[0.5,0.5]","[1,0]",d,"[0.538105953764442,0.5919318571236146]","[0.461894046235558,0.4080681428763854]",471.0049,473.1678,1,d,1,0.6363,,0.305894744,0.491533109,0.185638365,473.1715,473.1716,0,176,176,176,1,0.099493352,0.099493352,shape_difference3,1,,TRUE,,intensity,0.1,0.05,0.7,0.3,0.82,20,400,1E-11,3.5,0.01,0.5,0.1,,,,,,,,,,,,,,,,,,,,,,,,,,,,,,,,,,,,,,,,,,,,,,,,,,,,,,,,,,,,,,,,,,,,,,,,,,,,,,,,,
,,,,,649603,001,2025-03-15_16h48.20.064,Utility_discrimination_2024_2cat,2024.2.4,Win32,60.24096386,,,,,,,,4,"[0.5,0.5]","[0,1]",d,"[0.8822265416869386,0.5]","[0.11777345831306141,0.5]",473.1732,475.2196,1,d,1,0.518,,0.006153835,0.18815412,0.182000285,475.224,475.2241,0,177,177,177,1,0.382226542,0.382226542,shape_difference0,1,,TRUE,,intensity,0.1,0.05,0.7,0.3,0.82,20,400,1E-11,3.5,0.01,0.5,0.1,,,,,,,,,,,,,,,,,,,,,,,,,,,,,,,,,,,,,,,,,,,,,,,,,,,,,,,,,,,,,,,,,,,,,,,,,,,,,,,,,
,,,,,649603,001,2025-03-15_16h48.20.064,Utility_discrimination_2024_2cat,2024.2.4,Win32,60.24096386,,,,,,,,2,"[0.5,0.5]","[0.707,0.707]",d,"[0.5,0.5870605749843918]","[0.5,0.4129394250156082]",475.2257,477.3545,1,s,1,0.6012,,0.102735945,0.276459583,0.173723638,477.358,477.3581,0,178,178,178,1,0.087060575,0.087060575,shape_difference4,1,,TRUE,,intensity,0.1,0.05,0.7,0.3,0.82,20,400,1E-11,3.5,0.01,0.5,0.1,,,,,,,,,,,,,,,,,,,,,,,,,,,,,,,,,,,,,,,,,,,,,,,,,,,,,,,,,,,,,,,,,,,,,,,,,,,,,,,,,
,,,,,649603,001,2025-03-15_16h48.20.064,Utility_discrimination_2024_2cat,2024.2.4,Win32,60.24096386,,,,,,,,3,"[0.5,0.5]","[0.383,0.924]",s,"[0.6202146543673533,0.6202146543673533]","[0.3797853456326467,0.3797853456326467]",477.3596,479.6398,0,d,0,0.7573,,0.00755982,0.193801986,0.186242166,479.6426,479.6426,0,179,179,179,1,0.170034872,0.170034872,shape_difference2,1,,TRUE,,intensity,0.1,0.05,0.7,0.3,0.82,20,400,1E-11,3.5,0.01,0.5,0.1,,,,,,,,,,,,,,,,,,,,,,,,,,,,,,,,,,,,,,,,,,,,,,,,,,,,,,,,,,,,,,,,,,,,,,,,,,,,,,,,,
,,,,,649603,001,2025-03-15_16h48.20.064,Utility_discrimination_2024_2cat,2024.2.4,Win32,60.24096386,,,,,,,,1,"[0.5,0.5]","[0.924,0.383]",s,"[0.5353406784594716,0.5852605401998741]","[0.46465932154052836,0.4147394598001259]",479.6442,481.9749,1,s,1,0.8038,,0.115723946,0.366020579,0.250296633,481.9785,481.9786,0,180,180,180,1,0.092273312,0.092273312,shape_difference3,1,,TRUE,,intensity,0.1,0.05,0.7,0.3,0.82,20,400,1E-11,3.5,0.01,0.5,0.1,,,,,,,,,,,,,,,,,,,,,,,,,,,,,,,,,,,,,,,,,,,,,,,,,,,,,,,,,,,,,,,,,,,,,,,,,,,,,,,,,
,,,,,649603,001,2025-03-15_16h48.20.064,Utility_discrimination_2024_2cat,2024.2.4,Win32,60.24096386,,,,,,,,4,"[0.5,0.5]","[0,1]",s,"[0.7287758098951724,0.5948280683872846]","[0.27122419010482757,0.4051719316127153]",481.9815,484.4103,1,s,1,0.9041,,0.005543196,0.18540711,0.179863914,484.4138,484.4139,0,181,181,181,1,0.247592868,0.247592868,shape_difference1,1,,TRUE,,intensity,0.1,0.05,0.7,0.3,0.82,20,400,1E-11,3.5,0.01,0.5,0.1,,,,,,,,,,,,,,,,,,,,,,,,,,,,,,,,,,,,,,,,,,,,,,,,,,,,,,,,,,,,,,,,,,,,,,,,,,,,,,,,,
,,,,,649603,001,2025-03-15_16h48.20.064,Utility_discrimination_2024_2cat,2024.2.4,Win32,60.24096386,,,,,,,,0,"[0.5,0.5]","[1,0]",s,"[0.5,0.5820888459684255]","[0.5,0.41791115403157447]",484.4155,486.4954,1,s,1,0.5508,,0.305364587,0.487198468,0.181833881,486.4994,486.4994,0,182,182,182,1,0.082088846,0.082088846,shape_difference4,1,,TRUE,,intensity,0.1,0.05,0.7,0.3,0.82,20,400,1E-11,3.5,0.01,0.5,0.1,,,,,,,,,,,,,,,,,,,,,,,,,,,,,,,,,,,,,,,,,,,,,,,,,,,,,,,,,,,,,,,,,,,,,,,,,,,,,,,,,
,,,,,649603,001,2025-03-15_16h48.20.064,Utility_discrimination_2024_2cat,2024.2.4,Win32,60.24096386,,,,,,,,2,"[0.5,0.5]","[0.707,0.707]",s,"[0.8779266422346652,0.5]","[0.12207335776533479,0.5]",486.5021,488.7645,1,d,1,0.7443,,0.105932632,0.290769517,0.184836885,488.7676,488.7677,0,183,183,183,1,0.377926642,0.377926642,shape_difference0,1,,TRUE,,intensity,0.1,0.05,0.7,0.3,0.82,20,400,1E-11,3.5,0.01,0.5,0.1,,,,,,,,,,,,,,,,,,,,,,,,,,,,,,,,,,,,,,,,,,,,,,,,,,,,,,,,,,,,,,,,,,,,,,,,,,,,,,,,,
,,,,,649603,001,2025-03-15_16h48.20.064,Utility_discrimination_2024_2cat,2024.2.4,Win32,60.24096386,,,,,,,,3,"[0.5,0.5]","[0.383,0.924]",d,"[0.6280316383061932,0.6280316383061932]","[0.3719683616938068,0.3719683616938068]",488.7691,491.0492,1,s,1,0.7517,,0.007019895,0.190665198,0.183645303,491.0524,491.0525,0,184,184,184,1,0.181091426,0.181091426,shape_difference2,1,,TRUE,,intensity,0.1,0.05,0.7,0.3,0.82,20,400,1E-11,3.5,0.01,0.5,0.1,,,,,,,,,,,,,,,,,,,,,,,,,,,,,,,,,,,,,,,,,,,,,,,,,,,,,,,,,,,,,,,,,,,,,,,,,,,,,,,,,
,,,,,649603,001,2025-03-15_16h48.20.064,Utility_discrimination_2024_2cat,2024.2.4,Win32,60.24096386,,,,,,,,4,"[0.5,0.5]","[0,1]",s,"[0.5330840822698742,0.5798164282437697]","[0.46691591773012575,0.42018357175623033]",491.054,493.2011,1,s,1,0.6201,,0.004974241,0.182290661,0.177316419,493.2039,493.204,0,185,185,185,1,0.086381416,0.086381416,shape_difference3,1,,TRUE,,intensity,0.1,0.05,0.7,0.3,0.82,20,400,1E-11,3.5,0.01,0.5,0.1,,,,,,,,,,,,,,,,,,,,,,,,,,,,,,,,,,,,,,,,,,,,,,,,,,,,,,,,,,,,,,,,,,,,,,,,,,,,,,,,,
,,,,,649603,001,2025-03-15_16h48.20.064,Utility_discrimination_2024_2cat,2024.2.4,Win32,60.24096386,,,,,,,,2,"[0.5,0.5]","[0.707,0.707]",s,"[0.5,0.5779530860924538]","[0.5,0.4220469139075462]",493.2054,497.7877,1,s,1,3.0602,,0.105441782,0.286285232,0.18084345,497.7911,497.7911,0,186,186,186,1,0.077953086,0.077953086,shape_difference4,1,,TRUE,,intensity,0.1,0.05,0.7,0.3,0.82,20,400,1E-11,3.5,0.01,0.5,0.1,,,,,,,,,,,,,,,,,,,,,,,,,,,,,,,,,,,,,,,,,,,,,,,,,,,,,,,,,,,,,,,,,,,,,,,,,,,,,,,,,
,,,,,649603,001,2025-03-15_16h48.20.064,Utility_discrimination_2024_2cat,2024.2.4,Win32,60.24096386,,,,,,,,1,"[0.5,0.5]","[0.924,0.383]",s,"[0.6251472455472374,0.6251472455472374]","[0.37485275445276256,0.37485275445276256]",497.7926,500.1234,1,d,1,0.8046,,0.113719295,0.352621954,0.238902659,500.129,500.129,0,187,187,187,1,0.177011663,0.177011663,shape_difference2,1,,TRUE,,intensity,0.1,0.05,0.7,0.3,0.82,20,400,1E-11,3.5,0.01,0.5,0.1,,,,,,,,,,,,,,,,,,,,,,,,,,,,,,,,,,,,,,,,,,,,,,,,,,,,,,,,,,,,,,,,,,,,,,,,,,,,,,,,,
,,,,,649603,001,2025-03-15_16h48.20.064,Utility_discrimination_2024_2cat,2024.2.4,Win32,60.24096386,,,,,,,,0,"[0.5,0.5]","[1,0]",d,"[0.7230357402804515,0.5924487971075898]","[0.27696425971954847,0.40755120289241026]",500.1314,502.3917,1,d,1,0.7429,,0.304874526,0.482523714,0.177649188,502.3953,502.3953,0,188,188,188,1,0.241380671,0.241380671,shape_difference1,1,,TRUE,,intensity,0.1,0.05,0.7,0.3,0.82,20,400,1E-11,3.5,0.01,0.5,0.1,,,,,,,,,,,,,,,,,,,,,,,,,,,,,,,,,,,,,,,,,,,,,,,,,,,,,,,,,,,,,,,,,,,,,,,,,,,,,,,,,
,,,,,649603,001,2025-03-15_16h48.20.064,Utility_discrimination_2024_2cat,2024.2.4,Win32,60.24096386,,,,,,,,2,"[0.5,0.5]","[0.707,0.707]",d,"[0.874400437840481,0.5]","[0.12559956215951895,0.5]",502.3969,506.1289,1,s,1,2.2066,,0.104991099,0.28143951,0.176448411,506.1325,506.1327,0,189,189,189,1,0.374400438,0.374400438,shape_difference0,1,,TRUE,,intensity,0.1,0.05,0.7,0.3,0.82,20,400,1E-11,3.5,0.01,0.5,0.1,,,,,,,,,,,,,,,,,,,,,,,,,,,,,,,,,,,,,,,,,,,,,,,,,,,,,,,,,,,,,,,,,,,,,,,,,,,,,,,,,
,,,,,649603,001,2025-03-15_16h48.20.064,Utility_discrimination_2024_2cat,2024.2.4,Win32,60.24096386,,,,,,,,0,"[0.5,0.5]","[1,0]",s,"[0.6227839553470945,0.6227839553470945]","[0.3772160446529054,0.3772160446529054]",506.134,508.3801,1,d,1,0.7226,,0.304407348,0.47735408,0.172946733,508.3842,508.3843,0,190,190,190,1,0.173668961,0.173668961,shape_difference2,1,,TRUE,,intensity,0.1,0.05,0.7,0.3,0.82,20,400,1E-11,3.5,0.01,0.5,0.1,,,,,,,,,,,,,,,,,,,,,,,,,,,,,,,,,,,,,,,,,,,,,,,,,,,,,,,,,,,,,,,,,,,,,,,,,,,,,,,,,
,,,,,649603,001,2025-03-15_16h48.20.064,Utility_discrimination_2024_2cat,2024.2.4,Win32,60.24096386,,,,,,,,1,"[0.5,0.5]","[0.924,0.383]",d,"[0.871491164543609,0.5]","[0.12850883545639102,0.5]",508.3856,510.6988,1,s,1,0.7863,,0.112109227,0.336105878,0.223996651,510.7025,510.7025,0,191,191,191,1,0.371491165,0.371491165,shape_difference0,1,,TRUE,,intensity,0.1,0.05,0.7,0.3,0.82,20,400,1E-11,3.5,0.01,0.5,0.1,,,,,,,,,,,,,,,,,,,,,,,,,,,,,,,,,,,,,,,,,,,,,,,,,,,,,,,,,,,,,,,,,,,,,,,,,,,,,,,,,
