Consent.started,Consent.stopped,key_resp.keys,key_resp.rt,key_resp.duration,participant,session,date,expName,psychopyVersion,OS,frameRate,SetupExperiment.started,SetupExperiment.stopped,DiscrimInstructions_Pre.started,DiscrimInstructions_Pre.stopped,KeyboardResponse.keys,KeyboardResponse.rt,KeyboardResponse.duration,feature_index,feature_center,feature_vector,correct_answer,coord1,coord2,DiscriminationTrial.started,DiscriminationTrial.stopped,PreTest.response,Resp_s_or_d.keys,Resp_s_or_d.corr,Resp_s_or_d.rt,Resp_s_or_d.duration,PreTest.CI_lower,PreTest.CI_upper,PreTest.CI_width,CrashPretest_2.started,CrashPretest_2.stopped,PreTest.thisRepN,PreTest.thisTrialN,PreTest.thisN,PreTest.thisIndex,PreTest.ran,PreTest.intensity,intensity,PreTest.label,PreTest.nReps,PreTest.method,PreTest.autoLog,PreTest.seed,PreTest.varName,PreTest.startVal,PreTest.minVal,PreTest.maxVal,PreTest.startValSd,PreTest.pThreshold,PreTest.nTrials,PreTest.maxTrials,PreTest.stopInterval,PreTest.beta,PreTest.delta,PreTest.gamma,PreTest.grain,WelcomeToCategorizationTask.started,WelcomeToCategorizationTask.stopped,PressAnyKey3.keys,PressAnyKey3.rt,PressAnyKey3.duration,shape_coordinates,category_center,category_sigma,subspace_center,subspace_vector1,subspace_vector2,CategorizationTrial.started,CategorizationTrial.stopped,Respond_1or2.keys,Respond_1or2.rt,Respond_1or2.duration,Feedback.started,Feedback.stopped,xcoord,ycoord,shape_coord,numeric_response_minus1,correctness,truecategory,mixture_index,respAifA,respBifA,respAifB,respBifB,trial_number,D,muAx,muAy,muBx,muBy,sigmaA,sigmaB,priorA,priorB,TrialLoop.thisRepN,TrialLoop.thisTrialN,TrialLoop.thisN,TrialLoop.thisIndex,TrialLoop.ran,DiscriminationInstructions_Post.started,DiscriminationInstructions_Post.stopped,key_resp_2.keys,key_resp_2.rt,key_resp_2.duration,PostTest.response,PostTest.CI_lower,PostTest.CI_upper,PostTest.CI_width,CrashPosttest.started,CrashPosttest.stopped,PostTest.thisRepN,PostTest.thisTrialN,PostTest.thisN,PostTest.thisIndex,PostTest.ran,PostTest.intensity,PostTest.label,PostTest.nReps,PostTest.method,PostTest.autoLog,PostTest.seed,PostTest.varName,PostTest.startVal,PostTest.minVal,PostTest.maxVal,PostTest.startValSd,PostTest.pThreshold,PostTest.nTrials,PostTest.maxTrials,PostTest.stopInterval,PostTest.beta,PostTest.delta,PostTest.gamma,PostTest.grain,Thanks.started,Thanks.stopped
0.0003,55.5534,y,55.5216,,664805,001,2025-03-14_19h38.57.391,Utility_discrimination_2024_2cat,2024.2.4,Win32,60.24096386,,,,,,,,,,,,,,,,,,,,,,,,,,,,,,,,,,,,,,,,,,,,,,,,,,,,,,,,,,,,,,,,,,,,,,,,,,,,,,,,,,,,,,,,,,,,,,,,,,,,,,,,,,,,,,,,,,,,,,,,,,,,,,,,,,,
,,,,,664805,001,2025-03-14_19h38.57.391,Utility_discrimination_2024_2cat,2024.2.4,Win32,60.24096386,55.5536,55.5537,,,,,,,,,,,,,,,,,,,,,,,,,,,,,,,,,,,,,,,,,,,,,,,,,,,,,,,,,,,,,,,,,,,,,,,,,,,,,,,,,,,,,,,,,,,,,,,,,,,,,,,,,,,,,,,,,,,,,,,,,,,,,,,,,
,,,,,664805,001,2025-03-14_19h38.57.391,Utility_discrimination_2024_2cat,2024.2.4,Win32,60.24096386,,,55.5538,392.3296,space,336.7347,,,,,,,,,,,,,,,,,,,,,,,,,,,,,,,,,,,,,,,,,,,,,,,,,,,,,,,,,,,,,,,,,,,,,,,,,,,,,,,,,,,,,,,,,,,,,,,,,,,,,,,,,,,,,,,,,,,,,,,,,,,,,
,,,,,664805,001,2025-03-14_19h38.57.391,Utility_discrimination_2024_2cat,2024.2.4,Win32,60.24096386,,,,,,,,1,"[0.5,0.5]","[0.924,0.383]",,"[0.6185239449756466,0.5]","[0.3814760550243534,0.5]",392.3543,394.7475,1,s,1,0.8568,,-0.447967632,0.547967632,0.995935263,394.7499,394.75,0,0,0,0,1,0.118523945,0.118523945,shape_difference2,1,,TRUE,,intensity,0.1,0.05,0.7,0.3,0.82,20,400,1E-11,3.5,0.01,0.5,0.1,,,,,,,,,,,,,,,,,,,,,,,,,,,,,,,,,,,,,,,,,,,,,,,,,,,,,,,,,,,,,,,,,,,,,,,,,,,,,,,,,
,,,,,664805,001,2025-03-14_19h38.57.391,Utility_discrimination_2024_2cat,2024.2.4,Win32,60.24096386,,,,,,,,4,"[0.5,0.5]","[0,1]",s,"[0.6095161251574974,0.5453946709256726]","[0.3904838748425025,0.4546053290743273]",394.7507,397.0299,0,s,0,0.7347,,-0.447967632,0.547967632,0.995935263,397.0324,397.0324,0,1,1,1,1,0.118523945,0.118523945,shape_difference1,1,,TRUE,,intensity,0.1,0.05,0.7,0.3,0.82,20,400,1E-11,3.5,0.01,0.5,0.1,,,,,,,,,,,,,,,,,,,,,,,,,,,,,,,,,,,,,,,,,,,,,,,,,,,,,,,,,,,,,,,,,,,,,,,,,,,,,,,,,
,,,,,664805,001,2025-03-14_19h38.57.391,Utility_discrimination_2024_2cat,2024.2.4,Win32,60.24096386,,,,,,,,0,"[0.5,0.5]","[1,0]",d,"[0.5,0.6185239449756466]","[0.5,0.3814760550243534]",397.0334,399.3512,1,s,1,0.7846,,-0.447967632,0.547967632,0.995935263,399.3524,399.3524,0,2,2,2,1,0.118523945,0.118523945,shape_difference4,1,,TRUE,,intensity,0.1,0.05,0.7,0.3,0.82,20,400,1E-11,3.5,0.01,0.5,0.1,,,,,,,,,,,,,,,,,,,,,,,,,,,,,,,,,,,,,,,,,,,,,,,,,,,,,,,,,,,,,,,,,,,,,,,,,,,,,,,,,
,,,,,664805,001,2025-03-14_19h38.57.391,Utility_discrimination_2024_2cat,2024.2.4,Win32,60.24096386,,,,,,,,3,"[0.5,0.5]","[0.383,0.924]",s,"[0.6185239449756466,0.5]","[0.3814760550243534,0.5]",399.3537,401.6632,1,s,1,0.7755,,-0.447967632,0.547967632,0.995935263,401.6662,401.6662,0,3,3,3,1,0.118523945,0.118523945,shape_difference0,1,,TRUE,,intensity,0.1,0.05,0.7,0.3,0.82,20,400,1E-11,3.5,0.01,0.5,0.1,,,,,,,,,,,,,,,,,,,,,,,,,,,,,,,,,,,,,,,,,,,,,,,,,,,,,,,,,,,,,,,,,,,,,,,,,,,,,,,,,
,,,,,664805,001,2025-03-14_19h38.57.391,Utility_discrimination_2024_2cat,2024.2.4,Win32,60.24096386,,,,,,,,2,"[0.5,0.5]","[0.707,0.707]",s,"[0.5453946709256726,0.6095161251574974]","[0.4546053290743273,0.3904838748425025]",401.6673,403.9466,0,s,0,0.7421,,-0.479157219,0.478510979,0.957668197,403.9494,403.9494,0,4,4,4,1,0.118523945,0.118523945,shape_difference3,1,,TRUE,,intensity,0.1,0.05,0.7,0.3,0.82,20,400,1E-11,3.5,0.01,0.5,0.1,,,,,,,,,,,,,,,,,,,,,,,,,,,,,,,,,,,,,,,,,,,,,,,,,,,,,,,,,,,,,,,,,,,,,,,,,,,,,,,,,
,,,,,664805,001,2025-03-14_19h38.57.391,Utility_discrimination_2024_2cat,2024.2.4,Win32,60.24096386,,,,,,,,3,"[0.5,0.5]","[0.383,0.924]",d,"[0.5261601218135545,0.5261601218135545]","[0.4738398781864455,0.4738398781864455]",403.9503,406.0292,1,s,1,0.5364,,0.008797352,0.664308158,0.655510806,406.0319,406.0319,0,5,5,5,1,0.037001587,0.037001587,shape_difference2,1,,TRUE,,intensity,0.1,0.05,0.7,0.3,0.82,20,400,1E-11,3.5,0.01,0.5,0.1,,,,,,,,,,,,,,,,,,,,,,,,,,,,,,,,,,,,,,,,,,,,,,,,,,,,,,,,,,,,,,,,,,,,,,,,,,,,,,,,,
,,,,,664805,001,2025-03-14_19h38.57.391,Utility_discrimination_2024_2cat,2024.2.4,Win32,60.24096386,,,,,,,,1,"[0.5,0.5]","[0.924,0.383]",s,"[0.6243672079123823,0.8000399480706037]","[0.37563279208761774,0.19996005192939625]",406.0326,408.4793,1,d,1,0.908,,0.008797352,0.664308158,0.655510806,408.4812,408.4812,0,6,6,6,1,0.324718559,0.324718559,shape_difference3,1,,TRUE,,intensity,0.1,0.05,0.7,0.3,0.82,20,400,1E-11,3.5,0.01,0.5,0.1,,,,,,,,,,,,,,,,,,,,,,,,,,,,,,,,,,,,,,,,,,,,,,,,,,,,,,,,,,,,,,,,,,,,,,,,,,,,,,,,,
,,,,,664805,001,2025-03-14_19h38.57.391,Utility_discrimination_2024_2cat,2024.2.4,Win32,60.24096386,,,,,,,,0,"[0.5,0.5]","[1,0]",d,"[0.8000399480706037,0.6243672079123823]","[0.19996005192939625,0.37563279208761774]",408.4817,411.0796,1,d,1,1.0511,,-0.479157219,0.478510979,0.957668197,411.0826,411.0826,0,7,7,7,1,0.324718559,0.324718559,shape_difference1,1,,TRUE,,intensity,0.1,0.05,0.7,0.3,0.82,20,400,1E-11,3.5,0.01,0.5,0.1,,,,,,,,,,,,,,,,,,,,,,,,,,,,,,,,,,,,,,,,,,,,,,,,,,,,,,,,,,,,,,,,,,,,,,,,,,,,,,,,,
,,,,,664805,001,2025-03-14_19h38.57.391,Utility_discrimination_2024_2cat,2024.2.4,Win32,60.24096386,,,,,,,,4,"[0.5,0.5]","[0,1]",d,"[0.5370015867235566,0.5]","[0.4629984132764434,0.5]",411.0834,413.5801,1,s,1,0.9539,,-0.479157219,0.478510979,0.957668197,413.583,413.5831,0,8,8,8,1,0.037001587,0.037001587,shape_difference0,1,,TRUE,,intensity,0.1,0.05,0.7,0.3,0.82,20,400,1E-11,3.5,0.01,0.5,0.1,,,,,,,,,,,,,,,,,,,,,,,,,,,,,,,,,,,,,,,,,,,,,,,,,,,,,,,,,,,,,,,,,,,,,,,,,,,,,,,,,
,,,,,664805,001,2025-03-14_19h38.57.391,Utility_discrimination_2024_2cat,2024.2.4,Win32,60.24096386,,,,,,,,3,"[0.5,0.5]","[0.383,0.924]",s,"[0.5,0.5370015867235566]","[0.5,0.4629984132764434]",413.5848,415.979,0,s,0,0.8592,,-0.003741292,0.604569979,0.608311271,415.9819,415.982,0,9,9,9,1,0.037001587,0.037001587,shape_difference4,1,,TRUE,,intensity,0.1,0.05,0.7,0.3,0.82,20,400,1E-11,3.5,0.01,0.5,0.1,,,,,,,,,,,,,,,,,,,,,,,,,,,,,,,,,,,,,,,,,,,,,,,,,,,,,,,,,,,,,,,,,,,,,,,,,,,,,,,,,
,,,,,664805,001,2025-03-14_19h38.57.391,Utility_discrimination_2024_2cat,2024.2.4,Win32,60.24096386,,,,,,,,4,"[0.5,0.5]","[0,1]",d,"[0.6052550436813765,0.7539312280981512]","[0.3947449563186235,0.2460687719018489]",415.9829,418.1795,1,d,1,0.654,,-0.090065158,0.591798206,0.681863364,418.1829,418.1829,0,10,10,10,1,0.274817346,0.274817346,shape_difference3,1,,TRUE,,intensity,0.1,0.05,0.7,0.3,0.82,20,400,1E-11,3.5,0.01,0.5,0.1,,,,,,,,,,,,,,,,,,,,,,,,,,,,,,,,,,,,,,,,,,,,,,,,,,,,,,,,,,,,,,,,,,,,,,,,,,,,,,,,,
,,,,,664805,001,2025-03-14_19h38.57.391,Utility_discrimination_2024_2cat,2024.2.4,Win32,60.24096386,,,,,,,,2,"[0.5,0.5]","[0.707,0.707]",d,"[0.5,0.7256621725789216]","[0.5,0.2743378274210784]",418.1842,420.4961,1,s,1,0.7748,,-0.510435314,0.404710629,0.915145943,420.4985,420.4985,0,11,11,11,1,0.225662173,0.225662173,shape_difference4,1,,TRUE,,intensity,0.1,0.05,0.7,0.3,0.82,20,400,1E-11,3.5,0.01,0.5,0.1,,,,,,,,,,,,,,,,,,,,,,,,,,,,,,,,,,,,,,,,,,,,,,,,,,,,,,,,,,,,,,,,,,,,,,,,,,,,,,,,,
,,,,,664805,001,2025-03-14_19h38.57.391,Utility_discrimination_2024_2cat,2024.2.4,Win32,60.24096386,,,,,,,,0,"[0.5,0.5]","[1,0]",s,"[0.47365134701532874,0.47365134701532874]","[0.5263486529846713,0.5263486529846713]",420.4993,423.0629,1,d,1,1.0287,,-0.510435314,0.404710629,0.915145943,423.0655,423.0656,0,12,12,12,1,-0.03726825,-0.03726825,shape_difference2,1,,TRUE,,intensity,0.1,0.05,0.7,0.3,0.82,20,400,1E-11,3.5,0.01,0.5,0.1,,,,,,,,,,,,,,,,,,,,,,,,,,,,,,,,,,,,,,,,,,,,,,,,,,,,,,,,,,,,,,,,,,,,,,,,,,,,,,,,,
,,,,,664805,001,2025-03-14_19h38.57.391,Utility_discrimination_2024_2cat,2024.2.4,Win32,60.24096386,,,,,,,,1,"[0.5,0.5]","[0.924,0.383]",d,"[0.4627317496680746,0.5]","[0.5372682503319254,0.5]",423.0671,425.3461,1,s,1,0.7391,,-0.003741292,0.604569979,0.608311271,425.349,425.3492,0,13,13,13,1,-0.03726825,-0.03726825,shape_difference0,1,,TRUE,,intensity,0.1,0.05,0.7,0.3,0.82,20,400,1E-11,3.5,0.01,0.5,0.1,,,,,,,,,,,,,,,,,,,,,,,,,,,,,,,,,,,,,,,,,,,,,,,,,,,,,,,,,,,,,,,,,,,,,,,,,,,,,,,,,
,,,,,664805,001,2025-03-14_19h38.57.391,Utility_discrimination_2024_2cat,2024.2.4,Win32,60.24096386,,,,,,,,1,"[0.5,0.5]","[0.924,0.383]",s,"[0.7539312280981512,0.6052550436813765]","[0.2460687719018489,0.3947449563186235]",425.3499,427.7627,1,d,1,0.8725,,-0.026700702,0.552121039,0.578821741,427.7646,427.7647,0,14,14,14,1,0.274817346,0.274817346,shape_difference1,1,,TRUE,,intensity,0.1,0.05,0.7,0.3,0.82,20,400,1E-11,3.5,0.01,0.5,0.1,,,,,,,,,,,,,,,,,,,,,,,,,,,,,,,,,,,,,,,,,,,,,,,,,,,,,,,,,,,,,,,,,,,,,,,,,,,,,,,,,
,,,,,664805,001,2025-03-14_19h38.57.391,Utility_discrimination_2024_2cat,2024.2.4,Win32,60.24096386,,,,,,,,0,"[0.5,0.5]","[1,0]",d,"[0.7182179619957938,0.5904518175805076]","[0.2817820380042062,0.4095481824194924]",427.7656,430.1294,1,s,1,0.8179,,-0.540713527,0.322166073,0.862879599,430.1316,430.1316,0,15,15,15,1,0.236166626,0.236166626,shape_difference1,1,,TRUE,,intensity,0.1,0.05,0.7,0.3,0.82,20,400,1E-11,3.5,0.01,0.5,0.1,,,,,,,,,,,,,,,,,,,,,,,,,,,,,,,,,,,,,,,,,,,,,,,,,,,,,,,,,,,,,,,,,,,,,,,,,,,,,,,,,
,,,,,664805,001,2025-03-14_19h38.57.391,Utility_discrimination_2024_2cat,2024.2.4,Win32,60.24096386,,,,,,,,2,"[0.5,0.5]","[0.707,0.707]",s,"[0.40339734014384304,0.5]","[0.5966026598561569,0.5]",430.1324,432.396,1,s,1,0.7237,,-0.540713527,0.322166073,0.862879599,432.398,432.398,0,16,16,16,1,-0.09660266,-0.09660266,shape_difference0,1,,TRUE,,intensity,0.1,0.05,0.7,0.3,0.82,20,400,1E-11,3.5,0.01,0.5,0.1,,,,,,,,,,,,,,,,,,,,,,,,,,,,,,,,,,,,,,,,,,,,,,,,,,,,,,,,,,,,,,,,,,,,,,,,,,,,,,,,,
,,,,,664805,001,2025-03-14_19h38.57.391,Utility_discrimination_2024_2cat,2024.2.4,Win32,60.24096386,,,,,,,,4,"[0.5,0.5]","[0,1]",s,"[0.431701919481697,0.431701919481697]","[0.568298080518303,0.568298080518303]",432.3993,434.562,1,s,1,0.6274,,-0.09936101,0.537490534,0.636851544,434.5655,434.5655,0,17,17,17,1,-0.09660266,-0.09660266,shape_difference2,1,,TRUE,,intensity,0.1,0.05,0.7,0.3,0.82,20,400,1E-11,3.5,0.01,0.5,0.1,,,,,,,,,,,,,,,,,,,,,,,,,,,,,,,,,,,,,,,,,,,,,,,,,,,,,,,,,,,,,,,,,,,,,,,,,,,,,,,,,
,,,,,664805,001,2025-03-14_19h38.57.391,Utility_discrimination_2024_2cat,2024.2.4,Win32,60.24096386,,,,,,,,3,"[0.5,0.5]","[0.383,0.924]",s,"[0.5,0.6717231163357056]","[0.5,0.3282768836642944]",434.5666,436.7121,0,s,0,0.6079,,-0.026700702,0.552121039,0.578821741,436.7145,436.7146,0,18,18,18,1,0.171723116,0.171723116,shape_difference4,1,,TRUE,,intensity,0.1,0.05,0.7,0.3,0.82,20,400,1E-11,3.5,0.01,0.5,0.1,,,,,,,,,,,,,,,,,,,,,,,,,,,,,,,,,,,,,,,,,,,,,,,,,,,,,,,,,,,,,,,,,,,,,,,,,,,,,,,,,
,,,,,664805,001,2025-03-14_19h38.57.391,Utility_discrimination_2024_2cat,2024.2.4,Win32,60.24096386,,,,,,,,0,"[0.5,0.5]","[1,0]",d,"[0.5904518175805076,0.7182179619957938]","[0.4095481824194924,0.2817820380042062]",436.7155,438.8955,1,d,1,0.6394,,-0.569624043,0.240042019,0.809666061,438.8991,438.8991,0,19,19,19,1,0.236166626,0.236166626,shape_difference3,1,,TRUE,,intensity,0.1,0.05,0.7,0.3,0.82,20,400,1E-11,3.5,0.01,0.5,0.1,,,,,,,,,,,,,,,,,,,,,,,,,,,,,,,,,,,,,,,,,,,,,,,,,,,,,,,,,,,,,,,,,,,,,,,,,,,,,,,,,
,,,,,664805,001,2025-03-14_19h38.57.391,Utility_discrimination_2024_2cat,2024.2.4,Win32,60.24096386,,,,,,,,3,"[0.5,0.5]","[0.383,0.924]",d,"[0.35243994249424015,0.5]","[0.6475600575057598,0.5]",438.9002,441.1291,1,s,1,0.688,,-0.050981617,0.494068035,0.545049652,441.1315,441.1315,0,20,20,20,1,-0.147560058,-0.147560058,shape_difference0,1,,TRUE,,intensity,0.1,0.05,0.7,0.3,0.82,20,400,1E-11,3.5,0.01,0.5,0.1,,,,,,,,,,,,,,,,,,,,,,,,,,,,,,,,,,,,,,,,,,,,,,,,,,,,,,,,,,,,,,,,,,,,,,,,,,,,,,,,,
,,,,,664805,001,2025-03-14_19h38.57.391,Utility_discrimination_2024_2cat,2024.2.4,Win32,60.24096386,,,,,,,,2,"[0.5,0.5]","[0.707,0.707]",s,"[0.5753418592221956,0.6817646943115111]","[0.4246581407778044,0.3182353056884889]",441.1322,443.3625,1,d,1,0.6914,,-0.569624043,0.240042019,0.809666061,443.3652,443.3652,0,21,21,21,1,0.196715037,0.196715037,shape_difference3,1,,TRUE,,intensity,0.1,0.05,0.7,0.3,0.82,20,400,1E-11,3.5,0.01,0.5,0.1,,,,,,,,,,,,,,,,,,,,,,,,,,,,,,,,,,,,,,,,,,,,,,,,,,,,,,,,,,,,,,,,,,,,,,,,,,,,,,,,,
,,,,,664805,001,2025-03-14_19h38.57.391,Utility_discrimination_2024_2cat,2024.2.4,Win32,60.24096386,,,,,,,,4,"[0.5,0.5]","[0,1]",d,"[0.39567503934342785,0.39567503934342785]","[0.6043249606565722,0.6043249606565722]",443.3661,445.6124,1,s,1,0.7061,,0.064206312,0.666780888,0.602574576,445.6152,445.6152,0,22,22,22,1,-0.147560058,-0.147560058,shape_difference2,1,,TRUE,,intensity,0.1,0.05,0.7,0.3,0.82,20,400,1E-11,3.5,0.01,0.5,0.1,,,,,,,,,,,,,,,,,,,,,,,,,,,,,,,,,,,,,,,,,,,,,,,,,,,,,,,,,,,,,,,,,,,,,,,,,,,,,,,,,
,,,,,664805,001,2025-03-14_19h38.57.391,Utility_discrimination_2024_2cat,2024.2.4,Win32,60.24096386,,,,,,,,1,"[0.5,0.5]","[0.924,0.383]",s,"[0.5,0.8400297212439484]","[0.5,0.15997027875605163]",445.6162,447.7957,1,d,1,0.6404,,-0.050981617,0.494068035,0.545049652,447.799,447.7991,0,23,23,23,1,0.340029721,0.340029721,shape_difference4,1,,TRUE,,intensity,0.1,0.05,0.7,0.3,0.82,20,400,1E-11,3.5,0.01,0.5,0.1,,,,,,,,,,,,,,,,,,,,,,,,,,,,,,,,,,,,,,,,,,,,,,,,,,,,,,,,,,,,,,,,,,,,,,,,,,,,,,,,,
,,,,,664805,001,2025-03-14_19h38.57.391,Utility_discrimination_2024_2cat,2024.2.4,Win32,60.24096386,,,,,,,,4,"[0.5,0.5]","[0,1]",d,"[0.6817646943115111,0.5753418592221956]","[0.3182353056884889,0.4246581407778044]",447.8001,450.6127,1,s,1,1.2699,,0.046106493,0.612747238,0.566640745,450.6155,450.6155,0,24,24,24,1,0.196715037,0.196715037,shape_difference1,1,,TRUE,,intensity,0.1,0.05,0.7,0.3,0.82,20,400,1E-11,3.5,0.01,0.5,0.1,,,,,,,,,,,,,,,,,,,,,,,,,,,,,,,,,,,,,,,,,,,,,,,,,,,,,,,,,,,,,,,,,,,,,,,,,,,,,,,,,
,,,,,664805,001,2025-03-14_19h38.57.391,Utility_discrimination_2024_2cat,2024.2.4,Win32,60.24096386,,,,,,,,0,"[0.5,0.5]","[1,0]",s,"[0.5,0.7937624942698775]","[0.5,0.20623750573012245]",450.6172,452.7788,1,d,1,0.6189,,-0.588261172,0.151848651,0.740109824,452.7816,452.7817,0,25,25,25,1,0.293762494,0.293762494,shape_difference4,1,,TRUE,,intensity,0.1,0.05,0.7,0.3,0.82,20,400,1E-11,3.5,0.01,0.5,0.1,,,,,,,,,,,,,,,,,,,,,,,,,,,,,,,,,,,,,,,,,,,,,,,,,,,,,,,,,,,,,,,,,,,,,,,,,,,,,,,,,
,,,,,664805,001,2025-03-14_19h38.57.391,Utility_discrimination_2024_2cat,2024.2.4,Win32,60.24096386,,,,,,,,1,"[0.5,0.5]","[0.924,0.383]",d,"[0.3089903613102919,0.5]","[0.6910096386897081,0.5]",452.7825,455.5289,1,s,1,1.2117,,-0.067097964,0.445046575,0.512144539,455.531,455.531,0,26,26,26,1,-0.191009639,-0.191009639,shape_difference0,1,,TRUE,,intensity,0.1,0.05,0.7,0.3,0.82,20,400,1E-11,3.5,0.01,0.5,0.1,,,,,,,,,,,,,,,,,,,,,,,,,,,,,,,,,,,,,,,,,,,,,,,,,,,,,,,,,,,,,,,,,,,,,,,,,,,,,,,,,
,,,,,664805,001,2025-03-14_19h38.57.391,Utility_discrimination_2024_2cat,2024.2.4,Win32,60.24096386,,,,,,,,2,"[0.5,0.5]","[0.707,0.707]",s,"[0.657167979377494,0.5651464676424028]","[0.34283202062250595,0.43485353235759716]",455.5322,457.8787,1,s,1,0.8032,,-0.588261172,0.151848651,0.740109824,457.8818,457.8819,0,27,27,27,1,0.170095216,0.170095216,shape_difference1,1,,TRUE,,intensity,0.1,0.05,0.7,0.3,0.82,20,400,1E-11,3.5,0.01,0.5,0.1,,,,,,,,,,,,,,,,,,,,,,,,,,,,,,,,,,,,,,,,,,,,,,,,,,,,,,,,,,,,,,,,,,,,,,,,,,,,,,,,,
,,,,,664805,001,2025-03-14_19h38.57.391,Utility_discrimination_2024_2cat,2024.2.4,Win32,60.24096386,,,,,,,,3,"[0.5,0.5]","[0.383,0.924]",s,"[0.3649561854463764,0.3649561854463764]","[0.6350438145536236,0.6350438145536236]",457.8827,460.1124,1,d,1,0.6845,,-0.067097964,0.445046575,0.512144539,460.1141,460.1142,0,28,28,28,1,-0.191009639,-0.191009639,shape_difference2,1,,TRUE,,intensity,0.1,0.05,0.7,0.3,0.82,20,400,1E-11,3.5,0.01,0.5,0.1,,,,,,,,,,,,,,,,,,,,,,,,,,,,,,,,,,,,,,,,,,,,,,,,,,,,,,,,,,,,,,,,,,,,,,,,,,,,,,,,,
,,,,,664805,001,2025-03-14_19h38.57.391,Utility_discrimination_2024_2cat,2024.2.4,Win32,60.24096386,,,,,,,,2,"[0.5,0.5]","[0.707,0.707]",d,"[0.5651464676424028,0.657167979377494]","[0.43485353235759716,0.34283202062250595]",460.1151,462.3953,1,s,1,0.736,,-0.616056949,0.077962516,0.694019466,462.3977,462.3978,0,29,29,29,1,0.170095216,0.170095216,shape_difference3,1,,TRUE,,intensity,0.1,0.05,0.7,0.3,0.82,20,400,1E-11,3.5,0.01,0.5,0.1,,,,,,,,,,,,,,,,,,,,,,,,,,,,,,,,,,,,,,,,,,,,,,,,,,,,,,,,,,,,,,,,,,,,,,,,,,,,,,,,,
,,,,,664805,001,2025-03-14_19h38.57.391,Utility_discrimination_2024_2cat,2024.2.4,Win32,60.24096386,,,,,,,,3,"[0.5,0.5]","[0.383,0.924]",s,"[0.33483614350409285,0.33483614350409285]","[0.6651638564959071,0.6651638564959071]",462.3983,464.7784,1,d,1,0.8386,,-0.078138993,0.387434732,0.465573725,464.7806,464.7806,0,30,30,30,1,-0.233612244,-0.233612244,shape_difference2,1,,TRUE,,intensity,0.1,0.05,0.7,0.3,0.82,20,400,1E-11,3.5,0.01,0.5,0.1,,,,,,,,,,,,,,,,,,,,,,,,,,,,,,,,,,,,,,,,,,,,,,,,,,,,,,,,,,,,,,,,,,,,,,,,,,,,,,,,,
,,,,,664805,001,2025-03-14_19h38.57.391,Utility_discrimination_2024_2cat,2024.2.4,Win32,60.24096386,,,,,,,,4,"[0.5,0.5]","[0,1]",d,"[0.5564554358066998,0.6362005814239964]","[0.44354456419330024,0.3637994185760036]",464.7819,467.1623,0,d,0,0.8422,,0.034258812,0.562756016,0.528497204,467.1652,467.1653,0,31,31,31,1,0.147403227,0.147403227,shape_difference3,1,,TRUE,,intensity,0.1,0.05,0.7,0.3,0.82,20,400,1E-11,3.5,0.01,0.5,0.1,,,,,,,,,,,,,,,,,,,,,,,,,,,,,,,,,,,,,,,,,,,,,,,,,,,,,,,,,,,,,,,,,,,,,,,,,,,,,,,,,
,,,,,664805,001,2025-03-14_19h38.57.391,Utility_discrimination_2024_2cat,2024.2.4,Win32,60.24096386,,,,,,,,1,"[0.5,0.5]","[0.924,0.383]",s,"[0.5,0.7622926100884712]","[0.5,0.23770738991152884]",467.166,469.4954,1,s,1,0.7925,,-0.078138993,0.387434732,0.465573725,469.4972,469.4972,0,32,32,32,1,0.26229261,0.26229261,shape_difference4,1,,TRUE,,intensity,0.1,0.05,0.7,0.3,0.82,20,400,1E-11,3.5,0.01,0.5,0.1,,,,,,,,,,,,,,,,,,,,,,,,,,,,,,,,,,,,,,,,,,,,,,,,,,,,,,,,,,,,,,,,,,,,,,,,,,,,,,,,,
,,,,,664805,001,2025-03-14_19h38.57.391,Utility_discrimination_2024_2cat,2024.2.4,Win32,60.24096386,,,,,,,,0,"[0.5,0.5]","[1,0]",s,"[0.6362005814239964,0.5564554358066998]","[0.3637994185760036,0.44354456419330024]",469.4981,471.762,0,s,0,0.7233,,-0.616056949,0.077962516,0.694019466,471.7648,471.7648,0,33,33,33,1,0.147403227,0.147403227,shape_difference1,1,,TRUE,,intensity,0.1,0.05,0.7,0.3,0.82,20,400,1E-11,3.5,0.01,0.5,0.1,,,,,,,,,,,,,,,,,,,,,,,,,,,,,,,,,,,,,,,,,,,,,,,,,,,,,,,,,,,,,,,,,,,,,,,,,,,,,,,,,
,,,,,664805,001,2025-03-14_19h38.57.391,Utility_discrimination_2024_2cat,2024.2.4,Win32,60.24096386,,,,,,,,0,"[0.5,0.5]","[1,0]",d,"[0.2663877560171044,0.5]","[0.7336122439828956,0.5]",471.7655,473.9778,1,s,1,0.6753,,-0.642600146,0.003859163,0.64645931,473.9803,473.9803,0,34,34,34,1,-0.233612244,-0.233612244,shape_difference0,1,,TRUE,,intensity,0.1,0.05,0.7,0.3,0.82,20,400,1E-11,3.5,0.01,0.5,0.1,,,,,,,,,,,,,,,,,,,,,,,,,,,,,,,,,,,,,,,,,,,,,,,,,,,,,,,,,,,,,,,,,,,,,,,,,,,,,,,,,
,,,,,664805,001,2025-03-14_19h38.57.391,Utility_discrimination_2024_2cat,2024.2.4,Win32,60.24096386,,,,,,,,3,"[0.5,0.5]","[0.383,0.924]",s,"[0.23037327588610024,0.5]","[0.7696267241138998,0.5]",473.9808,476.0618,1,s,1,0.5423,,0.013911574,0.467109402,0.453197828,476.0641,476.0641,0,35,35,35,1,-0.269626724,-0.269626724,shape_difference0,1,,TRUE,,intensity,0.1,0.05,0.7,0.3,0.82,20,400,1E-11,3.5,0.01,0.5,0.1,,,,,,,,,,,,,,,,,,,,,,,,,,,,,,,,,,,,,,,,,,,,,,,,,,,,,,,,,,,,,,,,,,,,,,,,,,,,,,,,,
,,,,,664805,001,2025-03-14_19h38.57.391,Utility_discrimination_2024_2cat,2024.2.4,Win32,60.24096386,,,,,,,,2,"[0.5,0.5]","[0.707,0.707]",s,"[0.5756241889813781,0.6824458240699567]","[0.4243758110186218,0.31755417593004326]",476.0646,478.1947,1,d,1,0.585,,-0.642600146,0.003859163,0.64645931,478.1973,478.1973,0,36,36,36,1,0.197452191,0.197452191,shape_difference3,1,,TRUE,,intensity,0.1,0.05,0.7,0.3,0.82,20,400,1E-11,3.5,0.01,0.5,0.1,,,,,,,,,,,,,,,,,,,,,,,,,,,,,,,,,,,,,,,,,,,,,,,,,,,,,,,,,,,,,,,,,,,,,,,,,,,,,,,,,
,,,,,664805,001,2025-03-14_19h38.57.391,Utility_discrimination_2024_2cat,2024.2.4,Win32,60.24096386,,,,,,,,4,"[0.5,0.5]","[0,1]",d,"[0.30937390605147286,0.30937390605147286]","[0.6906260939485271,0.6906260939485271]",478.1979,480.4957,1,d,1,0.7531,,0.026241905,0.49758731,0.471345405,480.4989,480.4989,0,37,37,37,1,-0.269626724,-0.269626724,shape_difference2,1,,TRUE,,intensity,0.1,0.05,0.7,0.3,0.82,20,400,1E-11,3.5,0.01,0.5,0.1,,,,,,,,,,,,,,,,,,,,,,,,,,,,,,,,,,,,,,,,,,,,,,,,,,,,,,,,,,,,,,,,,,,,,,,,,,,,,,,,,
,,,,,664805,001,2025-03-14_19h38.57.391,Utility_discrimination_2024_2cat,2024.2.4,Win32,60.24096386,,,,,,,,1,"[0.5,0.5]","[0.924,0.383]",d,"[0.5,0.7353586675087115]","[0.5,0.2646413324912885]",480.4999,482.8286,1,d,1,0.7866,,0.013911574,0.467109402,0.453197828,482.8305,482.8305,0,38,38,38,1,0.235358668,0.235358668,shape_difference4,1,,TRUE,,intensity,0.1,0.05,0.7,0.3,0.82,20,400,1E-11,3.5,0.01,0.5,0.1,,,,,,,,,,,,,,,,,,,,,,,,,,,,,,,,,,,,,,,,,,,,,,,,,,,,,,,,,,,,,,,,,,,,,,,,,,,,,,,,,
,,,,,664805,001,2025-03-14_19h38.57.391,Utility_discrimination_2024_2cat,2024.2.4,Win32,60.24096386,,,,,,,,0,"[0.5,0.5]","[1,0]",d,"[0.6824458240699567,0.5756241889813781]","[0.31755417593004326,0.4243758110186218]",482.831,485.1785,0,d,0,0.8082,,-0.67113939,-0.036541485,0.634597904,485.1814,485.1814,0,39,39,39,1,0.197452191,0.197452191,shape_difference1,1,,TRUE,,intensity,0.1,0.05,0.7,0.3,0.82,20,400,1E-11,3.5,0.01,0.5,0.1,,,,,,,,,,,,,,,,,,,,,,,,,,,,,,,,,,,,,,,,,,,,,,,,,,,,,,,,,,,,,,,,,,,,,,,,,,,,,,,,,
,,,,,664805,001,2025-03-14_19h38.57.391,Utility_discrimination_2024_2cat,2024.2.4,Win32,60.24096386,,,,,,,,3,"[0.5,0.5]","[0.383,0.924]",s,"[0.1898285633172705,0.5]","[0.8101714366827295,0.5]",485.1822,487.7946,1,s,1,1.0768,,0.009152004,0.411928194,0.402776189,487.7975,487.7975,0,40,40,40,1,-0.310171437,-0.310171437,shape_difference0,1,,TRUE,,intensity,0.1,0.05,0.7,0.3,0.82,20,400,1E-11,3.5,0.01,0.5,0.1,,,,,,,,,,,,,,,,,,,,,,,,,,,,,,,,,,,,,,,,,,,,,,,,,,,,,,,,,,,,,,,,,,,,,,,,,,,,,,,,,
,,,,,664805,001,2025-03-14_19h38.57.391,Utility_discrimination_2024_2cat,2024.2.4,Win32,60.24096386,,,,,,,,2,"[0.5,0.5]","[0.707,0.707]",s,"[0.5683876377436089,0.6649874080289677]","[0.43161236225639105,0.3350125919710322]",487.7982,490.2783,1,s,1,0.9401,,-0.67113939,-0.036541485,0.634597904,490.2808,490.2809,0,41,41,41,1,0.178557801,0.178557801,shape_difference3,1,,TRUE,,intensity,0.1,0.05,0.7,0.3,0.82,20,400,1E-11,3.5,0.01,0.5,0.1,,,,,,,,,,,,,,,,,,,,,,,,,,,,,,,,,,,,,,,,,,,,,,,,,,,,,,,,,,,,,,,,,,,,,,,,,,,,,,,,,
,,,,,664805,001,2025-03-14_19h38.57.391,Utility_discrimination_2024_2cat,2024.2.4,Win32,60.24096386,,,,,,,,4,"[0.5,0.5]","[0,1]",s,"[0.28070879426531026,0.28070879426531026]","[0.7192912057346897,0.7192912057346897]",490.2818,492.5453,1,d,1,0.7181,,0.017569522,0.460819634,0.443250112,492.5489,492.5489,0,42,42,42,1,-0.310171437,-0.310171437,shape_difference2,1,,TRUE,,intensity,0.1,0.05,0.7,0.3,0.82,20,400,1E-11,3.5,0.01,0.5,0.1,,,,,,,,,,,,,,,,,,,,,,,,,,,,,,,,,,,,,,,,,,,,,,,,,,,,,,,,,,,,,,,,,,,,,,,,,,,,,,,,,
,,,,,664805,001,2025-03-14_19h38.57.391,Utility_discrimination_2024_2cat,2024.2.4,Win32,60.24096386,,,,,,,,1,"[0.5,0.5]","[0.924,0.383]",d,"[0.5,0.7073433495282743]","[0.5,0.29265665047172573]",492.5502,494.9283,1,d,1,0.8386,,0.099496326,0.567077611,0.467581285,494.9311,494.9311,0,43,43,43,1,0.20734335,0.20734335,shape_difference4,1,,TRUE,,intensity,0.1,0.05,0.7,0.3,0.82,20,400,1E-11,3.5,0.01,0.5,0.1,,,,,,,,,,,,,,,,,,,,,,,,,,,,,,,,,,,,,,,,,,,,,,,,,,,,,,,,,,,,,,,,,,,,,,,,,,,,,,,,,
,,,,,664805,001,2025-03-14_19h38.57.391,Utility_discrimination_2024_2cat,2024.2.4,Win32,60.24096386,,,,,,,,3,"[0.5,0.5]","[0.383,0.924]",d,"[0.7566785994889667,0.6063938350695608]","[0.24332140051103335,0.39360616493043915]",494.932,497.3948,1,d,1,0.9231,,0.005618082,0.373835136,0.368217054,497.3971,497.3971,0,44,44,44,1,0.277790692,0.277790692,shape_difference1,1,,TRUE,,intensity,0.1,0.05,0.7,0.3,0.82,20,400,1E-11,3.5,0.01,0.5,0.1,,,,,,,,,,,,,,,,,,,,,,,,,,,,,,,,,,,,,,,,,,,,,,,,,,,,,,,,,,,,,,,,,,,,,,,,,,,,,,,,,
,,,,,664805,001,2025-03-14_19h38.57.391,Utility_discrimination_2024_2cat,2024.2.4,Win32,60.24096386,,,,,,,,4,"[0.5,0.5]","[0,1]",d,"[0.5623460294226462,0.650411830774217]","[0.4376539705773538,0.34958816922578295]",497.3976,499.6947,1,s,1,0.7553,,0.011343888,0.407493809,0.396149921,499.6968,499.6968,0,45,45,45,1,0.162783367,0.162783367,shape_difference3,1,,TRUE,,intensity,0.1,0.05,0.7,0.3,0.82,20,400,1E-11,3.5,0.01,0.5,0.1,,,,,,,,,,,,,,,,,,,,,,,,,,,,,,,,,,,,,,,,,,,,,,,,,,,,,,,,,,,,,,,,,,,,,,,,,,,,,,,,,
,,,,,664805,001,2025-03-14_19h38.57.391,Utility_discrimination_2024_2cat,2024.2.4,Win32,60.24096386,,,,,,,,1,"[0.5,0.5]","[0.924,0.383]",s,"[0.5,0.6866248210448489]","[0.5,0.31337517895515105]",499.6974,502.0281,1,s,1,0.7894,,0.079971638,0.506420458,0.42644882,502.0313,502.0313,0,46,46,46,1,0.186624821,0.186624821,shape_difference4,1,,TRUE,,intensity,0.1,0.05,0.7,0.3,0.82,20,400,1E-11,3.5,0.01,0.5,0.1,,,,,,,,,,,,,,,,,,,,,,,,,,,,,,,,,,,,,,,,,,,,,,,,,,,,,,,,,,,,,,,,,,,,,,,,,,,,,,,,,
,,,,,664805,001,2025-03-14_19h38.57.391,Utility_discrimination_2024_2cat,2024.2.4,Win32,60.24096386,,,,,,,,0,"[0.5,0.5]","[1,0]",s,"[0.736147426065106,0.5978836192456013]","[0.26385257393489403,0.4021163807543987]",502.0323,504.4118,1,s,1,0.8353,,-0.689998991,-0.095065821,0.594933171,504.4153,504.4153,0,47,47,47,1,0.255570807,0.255570807,shape_difference1,1,,TRUE,,intensity,0.1,0.05,0.7,0.3,0.82,20,400,1E-11,3.5,0.01,0.5,0.1,,,,,,,,,,,,,,,,,,,,,,,,,,,,,,,,,,,,,,,,,,,,,,,,,,,,,,,,,,,,,,,,,,,,,,,,,,,,,,,,,
,,,,,664805,001,2025-03-14_19h38.57.391,Utility_discrimination_2024_2cat,2024.2.4,Win32,60.24096386,,,,,,,,2,"[0.5,0.5]","[0.707,0.707]",s,"[0.1555533146123892,0.5]","[0.8444466853876108,0.5]",504.4163,506.8452,1,s,1,0.8871,,-0.689998991,-0.095065821,0.594933171,506.8479,506.8479,0,48,48,48,1,-0.344446685,-0.344446685,shape_difference0,1,,TRUE,,intensity,0.1,0.05,0.7,0.3,0.82,20,400,1E-11,3.5,0.01,0.5,0.1,,,,,,,,,,,,,,,,,,,,,,,,,,,,,,,,,,,,,,,,,,,,,,,,,,,,,,,,,,,,,,,,,,,,,,,,,,,,,,,,,
,,,,,664805,001,2025-03-14_19h38.57.391,Utility_discrimination_2024_2cat,2024.2.4,Win32,60.24096386,,,,,,,,3,"[0.5,0.5]","[0.383,0.924]",s,"[0.2564761934309592,0.2564761934309592]","[0.7435238065690408,0.7435238065690408]",506.8491,509.2108,1,d,1,0.8273,,0.002895189,0.332546442,0.329651253,509.2133,509.2133,0,49,49,49,1,-0.344446685,-0.344446685,shape_difference2,1,,TRUE,,intensity,0.1,0.05,0.7,0.3,0.82,20,400,1E-11,3.5,0.01,0.5,0.1,,,,,,,,,,,,,,,,,,,,,,,,,,,,,,,,,,,,,,,,,,,,,,,,,,,,,,,,,,,,,,,,,,,,,,,,,,,,,,,,,
,,,,,664805,001,2025-03-14_19h38.57.391,Utility_discrimination_2024_2cat,2024.2.4,Win32,60.24096386,,,,,,,,0,"[0.5,0.5]","[1,0]",d,"[0.5570516236515711,0.6376389040575762]","[0.44294837634842893,0.3623610959424238]",509.2146,511.5947,1,d,1,0.8412,,-0.706498112,-0.130139369,0.576358744,511.5971,511.5972,0,50,50,50,1,0.148959853,0.148959853,shape_difference3,1,,TRUE,,intensity,0.1,0.05,0.7,0.3,0.82,20,400,1E-11,3.5,0.01,0.5,0.1,,,,,,,,,,,,,,,,,,,,,,,,,,,,,,,,,,,,,,,,,,,,,,,,,,,,,,,,,,,,,,,,,,,,,,,,,,,,,,,,,
,,,,,664805,001,2025-03-14_19h38.57.391,Utility_discrimination_2024_2cat,2024.2.4,Win32,60.24096386,,,,,,,,2,"[0.5,0.5]","[0.707,0.707]",d,"[0.12491841427140571,0.5]","[0.8750815857285943,0.5]",511.5978,514.4286,1,d,1,1.2847,,-0.706498112,-0.130139369,0.576358744,514.4305,514.4305,0,51,51,51,1,-0.375081586,-0.375081586,shape_difference0,1,,TRUE,,intensity,0.1,0.05,0.7,0.3,0.82,20,400,1E-11,3.5,0.01,0.5,0.1,,,,,,,,,,,,,,,,,,,,,,,,,,,,,,,,,,,,,,,,,,,,,,,,,,,,,,,,,,,,,,,,,,,,,,,,,,,,,,,,,
,,,,,664805,001,2025-03-14_19h38.57.391,Utility_discrimination_2024_2cat,2024.2.4,Win32,60.24096386,,,,,,,,4,"[0.5,0.5]","[0,1]",d,"[0.23481731888988383,0.23481731888988383]","[0.7651826811101161,0.7651826811101161]",514.4313,516.5946,1,s,1,0.6226,,0.006719151,0.375278343,0.368559192,516.5976,516.5977,0,52,52,52,1,-0.375081586,-0.375081586,shape_difference2,1,,TRUE,,intensity,0.1,0.05,0.7,0.3,0.82,20,400,1E-11,3.5,0.01,0.5,0.1,,,,,,,,,,,,,,,,,,,,,,,,,,,,,,,,,,,,,,,,,,,,,,,,,,,,,,,,,,,,,,,,,,,,,,,,,,,,,,,,,
,,,,,664805,001,2025-03-14_19h38.57.391,Utility_discrimination_2024_2cat,2024.2.4,Win32,60.24096386,,,,,,,,1,"[0.5,0.5]","[0.924,0.383]",s,"[0.5,0.6716587022825152]","[0.5,0.32834129771748477]",516.5985,518.8446,1,s,1,0.705,,0.066280553,0.463478161,0.397197608,518.8475,518.8475,0,53,53,53,1,0.171658702,0.171658702,shape_difference4,1,,TRUE,,intensity,0.1,0.05,0.7,0.3,0.82,20,400,1E-11,3.5,0.01,0.5,0.1,,,,,,,,,,,,,,,,,,,,,,,,,,,,,,,,,,,,,,,,,,,,,,,,,,,,,,,,,,,,,,,,,,,,,,,,,,,,,,,,,
,,,,,664805,001,2025-03-14_19h38.57.391,Utility_discrimination_2024_2cat,2024.2.4,Win32,60.24096386,,,,,,,,1,"[0.5,0.5]","[0.924,0.383]",s,"[0.7181836460226098,0.5904375935353459]","[0.28181635397739024,0.4095624064646542]",518.8489,521.2608,0,d,0,0.8672,,0.113108805,0.532566539,0.419457734,521.263,521.263,0,54,54,54,1,0.236129487,0.236129487,shape_difference1,1,,TRUE,,intensity,0.1,0.05,0.7,0.3,0.82,20,400,1E-11,3.5,0.01,0.5,0.1,,,,,,,,,,,,,,,,,,,,,,,,,,,,,,,,,,,,,,,,,,,,,,,,,,,,,,,,,,,,,,,,,,,,,,,,,,,,,,,,,
,,,,,664805,001,2025-03-14_19h38.57.391,Utility_discrimination_2024_2cat,2024.2.4,Win32,60.24096386,,,,,,,,4,"[0.5,0.5]","[0,1]",s,"[0.7582740285851195,0.6070551438832259]","[0.2417259714148805,0.39294485611677404]",521.2635,523.8447,1,s,1,1.0377,,0.003159992,0.338931455,0.335771463,523.8478,523.8478,0,55,55,55,1,0.279517347,0.279517347,shape_difference1,1,,TRUE,,intensity,0.1,0.05,0.7,0.3,0.82,20,400,1E-11,3.5,0.01,0.5,0.1,,,,,,,,,,,,,,,,,,,,,,,,,,,,,,,,,,,,,,,,,,,,,,,,,,,,,,,,,,,,,,,,,,,,,,,,,,,,,,,,,
,,,,,664805,001,2025-03-14_19h38.57.391,Utility_discrimination_2024_2cat,2024.2.4,Win32,60.24096386,,,,,,,,2,"[0.5,0.5]","[0.707,0.707]",s,"[0.5,0.6587926676908765]","[0.5,0.3412073323091235]",523.8492,526.2113,1,d,1,0.8251,,-0.740475113,-0.170023005,0.570452108,526.2146,526.2146,0,56,56,56,1,0.158792668,0.158792668,shape_difference4,1,,TRUE,,intensity,0.1,0.05,0.7,0.3,0.82,20,400,1E-11,3.5,0.01,0.5,0.1,,,,,,,,,,,,,,,,,,,,,,,,,,,,,,,,,,,,,,,,,,,,,,,,,,,,,,,,,,,,,,,,,,,,,,,,,,,,,,,,,
,,,,,664805,001,2025-03-14_19h38.57.391,Utility_discrimination_2024_2cat,2024.2.4,Win32,60.24096386,,,,,,,,3,"[0.5,0.5]","[0.383,0.924]",d,"[0.20977221626856202,0.20977221626856202]","[0.790227783731438,0.790227783731438]",526.2154,528.7275,1,d,1,0.9692,,-0.004606817,0.297104218,0.301711036,528.7295,528.7295,0,57,57,57,1,-0.410506059,-0.410506059,shape_difference2,1,,TRUE,,intensity,0.1,0.05,0.7,0.3,0.82,20,400,1E-11,3.5,0.01,0.5,0.1,,,,,,,,,,,,,,,,,,,,,,,,,,,,,,,,,,,,,,,,,,,,,,,,,,,,,,,,,,,,,,,,,,,,,,,,,,,,,,,,,
,,,,,664805,001,2025-03-14_19h38.57.391,Utility_discrimination_2024_2cat,2024.2.4,Win32,60.24096386,,,,,,,,0,"[0.5,0.5]","[1,0]",d,"[0.5518289048804628,0.6250389245680094]","[0.44817109511953723,0.37496107543199064]",528.7301,531.477,1,s,1,1.2035,,-0.740475113,-0.170023005,0.570452108,531.4797,531.4797,0,58,58,58,1,0.135323511,0.135323511,shape_difference3,1,,TRUE,,intensity,0.1,0.05,0.7,0.3,0.82,20,400,1E-11,3.5,0.01,0.5,0.1,,,,,,,,,,,,,,,,,,,,,,,,,,,,,,,,,,,,,,,,,,,,,,,,,,,,,,,,,,,,,,,,,,,,,,,,,,,,,,,,,
,,,,,664805,001,2025-03-14_19h38.57.391,Utility_discrimination_2024_2cat,2024.2.4,Win32,60.24096386,,,,,,,,1,"[0.5,0.5]","[0.924,0.383]",s,"[0.08949394097392083,0.5]","[0.9105060590260792,0.5]",531.4803,533.8661,0,s,0,0.8508,,0.109875693,0.484272154,0.374396461,533.8682,533.8683,0,59,59,59,1,-0.410506059,-0.410506059,shape_difference0,1,,TRUE,,intensity,0.1,0.05,0.7,0.3,0.82,20,400,1E-11,3.5,0.01,0.5,0.1,,,,,,,,,,,,,,,,,,,,,,,,,,,,,,,,,,,,,,,,,,,,,,,,,,,,,,,,,,,,,,,,,,,,,,,,,,,,,,,,,
,,,,,664805,001,2025-03-14_19h38.57.391,Utility_discrimination_2024_2cat,2024.2.4,Win32,60.24096386,,,,,,,,4,"[0.5,0.5]","[0,1]",d,"[0.743237384462721,0.600822422347643]","[0.25676261553727897,0.39917757765235695]",533.8695,536.3947,1,s,1,0.9839,,0.000321923,0.297422764,0.297100842,536.3986,536.3986,0,60,60,60,1,0.263243923,0.263243923,shape_difference1,1,,TRUE,,intensity,0.1,0.05,0.7,0.3,0.82,20,400,1E-11,3.5,0.01,0.5,0.1,,,,,,,,,,,,,,,,,,,,,,,,,,,,,,,,,,,,,,,,,,,,,,,,,,,,,,,,,,,,,,,,,,,,,,,,,,,,,,,,,
,,,,,664805,001,2025-03-14_19h38.57.391,Utility_discrimination_2024_2cat,2024.2.4,Win32,60.24096386,,,,,,,,0,"[0.5,0.5]","[1,0]",s,"[0.5,0.6471997091638173]","[0.5,0.3528002908361827]",536.3998,538.7609,1,d,1,0.8176,,-0.511931572,-0.088683383,0.423248189,538.7625,538.7626,0,61,61,61,1,0.147199709,0.147199709,shape_difference4,1,,TRUE,,intensity,0.1,0.05,0.7,0.3,0.82,20,400,1E-11,3.5,0.01,0.5,0.1,,,,,,,,,,,,,,,,,,,,,,,,,,,,,,,,,,,,,,,,,,,,,,,,,,,,,,,,,,,,,,,,,,,,,,,,,,,,,,,,,
,,,,,664805,001,2025-03-14_19h38.57.391,Utility_discrimination_2024_2cat,2024.2.4,Win32,60.24096386,,,,,,,,2,"[0.5,0.5]","[0.707,0.707]",d,"[0.18730434427723142,0.5]","[0.8126956557227686,0.5]",538.7631,541.1609,1,s,1,0.8512,,-0.763304889,-0.210959736,0.552345154,541.1636,541.1637,0,62,62,62,1,-0.312695656,-0.312695656,shape_difference0,1,,TRUE,,intensity,0.1,0.05,0.7,0.3,0.82,20,400,1E-11,3.5,0.01,0.5,0.1,,,,,,,,,,,,,,,,,,,,,,,,,,,,,,,,,,,,,,,,,,,,,,,,,,,,,,,,,,,,,,,,,,,,,,,,,,,,,,,,,
,,,,,664805,001,2025-03-14_19h38.57.391,Utility_discrimination_2024_2cat,2024.2.4,Win32,60.24096386,,,,,,,,3,"[0.5,0.5]","[0.383,0.924]",s,"[0.18891985560226848,0.18891985560226848]","[0.8110801443977316,0.8110801443977316]",541.1644,543.5273,1,d,1,0.8181,,-0.026856274,0.282890696,0.30974697,543.5295,543.5295,0,63,63,63,1,-0.440000204,-0.440000204,shape_difference2,1,,TRUE,,intensity,0.1,0.05,0.7,0.3,0.82,20,400,1E-11,3.5,0.01,0.5,0.1,,,,,,,,,,,,,,,,,,,,,,,,,,,,,,,,,,,,,,,,,,,,,,,,,,,,,,,,,,,,,,,,,,,,,,,,,,,,,,,,,
,,,,,664805,001,2025-03-14_19h38.57.391,Utility_discrimination_2024_2cat,2024.2.4,Win32,60.24096386,,,,,,,,4,"[0.5,0.5]","[0,1]",d,"[0.5461433872702873,0.6113224277747924]","[0.45385661272971267,0.3886775722252076]",543.5302,546.1774,1,s,1,1.1045,,-0.027463102,0.285952249,0.313415351,546.1812,546.1812,0,64,64,64,1,0.120478818,0.120478818,shape_difference3,1,,TRUE,,intensity,0.1,0.05,0.7,0.3,0.82,20,400,1E-11,3.5,0.01,0.5,0.1,,,,,,,,,,,,,,,,,,,,,,,,,,,,,,,,,,,,,,,,,,,,,,,,,,,,,,,,,,,,,,,,,,,,,,,,,,,,,,,,,
,,,,,664805,001,2025-03-14_19h38.57.391,Utility_discrimination_2024_2cat,2024.2.4,Win32,60.24096386,,,,,,,,0,"[0.5,0.5]","[1,0]",s,"[0.5,0.6350566797773624]","[0.5,0.36494332022263765]",546.1822,548.6276,1,s,1,0.9007,,-0.531733255,-0.120419453,0.411313802,548.63,548.63,0,65,65,65,1,0.13505668,0.13505668,shape_difference4,1,,TRUE,,intensity,0.1,0.05,0.7,0.3,0.82,20,400,1E-11,3.5,0.01,0.5,0.1,,,,,,,,,,,,,,,,,,,,,,,,,,,,,,,,,,,,,,,,,,,,,,,,,,,,,,,,,,,,,,,,,,,,,,,,,,,,,,,,,
,,,,,664805,001,2025-03-14_19h38.57.391,Utility_discrimination_2024_2cat,2024.2.4,Win32,60.24096386,,,,,,,,1,"[0.5,0.5]","[0.924,0.383]",s,"[0.1673420156106431,0.5]","[0.8326579843893569,0.5]",548.6307,551.3771,0,d,0,1.2081,,0.107455473,0.444818087,0.337362613,551.3796,551.3796,0,66,66,66,1,-0.332657984,-0.332657984,shape_difference0,1,,TRUE,,intensity,0.1,0.05,0.7,0.3,0.82,20,400,1E-11,3.5,0.01,0.5,0.1,,,,,,,,,,,,,,,,,,,,,,,,,,,,,,,,,,,,,,,,,,,,,,,,,,,,,,,,,,,,,,,,,,,,,,,,,,,,,,,,,
,,,,,664805,001,2025-03-14_19h38.57.391,Utility_discrimination_2024_2cat,2024.2.4,Win32,60.24096386,,,,,,,,3,"[0.5,0.5]","[0.383,0.924]",s,"[0.7301974991338669,0.595417361653973]","[0.2698025008661331,0.40458263834602703]",551.3799,554.0324,1,s,1,1.1174,,-0.0430122,0.265363036,0.308375237,554.0346,554.0346,0,67,67,67,1,0.249131493,0.249131493,shape_difference1,1,,TRUE,,intensity,0.1,0.05,0.7,0.3,0.82,20,400,1E-11,3.5,0.01,0.5,0.1,,,,,,,,,,,,,,,,,,,,,,,,,,,,,,,,,,,,,,,,,,,,,,,,,,,,,,,,,,,,,,,,,,,,,,,,,,,,,,,,,
,,,,,664805,001,2025-03-14_19h38.57.391,Utility_discrimination_2024_2cat,2024.2.4,Win32,60.24096386,,,,,,,,2,"[0.5,0.5]","[0.707,0.707]",s,"[0.5397371179205638,0.5958670938866865]","[0.4602628820794363,0.4041329061133136]",554.0358,556.7102,1,d,1,1.1428,,-0.779061589,-0.241211791,0.537849798,556.7142,556.7142,0,68,68,68,1,0.103752266,0.103752266,shape_difference3,1,,TRUE,,intensity,0.1,0.05,0.7,0.3,0.82,20,400,1E-11,3.5,0.01,0.5,0.1,,,,,,,,,,,,,,,,,,,,,,,,,,,,,,,,,,,,,,,,,,,,,,,,,,,,,,,,,,,,,,,,,,,,,,,,,,,,,,,,,
,,,,,664805,001,2025-03-14_19h38.57.391,Utility_discrimination_2024_2cat,2024.2.4,Win32,60.24096386,,,,,,,,1,"[0.5,0.5]","[0.924,0.383]",d,"[0.1702239688969745,0.1702239688969745]","[0.8297760311030256,0.8297760311030256]",556.7153,559.0275,1,d,1,0.7682,,0.104843157,0.403837588,0.298994431,559.0315,559.0315,0,69,69,69,1,-0.466444174,-0.466444174,shape_difference2,1,,TRUE,,intensity,0.1,0.05,0.7,0.3,0.82,20,400,1E-11,3.5,0.01,0.5,0.1,,,,,,,,,,,,,,,,,,,,,,,,,,,,,,,,,,,,,,,,,,,,,,,,,,,,,,,,,,,,,,,,,,,,,,,,,,,,,,,,,
,,,,,664805,001,2025-03-14_19h38.57.391,Utility_discrimination_2024_2cat,2024.2.4,Win32,60.24096386,,,,,,,,3,"[0.5,0.5]","[0.383,0.924]",d,"[0.7177398919166791,0.5902536564979308]","[0.2822601080833209,0.4097463435020692]",559.0336,561.4274,1,d,1,0.8516,,-0.054962494,0.242963155,0.297925649,561.4297,561.4298,0,70,70,70,1,0.235649234,0.235649234,shape_difference1,1,,TRUE,,intensity,0.1,0.05,0.7,0.3,0.82,20,400,1E-11,3.5,0.01,0.5,0.1,,,,,,,,,,,,,,,,,,,,,,,,,,,,,,,,,,,,,,,,,,,,,,,,,,,,,,,,,,,,,,,,,,,,,,,,,,,,,,,,,
,,,,,664805,001,2025-03-14_19h38.57.391,Utility_discrimination_2024_2cat,2024.2.4,Win32,60.24096386,,,,,,,,0,"[0.5,0.5]","[1,0]",d,"[0.5350165273868557,0.5844785151578451]","[0.4649834726131443,0.41552148484215495]",561.4304,563.7765,0,s,0,0.8043,,-0.442077307,-0.023159333,0.418917975,563.7791,563.7792,0,71,71,71,1,0.091426964,0.091426964,shape_difference3,1,,TRUE,,intensity,0.1,0.05,0.7,0.3,0.82,20,400,1E-11,3.5,0.01,0.5,0.1,,,,,,,,,,,,,,,,,,,,,,,,,,,,,,,,,,,,,,,,,,,,,,,,,,,,,,,,,,,,,,,,,,,,,,,,,,,,,,,,,
,,,,,664805,001,2025-03-14_19h38.57.391,Utility_discrimination_2024_2cat,2024.2.4,Win32,60.24096386,,,,,,,,4,"[0.5,0.5]","[0,1]",d,"[0.2496487796262059,0.5]","[0.7503512203737941,0.5]",563.7806,565.9939,1,d,1,0.6673,,-0.049366992,0.271946044,0.321313035,565.9964,565.9965,0,72,72,72,1,-0.25035122,-0.25035122,shape_difference0,1,,TRUE,,intensity,0.1,0.05,0.7,0.3,0.82,20,400,1E-11,3.5,0.01,0.5,0.1,,,,,,,,,,,,,,,,,,,,,,,,,,,,,,,,,,,,,,,,,,,,,,,,,,,,,,,,,,,,,,,,,,,,,,,,,,,,,,,,,
,,,,,664805,001,2025-03-14_19h38.57.391,Utility_discrimination_2024_2cat,2024.2.4,Win32,60.24096386,,,,,,,,2,"[0.5,0.5]","[0.707,0.707]",d,"[0.5,0.6215492737860089]","[0.5,0.3784507262139911]",565.9972,568.2103,1,d,1,0.6716,,-0.797573468,-0.278899126,0.518674342,568.213,568.2131,0,73,73,73,1,0.121549274,0.121549274,shape_difference4,1,,TRUE,,intensity,0.1,0.05,0.7,0.3,0.82,20,400,1E-11,3.5,0.01,0.5,0.1,,,,,,,,,,,,,,,,,,,,,,,,,,,,,,,,,,,,,,,,,,,,,,,,,,,,,,,,,,,,,,,,,,,,,,,,,,,,,,,,,
,,,,,664805,001,2025-03-14_19h38.57.391,Utility_discrimination_2024_2cat,2024.2.4,Win32,60.24096386,,,,,,,,4,"[0.5,0.5]","[0,1]",d,"[0.1477096881968495,0.1477096881968495]","[0.8522903118031505,0.8522903118031505]",568.2138,570.4942,1,d,1,0.7349,,-0.065616928,0.254198134,0.319815062,570.4975,570.4976,0,74,74,74,1,-0.498288984,-0.498288984,shape_difference2,1,,TRUE,,intensity,0.1,0.05,0.7,0.3,0.82,20,400,1E-11,3.5,0.01,0.5,0.1,,,,,,,,,,,,,,,,,,,,,,,,,,,,,,,,,,,,,,,,,,,,,,,,,,,,,,,,,,,,,,,,,,,,,,,,,,,,,,,,,
,,,,,664805,001,2025-03-14_19h38.57.391,Utility_discrimination_2024_2cat,2024.2.4,Win32,60.24096386,,,,,,,,1,"[0.5,0.5]","[0.924,0.383]",d,"[0.5,0.6060186813346704]","[0.5,0.39398131866532965]",570.4991,572.8098,1,d,1,0.7706,,0.102501569,0.38628896,0.283787391,572.8134,572.8134,0,75,75,75,1,0.106018681,0.106018681,shape_difference4,1,,TRUE,,intensity,0.1,0.05,0.7,0.3,0.82,20,400,1E-11,3.5,0.01,0.5,0.1,,,,,,,,,,,,,,,,,,,,,,,,,,,,,,,,,,,,,,,,,,,,,,,,,,,,,,,,,,,,,,,,,,,,,,,,,,,,,,,,,
,,,,,664805,001,2025-03-14_19h38.57.391,Utility_discrimination_2024_2cat,2024.2.4,Win32,60.24096386,,,,,,,,0,"[0.5,0.5]","[1,0]",d,"[0.7043776840274308,0.5847149924053096]","[0.29562231597256916,0.41528500759469045]",572.8146,575.1605,1,d,1,0.803,,-0.456612169,-0.057907189,0.398704981,575.1635,575.1635,0,76,76,76,1,0.22118797,0.22118797,shape_difference1,1,,TRUE,,intensity,0.1,0.05,0.7,0.3,0.82,20,400,1E-11,3.5,0.01,0.5,0.1,,,,,,,,,,,,,,,,,,,,,,,,,,,,,,,,,,,,,,,,,,,,,,,,,,,,,,,,,,,,,,,,,,,,,,,,,,,,,,,,,
,,,,,664805,001,2025-03-14_19h38.57.391,Utility_discrimination_2024_2cat,2024.2.4,Win32,60.24096386,,,,,,,,3,"[0.5,0.5]","[0.383,0.924]",d,"[0.22966033246776751,0.5]","[0.7703396675322325,0.5]",575.1649,577.5269,1,d,1,0.8181,,0.006068494,0.285970957,0.279902463,577.5301,577.5301,0,77,77,77,1,-0.270339668,-0.270339668,shape_difference0,1,,TRUE,,intensity,0.1,0.05,0.7,0.3,0.82,20,400,1E-11,3.5,0.01,0.5,0.1,,,,,,,,,,,,,,,,,,,,,,,,,,,,,,,,,,,,,,,,,,,,,,,,,,,,,,,,,,,,,,,,,,,,,,,,,,,,,,,,,
,,,,,664805,001,2025-03-14_19h38.57.391,Utility_discrimination_2024_2cat,2024.2.4,Win32,60.24096386,,,,,,,,2,"[0.5,0.5]","[0.707,0.707]",d,"[0.5514604137339106,0.624149927650479]","[0.4485395862660893,0.37585007234952095]",577.531,579.8766,1,d,1,0.8074,,-0.825856923,-0.311772,0.514084923,579.8792,579.8793,0,78,78,78,1,0.134361394,0.134361394,shape_difference3,1,,TRUE,,intensity,0.1,0.05,0.7,0.3,0.82,20,400,1E-11,3.5,0.01,0.5,0.1,,,,,,,,,,,,,,,,,,,,,,,,,,,,,,,,,,,,,,,,,,,,,,,,,,,,,,,,,,,,,,,,,,,,,,,,,,,,,,,,,
,,,,,664805,001,2025-03-14_19h38.57.391,Utility_discrimination_2024_2cat,2024.2.4,Win32,60.24096386,,,,,,,,0,"[0.5,0.5]","[1,0]",d,"[0.1278135515881086,0.1278135515881086]","[0.8721864484118914,0.8721864484118914]",579.8802,582.0763,1,s,1,0.6578,,-0.466830284,-0.10209884,0.364731444,582.0788,582.0788,0,79,79,79,1,-0.52643062,-0.52643062,shape_difference2,1,,TRUE,,intensity,0.1,0.05,0.7,0.3,0.82,20,400,1E-11,3.5,0.01,0.5,0.1,,,,,,,,,,,,,,,,,,,,,,,,,,,,,,,,,,,,,,,,,,,,,,,,,,,,,,,,,,,,,,,,,,,,,,,,,,,,,,,,,
,,,,,664805,001,2025-03-14_19h38.57.391,Utility_discrimination_2024_2cat,2024.2.4,Win32,60.24096386,,,,,,,,1,"[0.5,0.5]","[0.924,0.383]",s,"[0.2077297442462509,0.5]","[0.7922702557537491,0.5]",582.0793,584.4598,1,s,1,0.8362,,0.100304986,0.368360772,0.268055786,584.4616,584.4616,0,80,80,80,1,-0.292270256,-0.292270256,shape_difference0,1,,TRUE,,intensity,0.1,0.05,0.7,0.3,0.82,20,400,1E-11,3.5,0.01,0.5,0.1,,,,,,,,,,,,,,,,,,,,,,,,,,,,,,,,,,,,,,,,,,,,,,,,,,,,,,,,,,,,,,,,,,,,,,,,,,,,,,,,,
,,,,,664805,001,2025-03-14_19h38.57.391,Utility_discrimination_2024_2cat,2024.2.4,Win32,60.24096386,,,,,,,,4,"[0.5,0.5]","[0,1]",s,"[0.6895613466300997,0.5785735884841214]","[0.3104386533699003,0.42142641151587856]",584.4622,587.027,0,d,0,1.0179,,-0.077944381,0.230976449,0.30892083,587.0311,587.0312,0,81,81,81,1,0.205152973,0.205152973,shape_difference1,1,,TRUE,,intensity,0.1,0.05,0.7,0.3,0.82,20,400,1E-11,3.5,0.01,0.5,0.1,,,,,,,,,,,,,,,,,,,,,,,,,,,,,,,,,,,,,,,,,,,,,,,,,,,,,,,,,,,,,,,,,,,,,,,,,,,,,,,,,
,,,,,664805,001,2025-03-14_19h38.57.391,Utility_discrimination_2024_2cat,2024.2.4,Win32,60.24096386,,,,,,,,2,"[0.5,0.5]","[0.707,0.707]",s,"[0.5,0.5923917586428231]","[0.5,0.4076082413571768]",587.0324,589.3769,1,s,1,0.8014,,-0.848016174,-0.337659314,0.51035686,589.3798,589.3798,0,82,82,82,1,0.092391759,0.092391759,shape_difference4,1,,TRUE,,intensity,0.1,0.05,0.7,0.3,0.82,20,400,1E-11,3.5,0.01,0.5,0.1,,,,,,,,,,,,,,,,,,,,,,,,,,,,,,,,,,,,,,,,,,,,,,,,,,,,,,,,,,,,,,,,,,,,,,,,,,,,,,,,,
,,,,,664805,001,2025-03-14_19h38.57.391,Utility_discrimination_2024_2cat,2024.2.4,Win32,60.24096386,,,,,,,,3,"[0.5,0.5]","[0.383,0.924]",s,"[0.11045563180269419,0.11045563180269419]","[0.8895443681973059,0.8895443681973059]",589.3813,591.4936,1,d,1,0.5683,,0.003941247,0.271500727,0.267559479,591.4977,591.4978,0,83,83,83,1,-0.550982133,-0.550982133,shape_difference2,1,,TRUE,,intensity,0.1,0.05,0.7,0.3,0.82,20,400,1E-11,3.5,0.01,0.5,0.1,,,,,,,,,,,,,,,,,,,,,,,,,,,,,,,,,,,,,,,,,,,,,,,,,,,,,,,,,,,,,,,,,,,,,,,,,,,,,,,,,
,,,,,664805,001,2025-03-14_19h38.57.391,Utility_discrimination_2024_2cat,2024.2.4,Win32,60.24096386,,,,,,,,0,"[0.5,0.5]","[1,0]",d,"[0.546656869180166,0.6125612196409225]","[0.4533431308198341,0.3874387803590775]",591.4989,594.7933,0,d,0,1.7564,,-0.474181496,-0.121388789,0.352792706,594.7952,594.7952,0,84,84,84,1,0.121819502,0.121819502,shape_difference3,1,,TRUE,,intensity,0.1,0.05,0.7,0.3,0.82,20,400,1E-11,3.5,0.01,0.5,0.1,,,,,,,,,,,,,,,,,,,,,,,,,,,,,,,,,,,,,,,,,,,,,,,,,,,,,,,,,,,,,,,,,,,,,,,,,,,,,,,,,
,,,,,664805,001,2025-03-14_19h38.57.391,Utility_discrimination_2024_2cat,2024.2.4,Win32,60.24096386,,,,,,,,2,"[0.5,0.5]","[0.707,0.707]",s,"[0.19037654918742108,0.5]","[0.8096234508125789,0.5]",594.7961,597.4764,1,d,1,1.1391,,-0.873461133,-0.368757096,0.504704037,597.4805,597.4806,0,85,85,85,1,-0.309623451,-0.309623451,shape_difference0,1,,TRUE,,intensity,0.1,0.05,0.7,0.3,0.82,20,400,1E-11,3.5,0.01,0.5,0.1,,,,,,,,,,,,,,,,,,,,,,,,,,,,,,,,,,,,,,,,,,,,,,,,,,,,,,,,,,,,,,,,,,,,,,,,,,,,,,,,,
,,,,,664805,001,2025-03-14_19h38.57.391,Utility_discrimination_2024_2cat,2024.2.4,Win32,60.24096386,,,,,,,,4,"[0.5,0.5]","[0,1]",d,"[0.09111151127587636,0.09111151127587636]","[0.9088884887241236,0.9088884887241236]",597.4815,600.2267,1,s,1,1.2066,,-0.087517618,0.199963164,0.287480782,600.2293,600.2293,0,86,86,86,1,-0.578342983,-0.578342983,shape_difference2,1,,TRUE,,intensity,0.1,0.05,0.7,0.3,0.82,20,400,1E-11,3.5,0.01,0.5,0.1,,,,,,,,,,,,,,,,,,,,,,,,,,,,,,,,,,,,,,,,,,,,,,,,,,,,,,,,,,,,,,,,,,,,,,,,,,,,,,,,,
,,,,,664805,001,2025-03-14_19h38.57.391,Utility_discrimination_2024_2cat,2024.2.4,Win32,60.24096386,,,,,,,,1,"[0.5,0.5]","[0.924,0.383]",s,"[0.5,0.5822405164916902]","[0.5,0.4177594835083099]",600.2303,602.6096,1,s,1,0.8351,,0.110167891,0.404410845,0.294242954,602.6119,602.6119,0,87,87,87,1,0.082240516,0.082240516,shape_difference4,1,,TRUE,,intensity,0.1,0.05,0.7,0.3,0.82,20,400,1E-11,3.5,0.01,0.5,0.1,,,,,,,,,,,,,,,,,,,,,,,,,,,,,,,,,,,,,,,,,,,,,,,,,,,,,,,,,,,,,,,,,,,,,,,,,,,,,,,,,
,,,,,664805,001,2025-03-14_19h38.57.391,Utility_discrimination_2024_2cat,2024.2.4,Win32,60.24096386,,,,,,,,3,"[0.5,0.5]","[0.383,0.924]",s,"[0.726235001585522,0.5937748978433495]","[0.273764998414478,0.4062251021566505]",602.6124,605.0265,1,d,1,0.8693,,0.013003982,0.297690821,0.284686839,605.0286,605.0286,0,88,88,88,1,0.244843075,0.244843075,shape_difference1,1,,TRUE,,intensity,0.1,0.05,0.7,0.3,0.82,20,400,1E-11,3.5,0.01,0.5,0.1,,,,,,,,,,,,,,,,,,,,,,,,,,,,,,,,,,,,,,,,,,,,,,,,,,,,,,,,,,,,,,,,,,,,,,,,,,,,,,,,,
,,,,,664805,001,2025-03-14_19h38.57.391,Utility_discrimination_2024_2cat,2024.2.4,Win32,60.24096386,,,,,,,,1,"[0.5,0.5]","[0.924,0.383]",d,"[0.5583533569784225,0.6407793781933743]","[0.4416466430215775,0.35922062180662573]",605.0294,607.5266,1,d,1,0.9539,,0.108186645,0.388275641,0.280088996,607.529,607.529,0,89,89,89,1,0.152358634,0.152358634,shape_difference3,1,,TRUE,,intensity,0.1,0.05,0.7,0.3,0.82,20,400,1E-11,3.5,0.01,0.5,0.1,,,,,,,,,,,,,,,,,,,,,,,,,,,,,,,,,,,,,,,,,,,,,,,,,,,,,,,,,,,,,,,,,,,,,,,,,,,,,,,,,
,,,,,664805,001,2025-03-14_19h38.57.391,Utility_discrimination_2024_2cat,2024.2.4,Win32,60.24096386,,,,,,,,4,"[0.5,0.5]","[0,1]",d,"[0.7154267056360102,0.5892948357776969]","[0.28457329436398976,0.41070516422230313]",607.5297,611.3599,1,s,1,2.2869,,-0.095134999,0.194214881,0.28934988,611.3624,611.3625,0,90,90,90,1,0.233145785,0.233145785,shape_difference1,1,,TRUE,,intensity,0.1,0.05,0.7,0.3,0.82,20,400,1E-11,3.5,0.01,0.5,0.1,,,,,,,,,,,,,,,,,,,,,,,,,,,,,,,,,,,,,,,,,,,,,,,,,,,,,,,,,,,,,,,,,,,,,,,,,,,,,,,,,
,,,,,664805,001,2025-03-14_19h38.57.391,Utility_discrimination_2024_2cat,2024.2.4,Win32,60.24096386,,,,,,,,0,"[0.5,0.5]","[1,0]",s,"[0.5,0.5734651832468515]","[0.5,0.4265348167531485]",611.3639,613.9931,1,d,1,1.088,,-0.47959504,-0.146186258,0.333408782,613.9956,613.9956,0,91,91,91,1,0.073465183,0.073465183,shape_difference4,1,,TRUE,,intensity,0.1,0.05,0.7,0.3,0.82,20,400,1E-11,3.5,0.01,0.5,0.1,,,,,,,,,,,,,,,,,,,,,,,,,,,,,,,,,,,,,,,,,,,,,,,,,,,,,,,,,,,,,,,,,,,,,,,,,,,,,,,,,
,,,,,664805,001,2025-03-14_19h38.57.391,Utility_discrimination_2024_2cat,2024.2.4,Win32,60.24096386,,,,,,,,2,"[0.5,0.5]","[0.707,0.707]",d,"[0.1782446663724372,0.5]","[0.8217553336275628,0.5]",613.996,616.5923,1,s,1,1.0614,,-0.890526426,-0.404878559,0.485647867,616.5943,616.5943,0,92,92,92,1,-0.321755334,-0.321755334,shape_difference0,1,,TRUE,,intensity,0.1,0.05,0.7,0.3,0.82,20,400,1E-11,3.5,0.01,0.5,0.1,,,,,,,,,,,,,,,,,,,,,,,,,,,,,,,,,,,,,,,,,,,,,,,,,,,,,,,,,,,,,,,,,,,,,,,,,,,,,,,,,
,,,,,664805,001,2025-03-14_19h38.57.391,Utility_discrimination_2024_2cat,2024.2.4,Win32,60.24096386,,,,,,,,3,"[0.5,0.5]","[0.383,0.924]",s,"[0.06990751093575981,0.06990751093575981]","[0.9300924890642401,0.9300924890642401]",616.5952,618.9596,1,d,1,0.818,,0.011126837,0.284177843,0.273051006,618.9634,618.9634,0,93,93,93,1,-0.608334497,-0.608334497,shape_difference2,1,,TRUE,,intensity,0.1,0.05,0.7,0.3,0.82,20,400,1E-11,3.5,0.01,0.5,0.1,,,,,,,,,,,,,,,,,,,,,,,,,,,,,,,,,,,,,,,,,,,,,,,,,,,,,,,,,,,,,,,,,,,,,,,,,,,,,,,,,
,,,,,664805,001,2025-03-14_19h38.57.391,Utility_discrimination_2024_2cat,2024.2.4,Win32,60.24096386,,,,,,,,2,"[0.5,0.5]","[0.707,0.707]",d,"[0.5548445759380931,0.6323143294172273]","[0.44515542406190683,0.36768567058277263]",618.9646,621.5432,0,s,0,1.0453,,-0.906423025,-0.425211867,0.481211158,621.5449,621.5449,0,94,94,94,1,0.143197326,0.143197326,shape_difference3,1,,TRUE,,intensity,0.1,0.05,0.7,0.3,0.82,20,400,1E-11,3.5,0.01,0.5,0.1,,,,,,,,,,,,,,,,,,,,,,,,,,,,,,,,,,,,,,,,,,,,,,,,,,,,,,,,,,,,,,,,,,,,,,,,,,,,,,,,,
,,,,,664805,001,2025-03-14_19h38.57.391,Utility_discrimination_2024_2cat,2024.2.4,Win32,60.24096386,,,,,,,,4,"[0.5,0.5]","[0,1]",d,"[0.05229385802006992,0.05229385802006992]","[0.9477061419799301,0.9477061419799301]",621.5462,624.1266,1,s,1,1.0385,,-0.105603898,0.188006481,0.293610379,624.1287,624.1287,0,95,95,95,1,-0.633247726,-0.633247726,shape_difference2,1,,TRUE,,intensity,0.1,0.05,0.7,0.3,0.82,20,400,1E-11,3.5,0.01,0.5,0.1,,,,,,,,,,,,,,,,,,,,,,,,,,,,,,,,,,,,,,,,,,,,,,,,,,,,,,,,,,,,,,,,,,,,,,,,,,,,,,,,,
,,,,,664805,001,2025-03-14_19h38.57.391,Utility_discrimination_2024_2cat,2024.2.4,Win32,60.24096386,,,,,,,,0,"[0.5,0.5]","[1,0]",s,"[0.5,0.5656468711938188]","[0.5,0.43435312880618115]",624.1296,627.3255,0,d,0,1.6614,,-0.483675428,-0.17933198,0.304343448,627.3275,627.3275,0,96,96,96,1,0.065646871,0.065646871,shape_difference4,1,,TRUE,,intensity,0.1,0.05,0.7,0.3,0.82,20,400,1E-11,3.5,0.01,0.5,0.1,,,,,,,,,,,,,,,,,,,,,,,,,,,,,,,,,,,,,,,,,,,,,,,,,,,,,,,,,,,,,,,,,,,,,,,,,,,,,,,,,
,,,,,664805,001,2025-03-14_19h38.57.391,Utility_discrimination_2024_2cat,2024.2.4,Win32,60.24096386,,,,,,,,3,"[0.5,0.5]","[0.383,0.924]",s,"[0.16793054213174374,0.5]","[0.8320694578682563,0.5]",627.3281,629.7092,0,s,0,0.8364,,0.019716716,0.311094643,0.291377927,629.7115,629.7116,0,97,97,97,1,-0.332069458,-0.332069458,shape_difference0,1,,TRUE,,intensity,0.1,0.05,0.7,0.3,0.82,20,400,1E-11,3.5,0.01,0.5,0.1,,,,,,,,,,,,,,,,,,,,,,,,,,,,,,,,,,,,,,,,,,,,,,,,,,,,,,,,,,,,,,,,,,,,,,,,,,,,,,,,,
,,,,,664805,001,2025-03-14_19h38.57.391,Utility_discrimination_2024_2cat,2024.2.4,Win32,60.24096386,,,,,,,,1,"[0.5,0.5]","[0.924,0.383]",d,"[0.5629067791122567,0.6517646577016323]","[0.43709322088774333,0.34823534229836767]",629.7123,632.1757,1,s,1,0.9274,,0.106499769,0.372929641,0.266429873,632.1777,632.1777,0,98,98,98,1,0.164247465,0.164247465,shape_difference3,1,,TRUE,,intensity,0.1,0.05,0.7,0.3,0.82,20,400,1E-11,3.5,0.01,0.5,0.1,,,,,,,,,,,,,,,,,,,,,,,,,,,,,,,,,,,,,,,,,,,,,,,,,,,,,,,,,,,,,,,,,,,,,,,,,,,,,,,,,
,,,,,664805,001,2025-03-14_19h38.57.391,Utility_discrimination_2024_2cat,2024.2.4,Win32,60.24096386,,,,,,,,4,"[0.5,0.5]","[0,1]",s,"[0.7037181448173624,0.5844416119751621]","[0.29628185518263755,0.41555838802483785]",632.179,634.7594,1,s,1,1.0399,,-0.007869412,0.221440113,0.229309525,634.7622,634.7622,0,99,99,99,1,0.220474183,0.220474183,shape_difference1,1,,TRUE,,intensity,0.1,0.05,0.7,0.3,0.82,20,400,1E-11,3.5,0.01,0.5,0.1,,,,,,,,,,,,,,,,,,,,,,,,,,,,,,,,,,,,,,,,,,,,,,,,,,,,,,,,,,,,,,,,,,,,,,,,,,,,,,,,,
,,,,,664805,001,2025-03-14_19h38.57.391,Utility_discrimination_2024_2cat,2024.2.4,Win32,60.24096386,,,,,,,,0,"[0.5,0.5]","[1,0]",s,"[0.5,0.5986675564665603]","[0.5,0.40133244353343966]",634.7631,637.2919,1,s,1,0.9949,,-0.427093139,-0.112679067,0.314414071,637.2949,637.295,0,100,100,100,1,0.098667556,0.098667556,shape_difference4,1,,TRUE,,intensity,0.1,0.05,0.7,0.3,0.82,20,400,1E-11,3.5,0.01,0.5,0.1,,,,,,,,,,,,,,,,,,,,,,,,,,,,,,,,,,,,,,,,,,,,,,,,,,,,,,,,,,,,,,,,,,,,,,,,,,,,,,,,,
,,,,,664805,001,2025-03-14_19h38.57.391,Utility_discrimination_2024_2cat,2024.2.4,Win32,60.24096386,,,,,,,,3,"[0.5,0.5]","[0.383,0.924]",s,"[0.21424818896886677,0.5]","[0.7857518110311332,0.5]",637.2957,639.626,1,d,1,0.7849,,0.016880516,0.29136558,0.274485063,639.6282,639.6283,0,101,101,101,1,-0.285751811,-0.285751811,shape_difference0,1,,TRUE,,intensity,0.1,0.05,0.7,0.3,0.82,20,400,1E-11,3.5,0.01,0.5,0.1,,,,,,,,,,,,,,,,,,,,,,,,,,,,,,,,,,,,,,,,,,,,,,,,,,,,,,,,,,,,,,,,,,,,,,,,,,,,,,,,,
,,,,,664805,001,2025-03-14_19h38.57.391,Utility_discrimination_2024_2cat,2024.2.4,Win32,60.24096386,,,,,,,,2,"[0.5,0.5]","[0.707,0.707]",d,"[0.5599219872942403,0.6445637500257912]","[0.4400780127057597,0.35543624997420875]",639.6291,642.059,1,d,1,0.8841,,-0.929904407,-0.45344894,0.476455467,642.0614,642.0615,0,102,102,102,1,0.156454275,0.156454275,shape_difference3,1,,TRUE,,intensity,0.1,0.05,0.7,0.3,0.82,20,400,1E-11,3.5,0.01,0.5,0.1,,,,,,,,,,,,,,,,,,,,,,,,,,,,,,,,,,,,,,,,,,,,,,,,,,,,,,,,,,,,,,,,,,,,,,,,,,,,,,,,,
,,,,,664805,001,2025-03-14_19h38.57.391,Utility_discrimination_2024_2cat,2024.2.4,Win32,60.24096386,,,,,,,,1,"[0.5,0.5]","[0.924,0.383]",d,"[0.03652714673033103,0.03652714673033103]","[0.963472853269669,0.963472853269669]",642.062,644.4256,1,d,1,0.8183,,0.105010045,0.354046186,0.249036142,644.428,644.428,0,103,103,103,1,-0.65554859,-0.65554859,shape_difference2,1,,TRUE,,intensity,0.1,0.05,0.7,0.3,0.82,20,400,1E-11,3.5,0.01,0.5,0.1,,,,,,,,,,,,,,,,,,,,,,,,,,,,,,,,,,,,,,,,,,,,,,,,,,,,,,,,,,,,,,,,,,,,,,,,,,,,,,,,,
,,,,,664805,001,2025-03-14_19h38.57.391,Utility_discrimination_2024_2cat,2024.2.4,Win32,60.24096386,,,,,,,,1,"[0.5,0.5]","[0.924,0.383]",d,"[0.6906731622047236,0.5790344384463303]","[0.30932683779527637,0.42096556155366976]",644.4288,646.7922,1,s,1,0.8217,,0.103642546,0.33013736,0.226494814,646.7952,646.7952,0,104,104,104,1,0.206356236,0.206356236,shape_difference1,1,,TRUE,,intensity,0.1,0.05,0.7,0.3,0.82,20,400,1E-11,3.5,0.01,0.5,0.1,,,,,,,,,,,,,,,,,,,,,,,,,,,,,,,,,,,,,,,,,,,,,,,,,,,,,,,,,,,,,,,,,,,,,,,,,,,,,,,,,
,,,,,664805,001,2025-03-14_19h38.57.391,Utility_discrimination_2024_2cat,2024.2.4,Win32,60.24096386,,,,,,,,2,"[0.5,0.5]","[0.707,0.707]",s,"[0.6800255676191801,0.5746209874438809]","[0.3199744323808199,0.42537901255611904]",646.7959,649.3756,0,d,0,1.0372,,-0.957860854,-0.488033908,0.469826946,649.378,649.3781,0,105,105,105,1,0.194832865,0.194832865,shape_difference1,1,,TRUE,,intensity,0.1,0.05,0.7,0.3,0.82,20,400,1E-11,3.5,0.01,0.5,0.1,,,,,,,,,,,,,,,,,,,,,,,,,,,,,,,,,,,,,,,,,,,,,,,,,,,,,,,,,,,,,,,,,,,,,,,,,,,,,,,,,
,,,,,664805,001,2025-03-14_19h38.57.391,Utility_discrimination_2024_2cat,2024.2.4,Win32,60.24096386,,,,,,,,4,"[0.5,0.5]","[0,1]",s,"[0.01850932784473802,0.01850932784473802]","[0.981490672155262,0.981490672155262]",649.379,651.8589,1,d,1,0.9392,,-0.02637432,0.198840645,0.225214965,651.8623,651.8624,0,106,106,106,1,-0.681033483,-0.681033483,shape_difference2,1,,TRUE,,intensity,0.1,0.05,0.7,0.3,0.82,20,400,1E-11,3.5,0.01,0.5,0.1,,,,,,,,,,,,,,,,,,,,,,,,,,,,,,,,,,,,,,,,,,,,,,,,,,,,,,,,,,,,,,,,,,,,,,,,,,,,,,,,,
,,,,,664805,001,2025-03-14_19h38.57.391,Utility_discrimination_2024_2cat,2024.2.4,Win32,60.24096386,,,,,,,,3,"[0.5,0.5]","[0.383,0.924]",d,"[0.5,0.5899512876458701]","[0.5,0.41004871235412993]",651.8637,654.3917,1,d,1,0.9948,,0.014666221,0.279407129,0.264740908,654.394,654.394,0,107,107,107,1,0.089951288,0.089951288,shape_difference4,1,,TRUE,,intensity,0.1,0.05,0.7,0.3,0.82,20,400,1E-11,3.5,0.01,0.5,0.1,,,,,,,,,,,,,,,,,,,,,,,,,,,,,,,,,,,,,,,,,,,,,,,,,,,,,,,,,,,,,,,,,,,,,,,,,,,,,,,,,
,,,,,664805,001,2025-03-14_19h38.57.391,Utility_discrimination_2024_2cat,2024.2.4,Win32,60.24096386,,,,,,,,0,"[0.5,0.5]","[1,0]",d,"[0.5571681089173314,0.6379199285629614]","[0.44283189108266857,0.3620800714370386]",654.3947,656.4753,1,s,1,0.5381,,-0.442206064,-0.130844267,0.311361797,656.4781,656.4781,0,108,108,108,1,0.149263992,0.149263992,shape_difference3,1,,TRUE,,intensity,0.1,0.05,0.7,0.3,0.82,20,400,1E-11,3.5,0.01,0.5,0.1,,,,,,,,,,,,,,,,,,,,,,,,,,,,,,,,,,,,,,,,,,,,,,,,,,,,,,,,,,,,,,,,,,,,,,,,,,,,,,,,,
,,,,,664805,001,2025-03-14_19h38.57.391,Utility_discrimination_2024_2cat,2024.2.4,Win32,60.24096386,,,,,,,,1,"[0.5,0.5]","[0.924,0.383]",s,"[0.1971885592279562,0.5]","[0.8028114407720438,0.5]",656.4788,659.3422,1,s,1,1.3172,,0.109626291,0.375317973,0.265691682,659.3441,659.3441,0,109,109,109,1,-0.302811441,-0.302811441,shape_difference0,1,,TRUE,,intensity,0.1,0.05,0.7,0.3,0.82,20,400,1E-11,3.5,0.01,0.5,0.1,,,,,,,,,,,,,,,,,,,,,,,,,,,,,,,,,,,,,,,,,,,,,,,,,,,,,,,,,,,,,,,,,,,,,,,,,,,,,,,,,
,,,,,664805,001,2025-03-14_19h38.57.391,Utility_discrimination_2024_2cat,2024.2.4,Win32,60.24096386,,,,,,,,3,"[0.5,0.5]","[0.383,0.924]",s,"[0.7132795337512357,0.5884048283838996]","[0.2867204662487643,0.4115951716161004]",659.3448,661.994,0,d,0,1.1153,,0.012594273,0.268228882,0.255634608,661.9954,661.9954,0,110,110,110,1,0.230822006,0.230822006,shape_difference1,1,,TRUE,,intensity,0.1,0.05,0.7,0.3,0.82,20,400,1E-11,3.5,0.01,0.5,0.1,,,,,,,,,,,,,,,,,,,,,,,,,,,,,,,,,,,,,,,,,,,,,,,,,,,,,,,,,,,,,,,,,,,,,,,,,,,,,,,,,
,,,,,664805,001,2025-03-14_19h38.57.391,Utility_discrimination_2024_2cat,2024.2.4,Win32,60.24096386,,,,,,,,0,"[0.5,0.5]","[1,0]",s,"[0.554321934227962,0.6310534392340389]","[0.445678065772038,0.3689465607659611]",661.996,664.525,1,d,1,0.9839,,-0.453359986,-0.153960605,0.29939938,664.5271,664.5271,0,111,111,111,1,0.141832726,0.141832726,shape_difference3,1,,TRUE,,intensity,0.1,0.05,0.7,0.3,0.82,20,400,1E-11,3.5,0.01,0.5,0.1,,,,,,,,,,,,,,,,,,,,,,,,,,,,,,,,,,,,,,,,,,,,,,,,,,,,,,,,,,,,,,,,,,,,,,,,,,,,,,,,,
,,,,,664805,001,2025-03-14_19h38.57.391,Utility_discrimination_2024_2cat,2024.2.4,Win32,60.24096386,,,,,,,,2,"[0.5,0.5]","[0.707,0.707]",d,"[0.18714800086247718,0.5]","[0.8128519991375228,0.5]",664.5277,666.8753,1,s,1,0.8039,,-0.976778747,-0.511527665,0.465251083,666.8776,666.8776,0,112,112,112,1,-0.312851999,-0.312851999,shape_difference0,1,,TRUE,,intensity,0.1,0.05,0.7,0.3,0.82,20,400,1E-11,3.5,0.01,0.5,0.1,,,,,,,,,,,,,,,,,,,,,,,,,,,,,,,,,,,,,,,,,,,,,,,,,,,,,,,,,,,,,,,,,,,,,,,,,,,,,,,,,
,,,,,664805,001,2025-03-14_19h38.57.391,Utility_discrimination_2024_2cat,2024.2.4,Win32,60.24096386,,,,,,,,4,"[0.5,0.5]","[0,1]",s,"[-0.0009478112936097682,-0.0009478112936097682]","[1.0009478112936097,1.0009478112936097]",666.8783,669.1587,1,d,1,0.7397,,-0.040567765,0.194417082,0.234984847,669.1608,669.1608,0,113,113,113,1,-0.708554189,-0.708554189,shape_difference2,1,,TRUE,,intensity,0.1,0.05,0.7,0.3,0.82,20,400,1E-11,3.5,0.01,0.5,0.1,,,,,,,,,,,,,,,,,,,,,,,,,,,,,,,,,,,,,,,,,,,,,,,,,,,,,,,,,,,,,,,,,,,,,,,,,,,,,,,,,
,,,,,664805,001,2025-03-14_19h38.57.391,Utility_discrimination_2024_2cat,2024.2.4,Win32,60.24096386,,,,,,,,3,"[0.5,0.5]","[0.383,0.924]",d,"[0.5,0.5827146093378701]","[0.5,0.4172853906621299]",669.1614,672.7084,1,d,1,2.0092,,0.010915637,0.25458503,0.243669394,672.7104,672.7104,0,114,114,114,1,0.082714609,0.082714609,shape_difference4,1,,TRUE,,intensity,0.1,0.05,0.7,0.3,0.82,20,400,1E-11,3.5,0.01,0.5,0.1,,,,,,,,,,,,,,,,,,,,,,,,,,,,,,,,,,,,,,,,,,,,,,,,,,,,,,,,,,,,,,,,,,,,,,,,,,,,,,,,,
,,,,,664805,001,2025-03-14_19h38.57.391,Utility_discrimination_2024_2cat,2024.2.4,Win32,60.24096386,,,,,,,,4,"[0.5,0.5]","[0,1]",d,"[0.5512238825388514,0.623579288422712]","[0.4487761174611486,0.37642071157728796]",672.7111,675.0752,1,d,1,0.8242,,-0.05160852,0.18977209,0.24138061,675.0769,675.0769,0,115,115,115,1,0.133743819,0.133743819,shape_difference3,1,,TRUE,,intensity,0.1,0.05,0.7,0.3,0.82,20,400,1E-11,3.5,0.01,0.5,0.1,,,,,,,,,,,,,,,,,,,,,,,,,,,,,,,,,,,,,,,,,,,,,,,,,,,,,,,,,,,,,,,,,,,,,,,,,,,,,,,,,
,,,,,664805,001,2025-03-14_19h38.57.391,Utility_discrimination_2024_2cat,2024.2.4,Win32,60.24096386,,,,,,,,0,"[0.5,0.5]","[1,0]",d,"[0.5,0.5766086725123898]","[0.5,0.42339132748761016]",675.0773,677.7251,1,s,1,1.1037,,-0.461744085,-0.184316293,0.277427792,677.728,677.728,0,116,116,116,1,0.076608673,0.076608673,shape_difference4,1,,TRUE,,intensity,0.1,0.05,0.7,0.3,0.82,20,400,1E-11,3.5,0.01,0.5,0.1,,,,,,,,,,,,,,,,,,,,,,,,,,,,,,,,,,,,,,,,,,,,,,,,,,,,,,,,,,,,,,,,,,,,,,,,,,,,,,,,,
,,,,,664805,001,2025-03-14_19h38.57.391,Utility_discrimination_2024_2cat,2024.2.4,Win32,60.24096386,,,,,,,,1,"[0.5,0.5]","[0.924,0.383]",s,"[0.17889934930483942,0.5]","[0.8211006506951606,0.5]",677.729,680.4418,0,s,0,1.1717,,0.11588014,0.399390303,0.283510163,680.4449,680.4449,0,117,117,117,1,-0.321100651,-0.321100651,shape_difference0,1,,TRUE,,intensity,0.1,0.05,0.7,0.3,0.82,20,400,1E-11,3.5,0.01,0.5,0.1,,,,,,,,,,,,,,,,,,,,,,,,,,,,,,,,,,,,,,,,,,,,,,,,,,,,,,,,,,,,,,,,,,,,,,,,,,,,,,,,,
,,,,,664805,001,2025-03-14_19h38.57.391,Utility_discrimination_2024_2cat,2024.2.4,Win32,60.24096386,,,,,,,,2,"[0.5,0.5]","[0.707,0.707]",d,"[0.7363369483873159,0.5979621766583788]","[0.2636630516126841,0.40203782334162125]",680.4458,682.7755,1,d,1,0.7851,,-0.98988212,-0.531869289,0.458012831,682.7782,682.7783,0,118,118,118,1,0.255775918,0.255775918,shape_difference1,1,,TRUE,,intensity,0.1,0.05,0.7,0.3,0.82,20,400,1E-11,3.5,0.01,0.5,0.1,,,,,,,,,,,,,,,,,,,,,,,,,,,,,,,,,,,,,,,,,,,,,,,,,,,,,,,,,,,,,,,,,,,,,,,,,,,,,,,,,
,,,,,664805,001,2025-03-14_19h38.57.391,Utility_discrimination_2024_2cat,2024.2.4,Win32,60.24096386,,,,,,,,0,"[0.5,0.5]","[1,0]",d,"[-0.016801151603657694,-0.016801151603657694]","[1.0168011516036577,1.0168011516036577]",682.7794,685.7745,1,s,1,1.4616,,-0.396535576,-0.124699055,0.271836521,685.7774,685.7774,0,119,119,119,1,-0.730977584,-0.730977584,shape_difference2,1,,TRUE,,intensity,0.1,0.05,0.7,0.3,0.82,20,400,1E-11,3.5,0.01,0.5,0.1,,,,,,,,,,,,,,,,,,,,,,,,,,,,,,,,,,,,,,,,,,,,,,,,,,,,,,,,,,,,,,,,,,,,,,,,,,,,,,,,,
,,,,,664805,001,2025-03-14_19h38.57.391,Utility_discrimination_2024_2cat,2024.2.4,Win32,60.24096386,,,,,,,,3,"[0.5,0.5]","[0.383,0.924]",s,"[0.21550264575722045,0.5]","[0.7844973542427796,0.5]",685.7781,688.5443,0,s,0,1.2317,,0.009536339,0.2375431,0.228006761,688.5458,688.5458,0,120,120,120,1,-0.284497354,-0.284497354,shape_difference0,1,,TRUE,,intensity,0.1,0.05,0.7,0.3,0.82,20,400,1E-11,3.5,0.01,0.5,0.1,,,,,,,,,,,,,,,,,,,,,,,,,,,,,,,,,,,,,,,,,,,,,,,,,,,,,,,,,,,,,,,,,,,,,,,,,,,,,,,,,
,,,,,664805,001,2025-03-14_19h38.57.391,Utility_discrimination_2024_2cat,2024.2.4,Win32,60.24096386,,,,,,,,1,"[0.5,0.5]","[0.924,0.383]",d,"[0.5477706792158641,0.6152483227035468]","[0.4522293207841359,0.3847516772964532]",688.5466,690.9255,1,d,1,0.8381,,0.113824605,0.385900146,0.272075541,690.9279,690.9279,0,121,121,121,1,0.124727622,0.124727622,shape_difference3,1,,TRUE,,intensity,0.1,0.05,0.7,0.3,0.82,20,400,1E-11,3.5,0.01,0.5,0.1,,,,,,,,,,,,,,,,,,,,,,,,,,,,,,,,,,,,,,,,,,,,,,,,,,,,,,,,,,,,,,,,,,,,,,,,,,,,,,,,,
,,,,,664805,001,2025-03-14_19h38.57.391,Utility_discrimination_2024_2cat,2024.2.4,Win32,60.24096386,,,,,,,,2,"[0.5,0.5]","[0.707,0.707]",d,"[0.7287018992332147,0.5947974322579234]","[0.2712981007667853,0.4052025677420766]",690.9287,693.6743,1,s,1,1.2103,,-0.999178956,-0.560253648,0.438925308,693.6764,693.6764,0,122,122,122,1,0.247512878,0.247512878,shape_difference1,1,,TRUE,,intensity,0.1,0.05,0.7,0.3,0.82,20,400,1E-11,3.5,0.01,0.5,0.1,,,,,,,,,,,,,,,,,,,,,,,,,,,,,,,,,,,,,,,,,,,,,,,,,,,,,,,,,,,,,,,,,,,,,,,,,,,,,,,,,
,,,,,664805,001,2025-03-14_19h38.57.391,Utility_discrimination_2024_2cat,2024.2.4,Win32,60.24096386,,,,,,,,4,"[0.5,0.5]","[0,1]",s,"[-0.03097385250973783,-0.03097385250973783]","[1.0309738525097378,1.0309738525097378]",693.6769,695.7252,1,d,1,0.508,,-0.060315134,0.184715987,0.245031122,695.7273,695.7273,0,123,123,123,1,-0.751023837,-0.751023837,shape_difference2,1,,TRUE,,intensity,0.1,0.05,0.7,0.3,0.82,20,400,1E-11,3.5,0.01,0.5,0.1,,,,,,,,,,,,,,,,,,,,,,,,,,,,,,,,,,,,,,,,,,,,,,,,,,,,,,,,,,,,,,,,,,,,,,,,,,,,,,,,,
,,,,,664805,001,2025-03-14_19h38.57.391,Utility_discrimination_2024_2cat,2024.2.4,Win32,60.24096386,,,,,,,,2,"[0.5,0.5]","[0.707,0.707]",d,"[0.5,0.5713587312775005]","[0.5,0.4286412687224995]",695.7279,698.8748,0,s,0,1.6007,,-1.032935643,-0.59453384,0.438401803,698.8768,698.8768,0,124,124,124,1,0.071358731,0.071358731,shape_difference4,1,,TRUE,,intensity,0.1,0.05,0.7,0.3,0.82,20,400,1E-11,3.5,0.01,0.5,0.1,,,,,,,,,,,,,,,,,,,,,,,,,,,,,,,,,,,,,,,,,,,,,,,,,,,,,,,,,,,,,,,,,,,,,,,,,,,,,,,,,
,,,,,664805,001,2025-03-14_19h38.57.391,Utility_discrimination_2024_2cat,2024.2.4,Win32,60.24096386,,,,,,,,3,"[0.5,0.5]","[0.383,0.924]",d,"[-0.046759307836105934,-0.046759307836105934]","[1.046759307836106,1.046759307836106]",698.8774,701.4249,1,s,1,1.0085,,0.008384587,0.215839284,0.207454697,701.4283,701.4283,0,125,125,125,1,-0.773351213,-0.773351213,shape_difference2,1,,TRUE,,intensity,0.1,0.05,0.7,0.3,0.82,20,400,1E-11,3.5,0.01,0.5,0.1,,,,,,,,,,,,,,,,,,,,,,,,,,,,,,,,,,,,,,,,,,,,,,,,,,,,,,,,,,,,,,,,,,,,,,,,,,,,,,,,,
,,,,,664805,001,2025-03-14_19h38.57.391,Utility_discrimination_2024_2cat,2024.2.4,Win32,60.24096386,,,,,,,,0,"[0.5,0.5]","[1,0]",s,"[0.5438466787850409,0.6057815435962868]","[0.45615332121495905,0.3942184564037132]",701.4292,703.7415,1,d,1,0.7672,,-0.38800136,-0.090493001,0.297508359,703.7436,703.7436,0,126,126,126,1,0.11448219,0.11448219,shape_difference3,1,,TRUE,,intensity,0.1,0.05,0.7,0.3,0.82,20,400,1E-11,3.5,0.01,0.5,0.1,,,,,,,,,,,,,,,,,,,,,,,,,,,,,,,,,,,,,,,,,,,,,,,,,,,,,,,,,,,,,,,,,,,,,,,,,,,,,,,,,
,,,,,664805,001,2025-03-14_19h38.57.391,Utility_discrimination_2024_2cat,2024.2.4,Win32,60.24096386,,,,,,,,4,"[0.5,0.5]","[0,1]",d,"[0.2507716646117757,0.5]","[0.7492283353882243,0.5]",703.7442,706.3416,0,s,0,1.0523,,0.003238193,0.197065018,0.193826826,706.3443,706.3443,0,127,127,127,1,-0.249228335,-0.249228335,shape_difference0,1,,TRUE,,intensity,0.1,0.05,0.7,0.3,0.82,20,400,1E-11,3.5,0.01,0.5,0.1,,,,,,,,,,,,,,,,,,,,,,,,,,,,,,,,,,,,,,,,,,,,,,,,,,,,,,,,,,,,,,,,,,,,,,,,,,,,,,,,,
,,,,,664805,001,2025-03-14_19h38.57.391,Utility_discrimination_2024_2cat,2024.2.4,Win32,60.24096386,,,,,,,,1,"[0.5,0.5]","[0.924,0.383]",d,"[0.5,0.5925155505136189]","[0.5,0.4074844494863811]",706.345,708.7588,1,s,1,0.8702,,0.111958132,0.373764123,0.26180599,708.7615,708.7615,0,128,128,128,1,0.092515551,0.092515551,shape_difference4,1,,TRUE,,intensity,0.1,0.05,0.7,0.3,0.82,20,400,1E-11,3.5,0.01,0.5,0.1,,,,,,,,,,,,,,,,,,,,,,,,,,,,,,,,,,,,,,,,,,,,,,,,,,,,,,,,,,,,,,,,,,,,,,,,,,,,,,,,,
,,,,,664805,001,2025-03-14_19h38.57.391,Utility_discrimination_2024_2cat,2024.2.4,Win32,60.24096386,,,,,,,,1,"[0.5,0.5]","[0.924,0.383]",s,"[0.7209030238929461,0.5915647815486995]","[0.2790969761070538,0.40843521845130043]",708.7626,711.125,0,d,0,0.8216,,0.118817186,0.39514957,0.276332385,711.1292,711.1292,0,129,129,129,1,0.239072537,0.239072537,shape_difference1,1,,TRUE,,intensity,0.1,0.05,0.7,0.3,0.82,20,400,1E-11,3.5,0.01,0.5,0.1,,,,,,,,,,,,,,,,,,,,,,,,,,,,,,,,,,,,,,,,,,,,,,,,,,,,,,,,,,,,,,,,,,,,,,,,,,,,,,,,,
,,,,,664805,001,2025-03-14_19h38.57.391,Utility_discrimination_2024_2cat,2024.2.4,Win32,60.24096386,,,,,,,,4,"[0.5,0.5]","[0,1]",s,"[0.7392911134806659,0.5991866844838691]","[0.2607088865193341,0.4008133155161309]",711.131,713.4916,0,s,0,0.8234,,0.001959499,0.193324907,0.191365408,713.4939,713.4939,0,130,130,130,1,0.258973067,0.258973067,shape_difference1,1,,TRUE,,intensity,0.1,0.05,0.7,0.3,0.82,20,400,1E-11,3.5,0.01,0.5,0.1,,,,,,,,,,,,,,,,,,,,,,,,,,,,,,,,,,,,,,,,,,,,,,,,,,,,,,,,,,,,,,,,,,,,,,,,,,,,,,,,,
,,,,,664805,001,2025-03-14_19h38.57.391,Utility_discrimination_2024_2cat,2024.2.4,Win32,60.24096386,,,,,,,,2,"[0.5,0.5]","[0.707,0.707]",d,"[0.5,0.5858129510090876]","[0.5,0.4141870489909124]",713.4954,716.3246,0,d,0,1.2906,,-1.056987742,-0.612175936,0.444811805,716.3262,716.3262,0,131,131,131,1,0.085812951,0.085812951,shape_difference4,1,,TRUE,,intensity,0.1,0.05,0.7,0.3,0.82,20,400,1E-11,3.5,0.01,0.5,0.1,,,,,,,,,,,,,,,,,,,,,,,,,,,,,,,,,,,,,,,,,,,,,,,,,,,,,,,,,,,,,,,,,,,,,,,,,,,,,,,,,
,,,,,664805,001,2025-03-14_19h38.57.391,Utility_discrimination_2024_2cat,2024.2.4,Win32,60.24096386,,,,,,,,3,"[0.5,0.5]","[0.383,0.924]",s,"[-0.06508278582376825,-0.06508278582376825]","[1.0650827858237681,1.0650827858237681]",716.3268,718.9073,1,s,1,1.042,,0.007404719,0.19870573,0.191301012,718.9097,718.9097,0,132,132,132,1,-0.799268438,-0.799268438,shape_difference2,1,,TRUE,,intensity,0.1,0.05,0.7,0.3,0.82,20,400,1E-11,3.5,0.01,0.5,0.1,,,,,,,,,,,,,,,,,,,,,,,,,,,,,,,,,,,,,,,,,,,,,,,,,,,,,,,,,,,,,,,,,,,,,,,,,,,,,,,,,
,,,,,664805,001,2025-03-14_19h38.57.391,Utility_discrimination_2024_2cat,2024.2.4,Win32,60.24096386,,,,,,,,0,"[0.5,0.5]","[1,0]",s,"[0.5393195198266826,0.5948596248560176]","[0.4606804801733174,0.40514037514398243]",718.9101,721.6914,1,s,1,1.2344,,-0.356768259,0.009033119,0.365801378,721.6938,721.6939,0,133,133,133,1,0.102661932,0.102661932,shape_difference3,1,,TRUE,,intensity,0.1,0.05,0.7,0.3,0.82,20,400,1E-11,3.5,0.01,0.5,0.1,,,,,,,,,,,,,,,,,,,,,,,,,,,,,,,,,,,,,,,,,,,,,,,,,,,,,,,,,,,,,,,,,,,,,,,,,,,,,,,,,
,,,,,664805,001,2025-03-14_19h38.57.391,Utility_discrimination_2024_2cat,2024.2.4,Win32,60.24096386,,,,,,,,2,"[0.5,0.5]","[0.707,0.707]",s,"[0.2993635247762938,0.5]","[0.7006364752237062,0.5]",721.6947,724.0911,0,s,0,0.8506,,-1.073623271,-0.630374855,0.443248415,724.094,724.094,0,134,134,134,1,-0.200636475,-0.200636475,shape_difference0,1,,TRUE,,intensity,0.1,0.05,0.7,0.3,0.82,20,400,1E-11,3.5,0.01,0.5,0.1,,,,,,,,,,,,,,,,,,,,,,,,,,,,,,,,,,,,,,,,,,,,,,,,,,,,,,,,,,,,,,,,,,,,,,,,,,,,,,,,,
,,,,,664805,001,2025-03-14_19h38.57.391,Utility_discrimination_2024_2cat,2024.2.4,Win32,60.24096386,,,,,,,,4,"[0.5,0.5]","[0,1]",d,"[-0.08061725750251547,-0.08061725750251547]","[1.0806172575025155,1.0806172575025155]",724.095,726.1412,1,d,1,0.5018,,0.007879153,0.21514907,0.207269918,726.1433,726.1433,0,135,135,135,1,-0.821240817,-0.821240817,shape_difference2,1,,TRUE,,intensity,0.1,0.05,0.7,0.3,0.82,20,400,1E-11,3.5,0.01,0.5,0.1,,,,,,,,,,,,,,,,,,,,,,,,,,,,,,,,,,,,,,,,,,,,,,,,,,,,,,,,,,,,,,,,,,,,,,,,,,,,,,,,,
,,,,,664805,001,2025-03-14_19h38.57.391,Utility_discrimination_2024_2cat,2024.2.4,Win32,60.24096386,,,,,,,,1,"[0.5,0.5]","[0.924,0.383]",d,"[0.5,0.6143098495871158]","[0.5,0.38569015041288424]",726.1439,728.5909,1,s,1,0.9101,,0.163140537,0.47997237,0.316831833,728.5933,728.5933,0,136,136,136,1,0.11430985,0.11430985,shape_difference4,1,,TRUE,,intensity,0.1,0.05,0.7,0.3,0.82,20,400,1E-11,3.5,0.01,0.5,0.1,,,,,,,,,,,,,,,,,,,,,,,,,,,,,,,,,,,,,,,,,,,,,,,,,,,,,,,,,,,,,,,,,,,,,,,,,,,,,,,,,
,,,,,664805,001,2025-03-14_19h38.57.391,Utility_discrimination_2024_2cat,2024.2.4,Win32,60.24096386,,,,,,,,0,"[0.5,0.5]","[1,0]",s,"[0.7684995537402861,0.6112936461932138]","[0.2315004462597139,0.3887063538067862]",728.594,730.9073,1,s,1,0.7774,,-0.293282777,0.104319513,0.39760229,730.9099,730.9099,0,137,137,137,1,0.290583933,0.290583933,shape_difference1,1,,TRUE,,intensity,0.1,0.05,0.7,0.3,0.82,20,400,1E-11,3.5,0.01,0.5,0.1,,,,,,,,,,,,,,,,,,,,,,,,,,,,,,,,,,,,,,,,,,,,,,,,,,,,,,,,,,,,,,,,,,,,,,,,,,,,,,,,,
,,,,,664805,001,2025-03-14_19h38.57.391,Utility_discrimination_2024_2cat,2024.2.4,Win32,60.24096386,,,,,,,,3,"[0.5,0.5]","[0.383,0.924]",s,"[0.3562558615420215,0.5]","[0.6437441384579785,0.5]",730.9113,733.2917,1,s,1,0.8453,,0.006552847,0.195506798,0.188953951,733.2935,733.2935,0,138,138,138,1,-0.143744138,-0.143744138,shape_difference0,1,,TRUE,,intensity,0.1,0.05,0.7,0.3,0.82,20,400,1E-11,3.5,0.01,0.5,0.1,,,,,,,,,,,,,,,,,,,,,,,,,,,,,,,,,,,,,,,,,,,,,,,,,,,,,,,,,,,,,,,,,,,,,,,,,,,,,,,,,
,,,,,664805,001,2025-03-14_19h38.57.391,Utility_discrimination_2024_2cat,2024.2.4,Win32,60.24096386,,,,,,,,3,"[0.5,0.5]","[0.383,0.924]",s,"[0.5359686135807145,0.5867754541738387]","[0.4640313864192855,0.41322454582616136]",733.2943,736.3082,1,d,1,1.4791,,0.005793694,0.192234727,0.186441033,736.3106,736.3106,0,139,139,139,1,0.093912829,0.093912829,shape_difference3,1,,TRUE,,intensity,0.1,0.05,0.7,0.3,0.82,20,400,1E-11,3.5,0.01,0.5,0.1,,,,,,,,,,,,,,,,,,,,,,,,,,,,,,,,,,,,,,,,,,,,,,,,,,,,,,,,,,,,,,,,,,,,,,,,,,,,,,,,,
,,,,,664805,001,2025-03-14_19h38.57.391,Utility_discrimination_2024_2cat,2024.2.4,Win32,60.24096386,,,,,,,,0,"[0.5,0.5]","[1,0]",d,"[0.5335185228781232,0.5808645303900414]","[0.4664814771218768,0.4191354696099587]",736.3115,739.0743,1,s,1,1.2218,,-0.295421678,0.055052227,0.350473905,739.0764,739.0764,0,140,140,140,1,0.087515726,0.087515726,shape_difference3,1,,TRUE,,intensity,0.1,0.05,0.7,0.3,0.82,20,400,1E-11,3.5,0.01,0.5,0.1,,,,,,,,,,,,,,,,,,,,,,,,,,,,,,,,,,,,,,,,,,,,,,,,,,,,,,,,,,,,,,,,,,,,,,,,,,,,,,,,,
,,,,,664805,001,2025-03-14_19h38.57.391,Utility_discrimination_2024_2cat,2024.2.4,Win32,60.24096386,,,,,,,,2,"[0.5,0.5]","[0.707,0.707]",s,"[0.3397511223594577,0.5]","[0.6602488776405423,0.5]",739.0769,741.4241,0,s,0,0.8097,,-1.08539188,-0.655527157,0.429864723,741.4268,741.4269,0,141,141,141,1,-0.160248878,-0.160248878,shape_difference0,1,,TRUE,,intensity,0.1,0.05,0.7,0.3,0.82,20,400,1E-11,3.5,0.01,0.5,0.1,,,,,,,,,,,,,,,,,,,,,,,,,,,,,,,,,,,,,,,,,,,,,,,,,,,,,,,,,,,,,,,,,,,,,,,,,,,,,,,,,
,,,,,664805,001,2025-03-14_19h38.57.391,Utility_discrimination_2024_2cat,2024.2.4,Win32,60.24096386,,,,,,,,1,"[0.5,0.5]","[0.924,0.383]",d,"[-0.09418464050086472,-0.09418464050086472]","[1.0941846405008646,1.0941846405008646]",741.4285,743.7075,1,d,1,0.7353,,0.151350246,0.452760545,0.3014103,743.7101,743.7102,0,142,142,142,1,-0.840430892,-0.840430892,shape_difference2,1,,TRUE,,intensity,0.1,0.05,0.7,0.3,0.82,20,400,1E-11,3.5,0.01,0.5,0.1,,,,,,,,,,,,,,,,,,,,,,,,,,,,,,,,,,,,,,,,,,,,,,,,,,,,,,,,,,,,,,,,,,,,,,,,,,,,,,,,,
,,,,,664805,001,2025-03-14_19h38.57.391,Utility_discrimination_2024_2cat,2024.2.4,Win32,60.24096386,,,,,,,,4,"[0.5,0.5]","[0,1]",d,"[0.7605599502049798,0.6080026633425403]","[0.2394400497950202,0.39199733665745967]",743.7113,746.0739,1,s,1,0.8269,,0.006818448,0.198623557,0.191805109,746.0768,746.0768,0,143,143,143,1,0.281991288,0.281991288,shape_difference1,1,,TRUE,,intensity,0.1,0.05,0.7,0.3,0.82,20,400,1E-11,3.5,0.01,0.5,0.1,,,,,,,,,,,,,,,,,,,,,,,,,,,,,,,,,,,,,,,,,,,,,,,,,,,,,,,,,,,,,,,,,,,,,,,,,,,,,,,,,
,,,,,664805,001,2025-03-14_19h38.57.391,Utility_discrimination_2024_2cat,2024.2.4,Win32,60.24096386,,,,,,,,4,"[0.5,0.5]","[0,1]",s,"[0.5,0.6024212214351792]","[0.5,0.3975787785648208]",746.0777,749.274,1,s,1,1.6517,,0.005873611,0.195422265,0.189548654,749.2765,749.2765,0,144,144,144,1,0.102421221,0.102421221,shape_difference4,1,,TRUE,,intensity,0.1,0.05,0.7,0.3,0.82,20,400,1E-11,3.5,0.01,0.5,0.1,,,,,,,,,,,,,,,,,,,,,,,,,,,,,,,,,,,,,,,,,,,,,,,,,,,,,,,,,,,,,,,,,,,,,,,,,,,,,,,,,
,,,,,664805,001,2025-03-14_19h38.57.391,Utility_discrimination_2024_2cat,2024.2.4,Win32,60.24096386,,,,,,,,3,"[0.5,0.5]","[0.383,0.924]",s,"[0.5,0.5937051129265015]","[0.5,0.4062948870734985]",749.2774,752.141,1,d,1,1.3213,,0.00509825,0.188785505,0.183687255,752.1439,752.144,0,145,145,145,1,0.093705113,0.093705113,shape_difference4,1,,TRUE,,intensity,0.1,0.05,0.7,0.3,0.82,20,400,1E-11,3.5,0.01,0.5,0.1,,,,,,,,,,,,,,,,,,,,,,,,,,,,,,,,,,,,,,,,,,,,,,,,,,,,,,,,,,,,,,,,,,,,,,,,,,,,,,,,,
,,,,,664805,001,2025-03-14_19h38.57.391,Utility_discrimination_2024_2cat,2024.2.4,Win32,60.24096386,,,,,,,,2,"[0.5,0.5]","[0.707,0.707]",d,"[0.5315070559752784,0.5760118008385307]","[0.4684929440247216,0.42398819916146935]",752.146,754.5073,1,s,1,0.8188,,-1.093910339,-0.691529007,0.402381332,754.5107,754.5108,0,146,146,146,1,0.082263854,0.082263854,shape_difference3,1,,TRUE,,intensity,0.1,0.05,0.7,0.3,0.82,20,400,1E-11,3.5,0.01,0.5,0.1,,,,,,,,,,,,,,,,,,,,,,,,,,,,,,,,,,,,,,,,,,,,,,,,,,,,,,,,,,,,,,,,,,,,,,,,,,,,,,,,,
,,,,,664805,001,2025-03-14_19h38.57.391,Utility_discrimination_2024_2cat,2024.2.4,Win32,60.24096386,,,,,,,,1,"[0.5,0.5]","[0.924,0.383]",s,"[-0.10665880949141171,-0.10665880949141171]","[1.1066588094914116,1.1066588094914116]",754.512,756.6905,1,d,1,0.6428,,0.142463231,0.417545044,0.275081812,756.6926,756.6926,0,147,147,147,1,-0.858074695,-0.858074695,shape_difference2,1,,TRUE,,intensity,0.1,0.05,0.7,0.3,0.82,20,400,1E-11,3.5,0.01,0.5,0.1,,,,,,,,,,,,,,,,,,,,,,,,,,,,,,,,,,,,,,,,,,,,,,,,,,,,,,,,,,,,,,,,,,,,,,,,,,,,,,,,,
,,,,,664805,001,2025-03-14_19h38.57.391,Utility_discrimination_2024_2cat,2024.2.4,Win32,60.24096386,,,,,,,,0,"[0.5,0.5]","[1,0]",d,"[0.7541104248207027,0.6053293211107458]","[0.24588957517929733,0.39467067888925417]",756.6938,759.3068,1,d,1,1.068,,-0.283902924,0.130959475,0.4148624,759.3091,759.3092,0,148,148,148,1,0.275011282,0.275011282,shape_difference1,1,,TRUE,,intensity,0.1,0.05,0.7,0.3,0.82,20,400,1E-11,3.5,0.01,0.5,0.1,,,,,,,,,,,,,,,,,,,,,,,,,,,,,,,,,,,,,,,,,,,,,,,,,,,,,,,,,,,,,,,,,,,,,,,,,,,,,,,,,
,,,,,664805,001,2025-03-14_19h38.57.391,Utility_discrimination_2024_2cat,2024.2.4,Win32,60.24096386,,,,,,,,2,"[0.5,0.5]","[0.707,0.707]",d,"[0.37506133209709985,0.5]","[0.6249386679029001,0.5]",759.3098,761.707,1,s,1,0.8513,,-1.116723522,-0.708727726,0.407995796,761.7098,761.7098,0,149,149,149,1,-0.124938668,-0.124938668,shape_difference0,1,,TRUE,,intensity,0.1,0.05,0.7,0.3,0.82,20,400,1E-11,3.5,0.01,0.5,0.1,,,,,,,,,,,,,,,,,,,,,,,,,,,,,,,,,,,,,,,,,,,,,,,,,,,,,,,,,,,,,,,,,,,,,,,,,,,,,,,,,
,,,,,664805,001,2025-03-14_19h38.57.391,Utility_discrimination_2024_2cat,2024.2.4,Win32,60.24096386,,,,,,,,1,"[0.5,0.5]","[0.924,0.383]",s,"[-0.12126789111168468,-0.12126789111168468]","[1.1212678911116847,1.1212678911116847]",761.7105,763.8406,1,d,1,0.5845,,0.135636148,0.394812746,0.259176598,763.8431,763.8431,0,150,150,150,1,-0.878738177,-0.878738177,shape_difference2,1,,TRUE,,intensity,0.1,0.05,0.7,0.3,0.82,20,400,1E-11,3.5,0.01,0.5,0.1,,,,,,,,,,,,,,,,,,,,,,,,,,,,,,,,,,,,,,,,,,,,,,,,,,,,,,,,,,,,,,,,,,,,,,,,,,,,,,,,,
,,,,,664805,001,2025-03-14_19h38.57.391,Utility_discrimination_2024_2cat,2024.2.4,Win32,60.24096386,,,,,,,,0,"[0.5,0.5]","[1,0]",d,"[0.7487252106513657,0.6030971381812479]","[0.25127478934863434,0.3969028618187521]",763.8444,766.2243,1,s,1,0.8377,,-0.286858106,0.075799069,0.362657176,766.2268,766.2268,0,151,151,151,1,0.269183128,0.269183128,shape_difference1,1,,TRUE,,intensity,0.1,0.05,0.7,0.3,0.82,20,400,1E-11,3.5,0.01,0.5,0.1,,,,,,,,,,,,,,,,,,,,,,,,,,,,,,,,,,,,,,,,,,,,,,,,,,,,,,,,,,,,,,,,,,,,,,,,,,,,,,,,,
,,,,,664805,001,2025-03-14_19h38.57.391,Utility_discrimination_2024_2cat,2024.2.4,Win32,60.24096386,,,,,,,,3,"[0.5,0.5]","[0.383,0.924]",s,"[0.3608549845720745,0.5]","[0.6391450154279255,0.5]",766.2279,768.5571,0,s,0,0.7863,,0.00444203,0.185047247,0.180605217,768.5594,768.5594,0,152,152,152,1,-0.139145015,-0.139145015,shape_difference0,1,,TRUE,,intensity,0.1,0.05,0.7,0.3,0.82,20,400,1E-11,3.5,0.01,0.5,0.1,,,,,,,,,,,,,,,,,,,,,,,,,,,,,,,,,,,,,,,,,,,,,,,,,,,,,,,,,,,,,,,,,,,,,,,,,,,,,,,,,
,,,,,664805,001,2025-03-14_19h38.57.391,Utility_discrimination_2024_2cat,2024.2.4,Win32,60.24096386,,,,,,,,4,"[0.5,0.5]","[0,1]",d,"[0.5298468042422725,0.5720063893468925]","[0.47015319575772746,0.4279936106531075]",768.5604,771.0906,1,d,1,0.99,,0.005007498,0.192139365,0.187131867,771.0923,771.0923,0,153,153,153,1,0.077928993,0.077928993,shape_difference3,1,,TRUE,,intensity,0.1,0.05,0.7,0.3,0.82,20,400,1E-11,3.5,0.01,0.5,0.1,,,,,,,,,,,,,,,,,,,,,,,,,,,,,,,,,,,,,,,,,,,,,,,,,,,,,,,,,,,,,,,,,,,,,,,,,,,,,,,,,
,,,,,664805,001,2025-03-14_19h38.57.391,Utility_discrimination_2024_2cat,2024.2.4,Win32,60.24096386,,,,,,,,0,"[0.5,0.5]","[1,0]",d,"[0.5,0.5872489567667983]","[0.5,0.41275104323320166]",771.0928,773.773,0,s,0,1.1348,,-0.247463074,0.219673302,0.467136376,773.7752,773.7752,0,154,154,154,1,0.087248957,0.087248957,shape_difference4,1,,TRUE,,intensity,0.1,0.05,0.7,0.3,0.82,20,400,1E-11,3.5,0.01,0.5,0.1,,,,,,,,,,,,,,,,,,,,,,,,,,,,,,,,,,,,,,,,,,,,,,,,,,,,,,,,,,,,,,,,,,,,,,,,,,,,,,,,,
,,,,,664805,001,2025-03-14_19h38.57.391,Utility_discrimination_2024_2cat,2024.2.4,Win32,60.24096386,,,,,,,,3,"[0.5,0.5]","[0.383,0.924]",d,"[0.42685063555551184,0.5]","[0.5731493644444882,0.5]",773.7757,776.1571,0,s,0,0.8384,,0.003803739,0.180895845,0.177092106,776.1595,776.1595,0,155,155,155,1,-0.073149364,-0.073149364,shape_difference0,1,,TRUE,,intensity,0.1,0.05,0.7,0.3,0.82,20,400,1E-11,3.5,0.01,0.5,0.1,,,,,,,,,,,,,,,,,,,,,,,,,,,,,,,,,,,,,,,,,,,,,,,,,,,,,,,,,,,,,,,,,,,,,,,,,,,,,,,,,
,,,,,664805,001,2025-03-14_19h38.57.391,Utility_discrimination_2024_2cat,2024.2.4,Win32,60.24096386,,,,,,,,4,"[0.5,0.5]","[0,1]",d,"[0.528468341454796,0.5686808028831111]","[0.47153165854520396,0.43131919711688893]",776.1604,778.5397,1,s,1,0.8434,,0.00876078,0.199674461,0.190913681,778.5416,778.5416,0,156,156,156,1,0.074329873,0.074329873,shape_difference3,1,,TRUE,,intensity,0.1,0.05,0.7,0.3,0.82,20,400,1E-11,3.5,0.01,0.5,0.1,,,,,,,,,,,,,,,,,,,,,,,,,,,,,,,,,,,,,,,,,,,,,,,,,,,,,,,,,,,,,,,,,,,,,,,,,,,,,,,,,
,,,,,664805,001,2025-03-14_19h38.57.391,Utility_discrimination_2024_2cat,2024.2.4,Win32,60.24096386,,,,,,,,2,"[0.5,0.5]","[0.707,0.707]",s,"[0.5,0.6144356373308171]","[0.5,0.385564362669183]",778.5421,780.873,0,d,0,0.7942,,-1.142962733,-0.722867536,0.420095197,780.8754,780.8754,0,157,157,157,1,0.114435637,0.114435637,shape_difference4,1,,TRUE,,intensity,0.1,0.05,0.7,0.3,0.82,20,400,1E-11,3.5,0.01,0.5,0.1,,,,,,,,,,,,,,,,,,,,,,,,,,,,,,,,,,,,,,,,,,,,,,,,,,,,,,,,,,,,,,,,,,,,,,,,,,,,,,,,,
,,,,,664805,001,2025-03-14_19h38.57.391,Utility_discrimination_2024_2cat,2024.2.4,Win32,60.24096386,,,,,,,,1,"[0.5,0.5]","[0.924,0.383]",s,"[-0.13801076097418286,-0.13801076097418286]","[1.1380107609741827,1.1380107609741827]",780.8759,782.7071,1,d,1,0.2882,,0.130300473,0.385722566,0.255422093,782.7091,782.7092,0,158,158,158,1,-0.902419747,-0.902419747,shape_difference2,1,,TRUE,,intensity,0.1,0.05,0.7,0.3,0.82,20,400,1E-11,3.5,0.01,0.5,0.1,,,,,,,,,,,,,,,,,,,,,,,,,,,,,,,,,,,,,,,,,,,,,,,,,,,,,,,,,,,,,,,,,,,,,,,,,,,,,,,,,
,,,,,664805,001,2025-03-14_19h38.57.391,Utility_discrimination_2024_2cat,2024.2.4,Win32,60.24096386,,,,,,,,3,"[0.5,0.5]","[0.383,0.924]",d,"[0.7440876017646654,0.6011748392595961]","[0.2559123982353347,0.39882516074040386]",782.7098,785.2405,1,d,1,0.9848,,0.003164229,0.176190035,0.173025806,785.2437,785.2437,0,159,159,159,1,0.264164071,0.264164071,shape_difference1,1,,TRUE,,intensity,0.1,0.05,0.7,0.3,0.82,20,400,1E-11,3.5,0.01,0.5,0.1,,,,,,,,,,,,,,,,,,,,,,,,,,,,,,,,,,,,,,,,,,,,,,,,,,,,,,,,,,,,,,,,,,,,,,,,,,,,,,,,,
,,,,,664805,001,2025-03-14_19h38.57.391,Utility_discrimination_2024_2cat,2024.2.4,Win32,60.24096386,,,,,,,,4,"[0.5,0.5]","[0,1]",d,"[0.5273160784123861,0.5659009306868011]","[0.4726839215876138,0.43409906931319886]",785.2452,787.6737,1,d,1,0.8853,,0.012945682,0.24388312,0.230937438,787.6766,787.6766,0,160,160,160,1,0.071321354,0.071321354,shape_difference3,1,,TRUE,,intensity,0.1,0.05,0.7,0.3,0.82,20,400,1E-11,3.5,0.01,0.5,0.1,,,,,,,,,,,,,,,,,,,,,,,,,,,,,,,,,,,,,,,,,,,,,,,,,,,,,,,,,,,,,,,,,,,,,,,,,,,,,,,,,
,,,,,664805,001,2025-03-14_19h38.57.391,Utility_discrimination_2024_2cat,2024.2.4,Win32,60.24096386,,,,,,,,0,"[0.5,0.5]","[1,0]",d,"[0.5,0.6388794849809528]","[0.5,0.3611205150190472]",787.6775,790.2727,1,s,1,1.0547,,-0.189443865,0.335743677,0.525187542,790.2749,790.2749,0,161,161,161,1,0.138879485,0.138879485,shape_difference4,1,,TRUE,,intensity,0.1,0.05,0.7,0.3,0.82,20,400,1E-11,3.5,0.01,0.5,0.1,,,,,,,,,,,,,,,,,,,,,,,,,,,,,,,,,,,,,,,,,,,,,,,,,,,,,,,,,,,,,,,,,,,,,,,,,,,,,,,,,
,,,,,664805,001,2025-03-14_19h38.57.391,Utility_discrimination_2024_2cat,2024.2.4,Win32,60.24096386,,,,,,,,1,"[0.5,0.5]","[0.924,0.383]",s,"[0.48326337292866695,0.5]","[0.516736627071333,0.5]",790.2758,792.5565,1,s,1,0.7407,,0.12606595,0.375872759,0.249806809,792.5588,792.5589,0,162,162,162,1,-0.016736627,-0.016736627,shape_difference0,1,,TRUE,,intensity,0.1,0.05,0.7,0.3,0.82,20,400,1E-11,3.5,0.01,0.5,0.1,,,,,,,,,,,,,,,,,,,,,,,,,,,,,,,,,,,,,,,,,,,,,,,,,,,,,,,,,,,,,,,,,,,,,,,,,,,,,,,,,
,,,,,664805,001,2025-03-14_19h38.57.391,Utility_discrimination_2024_2cat,2024.2.4,Win32,60.24096386,,,,,,,,2,"[0.5,0.5]","[0.707,0.707]",s,"[0.7399562536842976,0.5994623865379719]","[0.2600437463157023,0.4005376134620281]",792.5596,794.2564,1,s,1,0.1589,,-1.161319209,-0.741919602,0.419399608,794.26,794.2601,0,163,163,163,1,0.259692915,0.259692915,shape_difference1,1,,TRUE,,intensity,0.1,0.05,0.7,0.3,0.82,20,400,1E-11,3.5,0.01,0.5,0.1,,,,,,,,,,,,,,,,,,,,,,,,,,,,,,,,,,,,,,,,,,,,,,,,,,,,,,,,,,,,,,,,,,,,,,,,,,,,,,,,,
,,,,,664805,001,2025-03-14_19h38.57.391,Utility_discrimination_2024_2cat,2024.2.4,Win32,60.24096386,,,,,,,,0,"[0.5,0.5]","[1,0]",s,"[-0.15173916340162363,-0.15173916340162363]","[1.1517391634016236,1.1517391634016236]",794.2612,796.3264,1,s,1,0.5322,,-0.192627553,0.26184935,0.454476903,796.3285,796.3285,0,164,164,164,1,-0.921837572,-0.921837572,shape_difference2,1,,TRUE,,intensity,0.1,0.05,0.7,0.3,0.82,20,400,1E-11,3.5,0.01,0.5,0.1,,,,,,,,,,,,,,,,,,,,,,,,,,,,,,,,,,,,,,,,,,,,,,,,,,,,,,,,,,,,,,,,,,,,,,,,,,,,,,,,,
,,,,,664805,001,2025-03-14_19h38.57.391,Utility_discrimination_2024_2cat,2024.2.4,Win32,60.24096386,,,,,,,,4,"[0.5,0.5]","[0,1]",s,"[0.4618634073652913,0.5]","[0.5381365926347087,0.5]",796.33,798.5399,1,s,1,0.6785,,0.011429798,0.226450368,0.21502057,798.5421,798.5421,0,165,165,165,1,-0.038136593,-0.038136593,shape_difference0,1,,TRUE,,intensity,0.1,0.05,0.7,0.3,0.82,20,400,1E-11,3.5,0.01,0.5,0.1,,,,,,,,,,,,,,,,,,,,,,,,,,,,,,,,,,,,,,,,,,,,,,,,,,,,,,,,,,,,,,,,,,,,,,,,,,,,,,,,,
,,,,,664805,001,2025-03-14_19h38.57.391,Utility_discrimination_2024_2cat,2024.2.4,Win32,60.24096386,,,,,,,,2,"[0.5,0.5]","[0.707,0.707]",s,"[0.5,0.6318190182987877]","[0.5,0.3681809817012123]",798.5426,800.5726,1,s,1,0.4923,,-1.174435531,-0.768550501,0.40588503,800.575,800.575,0,166,166,166,1,0.131819018,0.131819018,shape_difference4,1,,TRUE,,intensity,0.1,0.05,0.7,0.3,0.82,20,400,1E-11,3.5,0.01,0.5,0.1,,,,,,,,,,,,,,,,,,,,,,,,,,,,,,,,,,,,,,,,,,,,,,,,,,,,,,,,,,,,,,,,,,,,,,,,,,,,,,,,,
,,,,,664805,001,2025-03-14_19h38.57.391,Utility_discrimination_2024_2cat,2024.2.4,Win32,60.24096386,,,,,,,,1,"[0.5,0.5]","[0.924,0.383]",s,"[-0.16386058729861863,-0.16386058729861863]","[1.1638605872986187,1.1638605872986187]",800.5755,802.5735,1,d,1,0.4547,,0.12265975,0.364765827,0.242106077,802.5758,802.5758,0,167,167,167,1,-0.938982443,-0.938982443,shape_difference2,1,,TRUE,,intensity,0.1,0.05,0.7,0.3,0.82,20,400,1E-11,3.5,0.01,0.5,0.1,,,,,,,,,,,,,,,,,,,,,,,,,,,,,,,,,,,,,,,,,,,,,,,,,,,,,,,,,,,,,,,,,,,,,,,,,,,,,,,,,
,,,,,664805,001,2025-03-14_19h38.57.391,Utility_discrimination_2024_2cat,2024.2.4,Win32,60.24096386,,,,,,,,3,"[0.5,0.5]","[0.383,0.924]",d,"[0.7361418093474593,0.5978812911039794]","[0.2638581906525407,0.40211870889602064]",802.5768,804.7558,1,d,1,0.6434,,0.002505673,0.170765612,0.168259939,804.7577,804.7577,0,168,168,168,1,0.255564729,0.255564729,shape_difference1,1,,TRUE,,intensity,0.1,0.05,0.7,0.3,0.82,20,400,1E-11,3.5,0.01,0.5,0.1,,,,,,,,,,,,,,,,,,,,,,,,,,,,,,,,,,,,,,,,,,,,,,,,,,,,,,,,,,,,,,,,,,,,,,,,,,,,,,,,,
,,,,,664805,001,2025-03-14_19h38.57.391,Utility_discrimination_2024_2cat,2024.2.4,Win32,60.24096386,,,,,,,,1,"[0.5,0.5]","[0.924,0.383]",d,"[0.5263451353548234,0.563558498871689]","[0.47365486464517653,0.43644150112831104]",804.7585,807.7065,1,s,1,1.4046,,0.119887615,0.351805397,0.231917783,807.7088,807.7089,0,169,169,169,1,0.068786254,0.068786254,shape_difference3,1,,TRUE,,intensity,0.1,0.05,0.7,0.3,0.82,20,400,1E-11,3.5,0.01,0.5,0.1,,,,,,,,,,,,,,,,,,,,,,,,,,,,,,,,,,,,,,,,,,,,,,,,,,,,,,,,,,,,,,,,,,,,,,,,,,,,,,,,,
,,,,,664805,001,2025-03-14_19h38.57.391,Utility_discrimination_2024_2cat,2024.2.4,Win32,60.24096386,,,,,,,,2,"[0.5,0.5]","[0.707,0.707]",s,"[0.732490464612529,0.5963678008080071]","[0.267509535387471,0.4036321991919929]",807.7095,810.1736,0,d,0,0.92,,-1.18400943,-0.801619973,0.382389457,810.1769,810.1769,0,170,170,170,1,0.251613057,0.251613057,shape_difference1,1,,TRUE,,intensity,0.1,0.05,0.7,0.3,0.82,20,400,1E-11,3.5,0.01,0.5,0.1,,,,,,,,,,,,,,,,,,,,,,,,,,,,,,,,,,,,,,,,,,,,,,,,,,,,,,,,,,,,,,,,,,,,,,,,,,,,,,,,,
,,,,,664805,001,2025-03-14_19h38.57.391,Utility_discrimination_2024_2cat,2024.2.4,Win32,60.24096386,,,,,,,,3,"[0.5,0.5]","[0.383,0.924]",s,"[-0.1750350649150595,-0.1750350649150595]","[1.1750350649150594,1.1750350649150594]",810.1779,812.1733,1,d,1,0.4542,,0.001810869,0.164428479,0.16261761,812.1761,812.1763,0,171,171,171,1,-0.954787928,-0.954787928,shape_difference2,1,,TRUE,,intensity,0.1,0.05,0.7,0.3,0.82,20,400,1E-11,3.5,0.01,0.5,0.1,,,,,,,,,,,,,,,,,,,,,,,,,,,,,,,,,,,,,,,,,,,,,,,,,,,,,,,,,,,,,,,,,,,,,,,,,,,,,,,,,
,,,,,664805,001,2025-03-14_19h38.57.391,Utility_discrimination_2024_2cat,2024.2.4,Win32,60.24096386,,,,,,,,0,"[0.5,0.5]","[1,0]",d,"[0.5255189595139395,0.5615653226915928]","[0.4744810404860606,0.4384346773084073]",812.1776,814.8394,1,d,1,1.1183,,-0.19495326,0.187161824,0.382115084,814.8422,814.8423,0,172,172,172,1,0.066629137,0.066629137,shape_difference3,1,,TRUE,,intensity,0.1,0.05,0.7,0.3,0.82,20,400,1E-11,3.5,0.01,0.5,0.1,,,,,,,,,,,,,,,,,,,,,,,,,,,,,,,,,,,,,,,,,,,,,,,,,,,,,,,,,,,,,,,,,,,,,,,,,,,,,,,,,
,,,,,664805,001,2025-03-14_19h38.57.391,Utility_discrimination_2024_2cat,2024.2.4,Win32,60.24096386,,,,,,,,4,"[0.5,0.5]","[0,1]",d,"[0.44378765839283146,0.5]","[0.5562123416071685,0.5]",814.8435,817.5557,0,s,0,1.1703,,0.010192218,0.204274056,0.194081838,817.5583,817.5583,0,173,173,173,1,-0.056212342,-0.056212342,shape_difference0,1,,TRUE,,intensity,0.1,0.05,0.7,0.3,0.82,20,400,1E-11,3.5,0.01,0.5,0.1,,,,,,,,,,,,,,,,,,,,,,,,,,,,,,,,,,,,,,,,,,,,,,,,,,,,,,,,,,,,,,,,,,,,,,,,,,,,,,,,,
,,,,,664805,001,2025-03-14_19h38.57.391,Utility_discrimination_2024_2cat,2024.2.4,Win32,60.24096386,,,,,,,,0,"[0.5,0.5]","[1,0]",d,"[0.5,0.6237932613359319]","[0.5,0.37620673866406806]",817.5589,820.1557,1,s,1,1.0509,,-0.183069928,0.280211789,0.463281716,820.1587,820.1587,0,174,174,174,1,0.123793261,0.123793261,shape_difference4,1,,TRUE,,intensity,0.1,0.05,0.7,0.3,0.82,20,400,1E-11,3.5,0.01,0.5,0.1,,,,,,,,,,,,,,,,,,,,,,,,,,,,,,,,,,,,,,,,,,,,,,,,,,,,,,,,,,,,,,,,,,,,,,,,,,,,,,,,,
,,,,,664805,001,2025-03-14_19h38.57.391,Utility_discrimination_2024_2cat,2024.2.4,Win32,60.24096386,,,,,,,,1,"[0.5,0.5]","[0.924,0.383]",s,"[0.48055939398650904,0.5]","[0.519440606013491,0.5]",820.1602,822.5394,1,s,1,0.8339,,0.160865837,0.385576257,0.22471042,822.5421,822.5421,0,175,175,175,1,-0.019440606,-0.019440606,shape_difference0,1,,TRUE,,intensity,0.1,0.05,0.7,0.3,0.82,20,400,1E-11,3.5,0.01,0.5,0.1,,,,,,,,,,,,,,,,,,,,,,,,,,,,,,,,,,,,,,,,,,,,,,,,,,,,,,,,,,,,,,,,,,,,,,,,,,,,,,,,,
,,,,,664805,001,2025-03-14_19h38.57.391,Utility_discrimination_2024_2cat,2024.2.4,Win32,60.24096386,,,,,,,,2,"[0.5,0.5]","[0.707,0.707]",s,"[0.7490806865006576,0.6032444836902077]","[0.2509193134993424,0.39675551630979233]",822.543,824.7731,1,d,1,0.6847,,-1.19613989,-0.811589765,0.384550124,824.7761,824.7761,0,176,176,176,1,0.269567843,0.269567843,shape_difference1,1,,TRUE,,intensity,0.1,0.05,0.7,0.3,0.82,20,400,1E-11,3.5,0.01,0.5,0.1,,,,,,,,,,,,,,,,,,,,,,,,,,,,,,,,,,,,,,,,,,,,,,,,,,,,,,,,,,,,,,,,,,,,,,,,,,,,,,,,,
,,,,,664805,001,2025-03-14_19h38.57.391,Utility_discrimination_2024_2cat,2024.2.4,Win32,60.24096386,,,,,,,,3,"[0.5,0.5]","[0.383,0.924]",d,"[-0.18792374957213343,-0.18792374957213343]","[1.1879237495721333,1.1879237495721333]",824.777,827.5892,1,s,1,1.2699,,0.00106265,0.156946126,0.155883475,827.5915,827.5915,0,177,177,177,1,-0.973018033,-0.973018033,shape_difference2,1,,TRUE,,intensity,0.1,0.05,0.7,0.3,0.82,20,400,1E-11,3.5,0.01,0.5,0.1,,,,,,,,,,,,,,,,,,,,,,,,,,,,,,,,,,,,,,,,,,,,,,,,,,,,,,,,,,,,,,,,,,,,,,,,,,,,,,,,,
,,,,,664805,001,2025-03-14_19h38.57.391,Utility_discrimination_2024_2cat,2024.2.4,Win32,60.24096386,,,,,,,,4,"[0.5,0.5]","[0,1]",s,"[0.5248074920455734,0.5598488842039421]","[0.4751925079544266,0.4401511157960579]",827.5923,830.0555,1,s,1,0.9254,,0.009174215,0.197915221,0.188741006,830.0575,830.0575,0,178,178,178,1,0.06477152,0.06477152,shape_difference3,1,,TRUE,,intensity,0.1,0.05,0.7,0.3,0.82,20,400,1E-11,3.5,0.01,0.5,0.1,,,,,,,,,,,,,,,,,,,,,,,,,,,,,,,,,,,,,,,,,,,,,,,,,,,,,,,,,,,,,,,,,,,,,,,,,,,,,,,,,
,,,,,664805,001,2025-03-14_19h38.57.391,Utility_discrimination_2024_2cat,2024.2.4,Win32,60.24096386,,,,,,,,3,"[0.5,0.5]","[0.383,0.924]",s,"[0.5,0.6145405759758858]","[0.5,0.38545942402411415]",830.0586,832.5387,1,d,1,0.9441,,0.000243355,0.148037026,0.147793671,832.5411,832.5411,0,179,179,179,1,0.114540576,0.114540576,shape_difference4,1,,TRUE,,intensity,0.1,0.05,0.7,0.3,0.82,20,400,1E-11,3.5,0.01,0.5,0.1,,,,,,,,,,,,,,,,,,,,,,,,,,,,,,,,,,,,,,,,,,,,,,,,,,,,,,,,,,,,,,,,,,,,,,,,,,,,,,,,,
,,,,,664805,001,2025-03-14_19h38.57.391,Utility_discrimination_2024_2cat,2024.2.4,Win32,60.24096386,,,,,,,,0,"[0.5,0.5]","[1,0]",d,"[0.5241857427005805,0.5583488936170661]","[0.47581425729941956,0.44165110638293387]",832.5415,835.6059,1,d,1,1.5177,,-0.186322235,0.207880638,0.394202873,835.6081,835.6082,0,180,180,180,1,0.063148153,0.063148153,shape_difference3,1,,TRUE,,intensity,0.1,0.05,0.7,0.3,0.82,20,400,1E-11,3.5,0.01,0.5,0.1,,,,,,,,,,,,,,,,,,,,,,,,,,,,,,,,,,,,,,,,,,,,,,,,,,,,,,,,,,,,,,,,,,,,,,,,,,,,,,,,,
,,,,,664805,001,2025-03-14_19h38.57.391,Utility_discrimination_2024_2cat,2024.2.4,Win32,60.24096386,,,,,,,,4,"[0.5,0.5]","[0,1]",d,"[0.46473615914198374,0.5]","[0.5352638408580163,0.5]",835.6088,837.8559,0,s,0,0.7091,,0.008329787,0.195423318,0.187093531,837.8581,837.8582,0,181,181,181,1,-0.035263841,-0.035263841,shape_difference0,1,,TRUE,,intensity,0.1,0.05,0.7,0.3,0.82,20,400,1E-11,3.5,0.01,0.5,0.1,,,,,,,,,,,,,,,,,,,,,,,,,,,,,,,,,,,,,,,,,,,,,,,,,,,,,,,,,,,,,,,,,,,,,,,,,,,,,,,,,
,,,,,664805,001,2025-03-14_19h38.57.391,Utility_discrimination_2024_2cat,2024.2.4,Win32,60.24096386,,,,,,,,2,"[0.5,0.5]","[0.707,0.707]",d,"[0.5,0.6037574373726841]","[0.5,0.39624256262731594]",837.8586,840.022,0,s,0,0.6176,,-1.218810761,-0.824436766,0.394373995,840.0244,840.0245,0,182,182,182,1,0.103757437,0.103757437,shape_difference4,1,,TRUE,,intensity,0.1,0.05,0.7,0.3,0.82,20,400,1E-11,3.5,0.01,0.5,0.1,,,,,,,,,,,,,,,,,,,,,,,,,,,,,,,,,,,,,,,,,,,,,,,,,,,,,,,,,,,,,,,,,,,,,,,,,,,,,,,,,
,,,,,664805,001,2025-03-14_19h38.57.391,Utility_discrimination_2024_2cat,2024.2.4,Win32,60.24096386,,,,,,,,1,"[0.5,0.5]","[0.924,0.383]",d,"[-0.20293496026789914,-0.20293496026789914]","[1.2029349602678991,1.2029349602678991]",840.025,841.9052,1,d,1,0.3445,,0.151585978,0.377699891,0.226113913,841.9076,841.9076,0,183,183,183,1,-0.994250297,-0.994250297,shape_difference2,1,,TRUE,,intensity,0.1,0.05,0.7,0.3,0.82,20,400,1E-11,3.5,0.01,0.5,0.1,,,,,,,,,,,,,,,,,,,,,,,,,,,,,,,,,,,,,,,,,,,,,,,,,,,,,,,,,,,,,,,,,,,,,,,,,,,,,,,,,
,,,,,664805,001,2025-03-14_19h38.57.391,Utility_discrimination_2024_2cat,2024.2.4,Win32,60.24096386,,,,,,,,3,"[0.5,0.5]","[0.383,0.924]",d,"[0.7458371523509184,0.601900031764504]","[0.25416284764908154,0.3980999682354959]",841.9081,844.3223,1,s,1,0.8724,,-0.010333797,0.137357284,0.147691081,844.3244,844.3244,0,184,184,184,1,0.266057524,0.266057524,shape_difference1,1,,TRUE,,intensity,0.1,0.05,0.7,0.3,0.82,20,400,1E-11,3.5,0.01,0.5,0.1,,,,,,,,,,,,,,,,,,,,,,,,,,,,,,,,,,,,,,,,,,,,,,,,,,,,,,,,,,,,,,,,,,,,,,,,,,,,,,,,,
,,,,,664805,001,2025-03-14_19h38.57.391,Utility_discrimination_2024_2cat,2024.2.4,Win32,60.24096386,,,,,,,,4,"[0.5,0.5]","[0,1]",s,"[0.523632668889603,0.5570145849973713]","[0.4763673311103969,0.44298541500262867]",844.3251,846.7225,0,s,0,0.868,,0.01157262,0.210032084,0.198459464,846.7248,846.7248,0,185,185,185,1,0.061704096,0.061704096,shape_difference3,1,,TRUE,,intensity,0.1,0.05,0.7,0.3,0.82,20,400,1E-11,3.5,0.01,0.5,0.1,,,,,,,,,,,,,,,,,,,,,,,,,,,,,,,,,,,,,,,,,,,,,,,,,,,,,,,,,,,,,,,,,,,,,,,,,,,,,,,,,
,,,,,664805,001,2025-03-14_19h38.57.391,Utility_discrimination_2024_2cat,2024.2.4,Win32,60.24096386,,,,,,,,2,"[0.5,0.5]","[0.707,0.707]",d,"[0.5,0.6312651518357313]","[0.5,0.36873484816426866]",846.7253,849.1893,1,s,1,0.9221,,-1.242156093,-0.841684436,0.400471657,849.1918,849.1918,0,186,186,186,1,0.131265152,0.131265152,shape_difference4,1,,TRUE,,intensity,0.1,0.05,0.7,0.3,0.82,20,400,1E-11,3.5,0.01,0.5,0.1,,,,,,,,,,,,,,,,,,,,,,,,,,,,,,,,,,,,,,,,,,,,,,,,,,,,,,,,,,,,,,,,,,,,,,,,,,,,,,,,,
,,,,,664805,001,2025-03-14_19h38.57.391,Utility_discrimination_2024_2cat,2024.2.4,Win32,60.24096386,,,,,,,,0,"[0.5,0.5]","[1,0]",s,"[-0.2170512179018237,-0.2170512179018237]","[1.2170512179018238,1.2170512179018238]",849.1929,851.556,1,s,1,0.8186,,-0.143753009,0.36952984,0.513282849,851.5589,851.5589,0,187,187,187,1,-1.014216716,-1.014216716,shape_difference2,1,,TRUE,,intensity,0.1,0.05,0.7,0.3,0.82,20,400,1E-11,3.5,0.01,0.5,0.1,,,,,,,,,,,,,,,,,,,,,,,,,,,,,,,,,,,,,,,,,,,,,,,,,,,,,,,,,,,,,,,,,,,,,,,,,,,,,,,,,
,,,,,664805,001,2025-03-14_19h38.57.391,Utility_discrimination_2024_2cat,2024.2.4,Win32,60.24096386,,,,,,,,1,"[0.5,0.5]","[0.924,0.383]",s,"[0.5393916387702532,0.5]","[0.4606083612297468,0.5]",851.5604,853.8388,0,s,0,0.7406,,0.144097301,0.368941188,0.224843887,853.8413,853.8413,0,188,188,188,1,0.039391639,0.039391639,shape_difference0,1,,TRUE,,intensity,0.1,0.05,0.7,0.3,0.82,20,400,1E-11,3.5,0.01,0.5,0.1,,,,,,,,,,,,,,,,,,,,,,,,,,,,,,,,,,,,,,,,,,,,,,,,,,,,,,,,,,,,,,,,,,,,,,,,,,,,,,,,,
,,,,,664805,001,2025-03-14_19h38.57.391,Utility_discrimination_2024_2cat,2024.2.4,Win32,60.24096386,,,,,,,,2,"[0.5,0.5]","[0.707,0.707]",d,"[0.7429983853499537,0.6007233566980869]","[0.25700161465004634,0.39927664330191315]",853.8425,856.0055,1,d,1,0.6201,,-1.258803343,-0.865651269,0.393152074,856.0084,856.0084,0,189,189,189,1,0.262985266,0.262985266,shape_difference1,1,,TRUE,,intensity,0.1,0.05,0.7,0.3,0.82,20,400,1E-11,3.5,0.01,0.5,0.1,,,,,,,,,,,,,,,,,,,,,,,,,,,,,,,,,,,,,,,,,,,,,,,,,,,,,,,,,,,,,,,,,,,,,,,,,,,,,,,,,
,,,,,664805,001,2025-03-14_19h38.57.391,Utility_discrimination_2024_2cat,2024.2.4,Win32,60.24096386,,,,,,,,0,"[0.5,0.5]","[1,0]",d,"[-0.2288347910458527,-0.2288347910458527]","[1.2288347910458528,1.2288347910458528]",856.0096,858.7391,1,d,1,1.1843,,-0.087582034,0.467512728,0.555094762,858.7418,858.7418,0,190,190,190,1,-1.030883721,-1.030883721,shape_difference2,1,,TRUE,,intensity,0.1,0.05,0.7,0.3,0.82,20,400,1E-11,3.5,0.01,0.5,0.1,,,,,,,,,,,,,,,,,,,,,,,,,,,,,,,,,,,,,,,,,,,,,,,,,,,,,,,,,,,,,,,,,,,,,,,,,,,,,,,,,
,,,,,664805,001,2025-03-14_19h38.57.391,Utility_discrimination_2024_2cat,2024.2.4,Win32,60.24096386,,,,,,,,1,"[0.5,0.5]","[0.924,0.383]",d,"[0.5996021125689722,0.5]","[0.4003978874310278,0.5]",858.7426,861.4386,1,d,1,1.1589,,0.13798885,0.358911228,0.220922378,861.4409,861.4409,0,191,191,191,1,0.099602113,0.099602113,shape_difference0,1,,TRUE,,intensity,0.1,0.05,0.7,0.3,0.82,20,400,1E-11,3.5,0.01,0.5,0.1,,,,,,,,,,,,,,,,,,,,,,,,,,,,,,,,,,,,,,,,,,,,,,,,,,,,,,,,,,,,,,,,,,,,,,,,,,,,,,,,,
