Consent.started,Consent.stopped,key_resp.keys,key_resp.rt,key_resp.duration,participant,session,date,expName,psychopyVersion,OS,frameRate,SetupExperiment.started,SetupExperiment.stopped,DiscrimInstructions_Pre.started,DiscrimInstructions_Pre.stopped,KeyboardResponse.keys,KeyboardResponse.rt,KeyboardResponse.duration,feature_index,feature_center,feature_vector,correct_answer,coord1,coord2,DiscriminationTrial.started,DiscriminationTrial.stopped,PreTest.response,Resp_s_or_d.keys,Resp_s_or_d.corr,Resp_s_or_d.rt,Resp_s_or_d.duration,PreTest.CI_lower,PreTest.CI_upper,PreTest.CI_width,CrashPretest_2.started,CrashPretest_2.stopped,PreTest.thisRepN,PreTest.thisTrialN,PreTest.thisN,PreTest.thisIndex,PreTest.ran,PreTest.intensity,intensity,PreTest.label,PreTest.nReps,PreTest.method,PreTest.autoLog,PreTest.seed,PreTest.varName,PreTest.startVal,PreTest.minVal,PreTest.maxVal,PreTest.startValSd,PreTest.pThreshold,PreTest.nTrials,PreTest.maxTrials,PreTest.stopInterval,PreTest.beta,PreTest.delta,PreTest.gamma,PreTest.grain,WelcomeToCategorizationTask.started,WelcomeToCategorizationTask.stopped,PressAnyKey3.keys,PressAnyKey3.rt,PressAnyKey3.duration,shape_coordinates,category_center,category_sigma,subspace_center,subspace_vector1,subspace_vector2,CategorizationTrial.started,CategorizationTrial.stopped,Respond_1or2.keys,Respond_1or2.rt,Respond_1or2.duration,Feedback.started,Feedback.stopped,xcoord,ycoord,shape_coord,numeric_response_minus1,correctness,truecategory,mixture_index,respAifA,respBifA,respAifB,respBifB,trial_number,D,muAx,muAy,muBx,muBy,sigmaA,sigmaB,priorA,priorB,TrialLoop.thisRepN,TrialLoop.thisTrialN,TrialLoop.thisN,TrialLoop.thisIndex,TrialLoop.ran,DiscriminationInstructions_Post.started,DiscriminationInstructions_Post.stopped,key_resp_2.keys,key_resp_2.rt,key_resp_2.duration,PostTest.response,PostTest.CI_lower,PostTest.CI_upper,PostTest.CI_width,CrashPosttest.started,CrashPosttest.stopped,PostTest.thisRepN,PostTest.thisTrialN,PostTest.thisN,PostTest.thisIndex,PostTest.ran,PostTest.intensity,PostTest.label,PostTest.nReps,PostTest.method,PostTest.autoLog,PostTest.seed,PostTest.varName,PostTest.startVal,PostTest.minVal,PostTest.maxVal,PostTest.startValSd,PostTest.pThreshold,PostTest.nTrials,PostTest.maxTrials,PostTest.stopInterval,PostTest.beta,PostTest.delta,PostTest.gamma,PostTest.grain,Thanks.started,Thanks.stopped
0.0004,2.9341,y,2.903,,699892,001,2025-03-15_14h12.47.943,Utility_discrimination_2024_2cat,2024.2.4,Win32,61.72839506,,,,,,,,,,,,,,,,,,,,,,,,,,,,,,,,,,,,,,,,,,,,,,,,,,,,,,,,,,,,,,,,,,,,,,,,,,,,,,,,,,,,,,,,,,,,,,,,,,,,,,,,,,,,,,,,,,,,,,,,,,,,,,,,,,,
,,,,,699892,001,2025-03-15_14h12.47.943,Utility_discrimination_2024_2cat,2024.2.4,Win32,61.72839506,2.9343,2.9344,,,,,,,,,,,,,,,,,,,,,,,,,,,,,,,,,,,,,,,,,,,,,,,,,,,,,,,,,,,,,,,,,,,,,,,,,,,,,,,,,,,,,,,,,,,,,,,,,,,,,,,,,,,,,,,,,,,,,,,,,,,,,,,,,
,,,,,699892,001,2025-03-15_14h12.47.943,Utility_discrimination_2024_2cat,2024.2.4,Win32,61.72839506,,,2.9345,3.8334,space,0.877,,,,,,,,,,,,,,,,,,,,,,,,,,,,,,,,,,,,,,,,,,,,,,,,,,,,,,,,,,,,,,,,,,,,,,,,,,,,,,,,,,,,,,,,,,,,,,,,,,,,,,,,,,,,,,,,,,,,,,,,,,,,,
,,,,,699892,001,2025-03-15_14h12.47.943,Utility_discrimination_2024_2cat,2024.2.4,Win32,61.72839506,,,,,,,,0,"[0.5,0.5]","[1,0]",,"[0.6185239449756466,0.5]","[0.3814760550243534,0.5]",3.863,6.2517,0,s,0,0.8545,,-0.447967632,0.547967632,0.995935263,6.2548,6.2549,0,0,0,0,1,0.118523945,0.118523945,shape_difference1,1,,TRUE,,intensity,0.1,0.05,0.7,0.3,0.82,20,400,1E-11,3.5,0.01,0.5,0.1,,,,,,,,,,,,,,,,,,,,,,,,,,,,,,,,,,,,,,,,,,,,,,,,,,,,,,,,,,,,,,,,,,,,,,,,,,,,,,,,,
,,,,,699892,001,2025-03-15_14h12.47.943,Utility_discrimination_2024_2cat,2024.2.4,Win32,61.72839506,,,,,,,,3,"[0.5,0.5]","[0.383,0.924]",d,"[0.6185239449756466,0.5]","[0.3814760550243534,0.5]",6.2562,8.2698,0,s,0,0.4846,,-0.447967632,0.547967632,0.995935263,8.2714,8.2715,0,1,1,1,1,0.118523945,0.118523945,shape_difference0,1,,TRUE,,intensity,0.1,0.05,0.7,0.3,0.82,20,400,1E-11,3.5,0.01,0.5,0.1,,,,,,,,,,,,,,,,,,,,,,,,,,,,,,,,,,,,,,,,,,,,,,,,,,,,,,,,,,,,,,,,,,,,,,,,,,,,,,,,,
,,,,,699892,001,2025-03-15_14h12.47.943,Utility_discrimination_2024_2cat,2024.2.4,Win32,61.72839506,,,,,,,,2,"[0.5,0.5]","[0.707,0.707]",d,"[0.5453946709256726,0.6095161251574974]","[0.4546053290743273,0.3904838748425025]",8.2722,10.2333,1,s,1,0.4264,,-0.447967632,0.547967632,0.995935263,10.2355,10.2356,0,2,2,2,1,0.118523945,0.118523945,shape_difference3,1,,TRUE,,intensity,0.1,0.05,0.7,0.3,0.82,20,400,1E-11,3.5,0.01,0.5,0.1,,,,,,,,,,,,,,,,,,,,,,,,,,,,,,,,,,,,,,,,,,,,,,,,,,,,,,,,,,,,,,,,,,,,,,,,,,,,,,,,,
,,,,,699892,001,2025-03-15_14h12.47.943,Utility_discrimination_2024_2cat,2024.2.4,Win32,61.72839506,,,,,,,,4,"[0.5,0.5]","[0,1]",s,"[0.5837964290977822,0.5837964290977822]","[0.4162035709022178,0.4162035709022178]",10.237,12.4007,1,s,1,0.6285,,-0.447967632,0.547967632,0.995935263,12.4041,12.4042,0,3,3,3,1,0.118523945,0.118523945,shape_difference2,1,,TRUE,,intensity,0.1,0.05,0.7,0.3,0.82,20,400,1E-11,3.5,0.01,0.5,0.1,,,,,,,,,,,,,,,,,,,,,,,,,,,,,,,,,,,,,,,,,,,,,,,,,,,,,,,,,,,,,,,,,,,,,,,,,,,,,,,,,
,,,,,699892,001,2025-03-15_14h12.47.943,Utility_discrimination_2024_2cat,2024.2.4,Win32,61.72839506,,,,,,,,1,"[0.5,0.5]","[0.924,0.383]",s,"[0.5,0.6185239449756466]","[0.5,0.3814760550243534]",12.4052,14.4168,1,s,1,0.4703,,0.008797352,0.664308158,0.655510806,14.4193,14.4194,0,4,4,4,1,0.118523945,0.118523945,shape_difference4,1,,TRUE,,intensity,0.1,0.05,0.7,0.3,0.82,20,400,1E-11,3.5,0.01,0.5,0.1,,,,,,,,,,,,,,,,,,,,,,,,,,,,,,,,,,,,,,,,,,,,,,,,,,,,,,,,,,,,,,,,,,,,,,,,,,,,,,,,,
,,,,,699892,001,2025-03-15_14h12.47.943,Utility_discrimination_2024_2cat,2024.2.4,Win32,61.72839506,,,,,,,,2,"[0.5,0.5]","[0.707,0.707]",s,"[0.8000399480706037,0.6243672079123823]","[0.19996005192939625,0.37563279208761774]",14.4203,16.2339,0,s,0,0.2824,,-0.479157219,0.478510979,0.957668197,16.2356,16.2356,0,5,5,5,1,0.324718559,0.324718559,shape_difference1,1,,TRUE,,intensity,0.1,0.05,0.7,0.3,0.82,20,400,1E-11,3.5,0.01,0.5,0.1,,,,,,,,,,,,,,,,,,,,,,,,,,,,,,,,,,,,,,,,,,,,,,,,,,,,,,,,,,,,,,,,,,,,,,,,,,,,,,,,,
,,,,,699892,001,2025-03-15_14h12.47.943,Utility_discrimination_2024_2cat,2024.2.4,Win32,61.72839506,,,,,,,,3,"[0.5,0.5]","[0.383,0.924]",d,"[0.5261601218135545,0.5261601218135545]","[0.4738398781864455,0.4738398781864455]",16.2367,18.3001,1,s,1,0.5193,,-0.479157219,0.478510979,0.957668197,18.3028,18.3028,0,6,6,6,1,0.037001587,0.037001587,shape_difference2,1,,TRUE,,intensity,0.1,0.05,0.7,0.3,0.82,20,400,1E-11,3.5,0.01,0.5,0.1,,,,,,,,,,,,,,,,,,,,,,,,,,,,,,,,,,,,,,,,,,,,,,,,,,,,,,,,,,,,,,,,,,,,,,,,,,,,,,,,,
,,,,,699892,001,2025-03-15_14h12.47.943,Utility_discrimination_2024_2cat,2024.2.4,Win32,61.72839506,,,,,,,,4,"[0.5,0.5]","[0,1]",s,"[0.5141716077151222,0.5341894661325662]","[0.48582839228487784,0.46581053386743376]",18.3033,20.3161,0,s,0,0.4785,,-0.479157219,0.478510979,0.957668197,20.3189,20.3189,0,7,7,7,1,0.037001587,0.037001587,shape_difference3,1,,TRUE,,intensity,0.1,0.05,0.7,0.3,0.82,20,400,1E-11,3.5,0.01,0.5,0.1,,,,,,,,,,,,,,,,,,,,,,,,,,,,,,,,,,,,,,,,,,,,,,,,,,,,,,,,,,,,,,,,,,,,,,,,,,,,,,,,,
,,,,,699892,001,2025-03-15_14h12.47.943,Utility_discrimination_2024_2cat,2024.2.4,Win32,61.72839506,,,,,,,,0,"[0.5,0.5]","[1,0]",d,"[0.5,0.5370015867235566]","[0.5,0.4629984132764434]",20.3196,22.6518,0,s,0,0.8005,,0.008797352,0.664308158,0.655510806,22.6537,22.6537,0,8,8,8,1,0.037001587,0.037001587,shape_difference4,1,,TRUE,,intensity,0.1,0.05,0.7,0.3,0.82,20,400,1E-11,3.5,0.01,0.5,0.1,,,,,,,,,,,,,,,,,,,,,,,,,,,,,,,,,,,,,,,,,,,,,,,,,,,,,,,,,,,,,,,,,,,,,,,,,,,,,,,,,
,,,,,699892,001,2025-03-15_14h12.47.943,Utility_discrimination_2024_2cat,2024.2.4,Win32,61.72839506,,,,,,,,0,"[0.5,0.5]","[1,0]",d,"[0.8247185585179694,0.5]","[0.17528144148203062,0.5]",22.6545,24.8503,1,d,1,0.6597,,-0.003741292,0.604569979,0.608311271,24.8532,24.8532,0,9,9,9,1,0.324718559,0.324718559,shape_difference0,1,,TRUE,,intensity,0.1,0.05,0.7,0.3,0.82,20,400,1E-11,3.5,0.01,0.5,0.1,,,,,,,,,,,,,,,,,,,,,,,,,,,,,,,,,,,,,,,,,,,,,,,,,,,,,,,,,,,,,,,,,,,,,,,,,,,,,,,,,
,,,,,699892,001,2025-03-15_14h12.47.943,Utility_discrimination_2024_2cat,2024.2.4,Win32,61.72839506,,,,,,,,1,"[0.5,0.5]","[0.924,0.383]",d,"[0.7748173464265704,0.5]","[0.22518265357342954,0.5]",24.854,27.1337,1,d,1,0.735,,0.200901354,0.758241115,0.557339761,27.1362,27.1362,0,10,10,10,1,0.274817346,0.274817346,shape_difference0,1,,TRUE,,intensity,0.1,0.05,0.7,0.3,0.82,20,400,1E-11,3.5,0.01,0.5,0.1,,,,,,,,,,,,,,,,,,,,,,,,,,,,,,,,,,,,,,,,,,,,,,,,,,,,,,,,,,,,,,,,,,,,,,,,,,,,,,,,,
,,,,,699892,001,2025-03-15_14h12.47.943,Utility_discrimination_2024_2cat,2024.2.4,Win32,61.72839506,,,,,,,,4,"[0.5,0.5]","[0,1]",d,"[0.9254399458460747,0.6763457784188817]","[0.07456005415392525,0.32365422158111834]",27.1369,29.7165,0,d,0,1.0351,,-0.090065158,0.591798206,0.681863364,29.7199,29.72,0,11,11,11,1,0.460432842,0.460432842,shape_difference1,1,,TRUE,,intensity,0.1,0.05,0.7,0.3,0.82,20,400,1E-11,3.5,0.01,0.5,0.1,,,,,,,,,,,,,,,,,,,,,,,,,,,,,,,,,,,,,,,,,,,,,,,,,,,,,,,,,,,,,,,,,,,,,,,,,,,,,,,,,
,,,,,699892,001,2025-03-15_14h12.47.943,Utility_discrimination_2024_2cat,2024.2.4,Win32,61.72839506,,,,,,,,3,"[0.5,0.5]","[0.383,0.924]",s,"[0.5,0.7256621725789216]","[0.5,0.2743378274210784]",29.7207,32.0336,1,s,1,0.7758,,-0.090065158,0.591798206,0.681863364,32.0355,32.0355,0,12,12,12,1,0.225662173,0.225662173,shape_difference4,1,,TRUE,,intensity,0.1,0.05,0.7,0.3,0.82,20,400,1E-11,3.5,0.01,0.5,0.1,,,,,,,,,,,,,,,,,,,,,,,,,,,,,,,,,,,,,,,,,,,,,,,,,,,,,,,,,,,,,,,,,,,,,,,,,,,,,,,,,
,,,,,699892,001,2025-03-15_14h12.47.943,Utility_discrimination_2024_2cat,2024.2.4,Win32,61.72839506,,,,,,,,2,"[0.5,0.5]","[0.707,0.707]",s,"[0.586428612097727,0.7085118474629236]","[0.413571387902273,0.2914881525370764]",32.0368,34.1344,1,s,1,0.5667,,-0.510435314,0.404710629,0.915145943,34.1363,34.1364,0,13,13,13,1,0.225662173,0.225662173,shape_difference3,1,,TRUE,,intensity,0.1,0.05,0.7,0.3,0.82,20,400,1E-11,3.5,0.01,0.5,0.1,,,,,,,,,,,,,,,,,,,,,,,,,,,,,,,,,,,,,,,,,,,,,,,,,,,,,,,,,,,,,,,,,,,,,,,,,,,,,,,,,
,,,,,699892,001,2025-03-15_14h12.47.943,Utility_discrimination_2024_2cat,2024.2.4,Win32,61.72839506,,,,,,,,0,"[0.5,0.5]","[1,0]",s,"[0.47365134701532874,0.47365134701532874]","[0.5263486529846713,0.5263486529846713]",34.137,36.2845,1,s,1,0.6167,,-0.026700702,0.552121039,0.578821741,36.2866,36.2866,0,14,14,14,1,-0.03726825,-0.03726825,shape_difference2,1,,TRUE,,intensity,0.1,0.05,0.7,0.3,0.82,20,400,1E-11,3.5,0.01,0.5,0.1,,,,,,,,,,,,,,,,,,,,,,,,,,,,,,,,,,,,,,,,,,,,,,,,,,,,,,,,,,,,,,,,,,,,,,,,,,,,,,,,,
,,,,,699892,001,2025-03-15_14h12.47.943,Utility_discrimination_2024_2cat,2024.2.4,Win32,61.72839506,,,,,,,,2,"[0.5,0.5]","[0.707,0.707]",s,"[0.7361666255365733,0.5]","[0.26383337446342664,0.5]",36.2873,46.9166,1,d,1,9.0865,,-0.540713527,0.322166073,0.862879599,46.9187,46.9187,0,15,15,15,1,0.236166626,0.236166626,shape_difference0,1,,TRUE,,intensity,0.1,0.05,0.7,0.3,0.82,20,400,1E-11,3.5,0.01,0.5,0.1,,,,,,,,,,,,,,,,,,,,,,,,,,,,,,,,,,,,,,,,,,,,,,,,,,,,,,,,,,,,,,,,,,,,,,,,,,,,,,,,,
,,,,,699892,001,2025-03-15_14h12.47.943,Utility_discrimination_2024_2cat,2024.2.4,Win32,61.72839506,,,,,,,,4,"[0.5,0.5]","[0,1]",d,"[0.431701919481697,0.431701919481697]","[0.568298080518303,0.568298080518303]",46.9193,49.7993,1,s,1,1.3357,,-0.09936101,0.537490534,0.636851544,49.8012,49.8013,0,16,16,16,1,-0.09660266,-0.09660266,shape_difference2,1,,TRUE,,intensity,0.1,0.05,0.7,0.3,0.82,20,400,1E-11,3.5,0.01,0.5,0.1,,,,,,,,,,,,,,,,,,,,,,,,,,,,,,,,,,,,,,,,,,,,,,,,,,,,,,,,,,,,,,,,,,,,,,,,,,,,,,,,,
,,,,,699892,001,2025-03-15_14h12.47.943,Utility_discrimination_2024_2cat,2024.2.4,Win32,61.72839506,,,,,,,,3,"[0.5,0.5]","[0.383,0.924]",s,"[0.5,0.6717231163357056]","[0.5,0.3282768836642944]",49.802,51.9665,1,d,1,0.618,,-0.09936101,0.537490534,0.636851544,51.9692,51.9692,0,17,17,17,1,0.171723116,0.171723116,shape_difference4,1,,TRUE,,intensity,0.1,0.05,0.7,0.3,0.82,20,400,1E-11,3.5,0.01,0.5,0.1,,,,,,,,,,,,,,,,,,,,,,,,,,,,,,,,,,,,,,,,,,,,,,,,,,,,,,,,,,,,,,,,,,,,,,,,,,,,,,,,,
,,,,,699892,001,2025-03-15_14h12.47.943,Utility_discrimination_2024_2cat,2024.2.4,Win32,61.72839506,,,,,,,,1,"[0.5,0.5]","[0.924,0.383]",d,"[0.5657699535565752,0.658672159494192]","[0.4342300464434248,0.341327840505808]",51.97,54.1664,1,d,1,0.6523,,0.356937718,0.867366385,0.510428667,54.1684,54.1684,0,18,18,18,1,0.171723116,0.171723116,shape_difference3,1,,TRUE,,intensity,0.1,0.05,0.7,0.3,0.82,20,400,1E-11,3.5,0.01,0.5,0.1,,,,,,,,,,,,,,,,,,,,,,,,,,,,,,,,,,,,,,,,,,,,,,,,,,,,,,,,,,,,,,,,,,,,,,,,,,,,,,,,,
,,,,,699892,001,2025-03-15_14h12.47.943,Utility_discrimination_2024_2cat,2024.2.4,Win32,61.72839506,,,,,,,,2,"[0.5,0.5]","[0.707,0.707]",d,"[1.0546647295403173,0.7299097309674691]","[-0.054664729540317314,0.27009026903253086]",54.1689,57.2014,0,d,0,1.5005,,-0.569624043,0.240042019,0.809666061,57.2034,57.2034,0,19,19,19,1,0.600286504,0.600286504,shape_difference1,1,,TRUE,,intensity,0.1,0.05,0.7,0.3,0.82,20,400,1E-11,3.5,0.01,0.5,0.1,,,,,,,,,,,,,,,,,,,,,,,,,,,,,,,,,,,,,,,,,,,,,,,,,,,,,,,,,,,,,,,,,,,,,,,,,,,,,,,,,
,,,,,699892,001,2025-03-15_14h12.47.943,Utility_discrimination_2024_2cat,2024.2.4,Win32,61.72839506,,,,,,,,3,"[0.5,0.5]","[0.383,0.924]",s,"[0.39567503934342785,0.39567503934342785]","[0.6043249606565722,0.6043249606565722]",57.2042,59.3154,1,d,1,0.5745,,-0.120490743,0.470685176,0.591175919,59.3176,59.3176,0,20,20,20,1,-0.147560058,-0.147560058,shape_difference2,1,,TRUE,,intensity,0.1,0.05,0.7,0.3,0.82,20,400,1E-11,3.5,0.01,0.5,0.1,,,,,,,,,,,,,,,,,,,,,,,,,,,,,,,,,,,,,,,,,,,,,,,,,,,,,,,,,,,,,,,,,,,,,,,,,,,,,,,,,
,,,,,699892,001,2025-03-15_14h12.47.943,Utility_discrimination_2024_2cat,2024.2.4,Win32,61.72839506,,,,,,,,4,"[0.5,0.5]","[0,1]",d,"[0.550024248918245,0.6206851331604658]","[0.44997575108175497,0.3793148668395342]",59.3186,61.4858,1,d,1,0.6344,,-0.120490743,0.470685176,0.591175919,61.4881,61.4881,0,21,21,21,1,0.130611616,0.130611616,shape_difference3,1,,TRUE,,intensity,0.1,0.05,0.7,0.3,0.82,20,400,1E-11,3.5,0.01,0.5,0.1,,,,,,,,,,,,,,,,,,,,,,,,,,,,,,,,,,,,,,,,,,,,,,,,,,,,,,,,,,,,,,,,,,,,,,,,,,,,,,,,,
,,,,,699892,001,2025-03-15_14h12.47.943,Utility_discrimination_2024_2cat,2024.2.4,Win32,61.72839506,,,,,,,,0,"[0.5,0.5]","[1,0]",d,"[0.5,0.6306116159745301]","[0.5,0.3693883840254699]",61.4888,63.7993,0,d,0,0.7687,,-0.050981617,0.494068035,0.545049652,63.8009,63.801,0,22,22,22,1,0.130611616,0.130611616,shape_difference4,1,,TRUE,,intensity,0.1,0.05,0.7,0.3,0.82,20,400,1E-11,3.5,0.01,0.5,0.1,,,,,,,,,,,,,,,,,,,,,,,,,,,,,,,,,,,,,,,,,,,,,,,,,,,,,,,,,,,,,,,,,,,,,,,,,,,,,,,,,
,,,,,699892,001,2025-03-15_14h12.47.943,Utility_discrimination_2024_2cat,2024.2.4,Win32,61.72839506,,,,,,,,1,"[0.5,0.5]","[0.924,0.383]",s,"[0.69671503713367,0.5]","[0.30328496286633,0.5]",63.8016,66.1681,1,d,1,0.8337,,0.484808729,0.947322582,0.462513853,66.1705,66.1705,0,23,23,23,1,0.196715037,0.196715037,shape_difference0,1,,TRUE,,intensity,0.1,0.05,0.7,0.3,0.82,20,400,1E-11,3.5,0.01,0.5,0.1,,,,,,,,,,,,,,,,,,,,,,,,,,,,,,,,,,,,,,,,,,,,,,,,,,,,,,,,,,,,,,,,,,,,,,,,,,,,,,,,,
,,,,,699892,001,2025-03-15_14h12.47.943,Utility_discrimination_2024_2cat,2024.2.4,Win32,61.72839506,,,,,,,,1,"[0.5,0.5]","[0.924,0.383]",d,"[1.1454662045468054,0.7675471388976477]","[-0.14546620454680537,0.2324528611023523]",66.1713,68.2184,1,d,1,0.5176,,0.465910148,0.899509208,0.43359906,68.2208,68.2208,0,24,24,24,1,0.698556498,0.698556498,shape_difference1,1,,TRUE,,intensity,0.1,0.05,0.7,0.3,0.82,20,400,1E-11,3.5,0.01,0.5,0.1,,,,,,,,,,,,,,,,,,,,,,,,,,,,,,,,,,,,,,,,,,,,,,,,,,,,,,,,,,,,,,,,,,,,,,,,,,,,,,,,,
,,,,,699892,001,2025-03-15_14h12.47.943,Utility_discrimination_2024_2cat,2024.2.4,Win32,61.72839506,,,,,,,,0,"[0.5,0.5]","[1,0]",d,"[1.1227548981991542,0.7581332532578746]","[-0.1227548981991543,0.24186674674212544]",68.2216,70.3157,1,d,1,0.5497,,-0.067097964,0.445046575,0.512144539,70.3182,70.3183,0,25,25,25,1,0.673977163,0.673977163,shape_difference1,1,,TRUE,,intensity,0.1,0.05,0.7,0.3,0.82,20,400,1E-11,3.5,0.01,0.5,0.1,,,,,,,,,,,,,,,,,,,,,,,,,,,,,,,,,,,,,,,,,,,,,,,,,,,,,,,,,,,,,,,,,,,,,,,,,,,,,,,,,
,,,,,699892,001,2025-03-15_14h12.47.943,Utility_discrimination_2024_2cat,2024.2.4,Win32,61.72839506,,,,,,,,2,"[0.5,0.5]","[0.707,0.707]",d,"[0.6700952157765088,0.5]","[0.3299047842234913,0.5]",70.3191,72.6318,0,d,0,0.778,,-0.588261172,0.151848651,0.740109824,72.634,72.634,0,26,26,26,1,0.170095216,0.170095216,shape_difference0,1,,TRUE,,intensity,0.1,0.05,0.7,0.3,0.82,20,400,1E-11,3.5,0.01,0.5,0.1,,,,,,,,,,,,,,,,,,,,,,,,,,,,,,,,,,,,,,,,,,,,,,,,,,,,,,,,,,,,,,,,,,,,,,,,,,,,,,,,,
,,,,,699892,001,2025-03-15_14h12.47.943,Utility_discrimination_2024_2cat,2024.2.4,Win32,61.72839506,,,,,,,,3,"[0.5,0.5]","[0.383,0.924]",s,"[0.3649561854463764,0.3649561854463764]","[0.6350438145536236,0.6350438145536236]",72.6346,74.7846,1,d,1,0.6168,,-0.144584963,0.406347617,0.550932581,74.7866,74.7866,0,27,27,27,1,-0.191009639,-0.191009639,shape_difference2,1,,TRUE,,intensity,0.1,0.05,0.7,0.3,0.82,20,400,1E-11,3.5,0.01,0.5,0.1,,,,,,,,,,,,,,,,,,,,,,,,,,,,,,,,,,,,,,,,,,,,,,,,,,,,,,,,,,,,,,,,,,,,,,,,,,,,,,,,,
,,,,,699892,001,2025-03-15_14h12.47.943,Utility_discrimination_2024_2cat,2024.2.4,Win32,61.72839506,,,,,,,,4,"[0.5,0.5]","[0,1]",d,"[0.5351372241639378,0.5847697000717454]","[0.4648627758360622,0.41523029992825455]",74.7876,76.9826,1,d,1,0.6628,,0.003655665,0.572085223,0.568429559,76.9846,76.9846,0,28,28,28,1,0.0917421,0.0917421,shape_difference3,1,,TRUE,,intensity,0.1,0.05,0.7,0.3,0.82,20,400,1E-11,3.5,0.01,0.5,0.1,,,,,,,,,,,,,,,,,,,,,,,,,,,,,,,,,,,,,,,,,,,,,,,,,,,,,,,,,,,,,,,,,,,,,,,,,,,,,,,,,
,,,,,699892,001,2025-03-15_14h12.47.943,Utility_discrimination_2024_2cat,2024.2.4,Win32,61.72839506,,,,,,,,0,"[0.5,0.5]","[1,0]",d,"[0.5,0.7341681431883501]","[0.5,0.2658318568116499]",76.9861,79.2315,1,s,1,0.7139,,0.060879157,0.569881129,0.509001971,79.2337,79.2338,0,29,29,29,1,0.234168143,0.234168143,shape_difference4,1,,TRUE,,intensity,0.1,0.05,0.7,0.3,0.82,20,400,1E-11,3.5,0.01,0.5,0.1,,,,,,,,,,,,,,,,,,,,,,,,,,,,,,,,,,,,,,,,,,,,,,,,,,,,,,,,,,,,,,,,,,,,,,,,,,,,,,,,,
,,,,,699892,001,2025-03-15_14h12.47.943,Utility_discrimination_2024_2cat,2024.2.4,Win32,61.72839506,,,,,,,,1,"[0.5,0.5]","[0.924,0.383]",s,"[0.7737982524014058,0.5]","[0.22620174759859424,0.5]",79.2344,81.5991,1,s,1,0.8249,,0.45280549,0.872728901,0.419923411,81.6013,81.6013,0,30,30,30,1,0.273798252,0.273798252,shape_difference0,1,,TRUE,,intensity,0.1,0.05,0.7,0.3,0.82,20,400,1E-11,3.5,0.01,0.5,0.1,,,,,,,,,,,,,,,,,,,,,,,,,,,,,,,,,,,,,,,,,,,,,,,,,,,,,,,,,,,,,,,,,,,,,,,,,,,,,,,,,
,,,,,699892,001,2025-03-15_14h12.47.943,Utility_discrimination_2024_2cat,2024.2.4,Win32,61.72839506,,,,,,,,4,"[0.5,0.5]","[0,1]",s,"[1.1032843638379242,0.750062674621131]","[-0.10328436383792428,0.24993732537886904]",81.6023,84.0494,1,s,1,0.9021,,-0.011268795,0.514865831,0.526134626,84.0519,84.0519,0,31,31,31,1,0.652905156,0.652905156,shape_difference1,1,,TRUE,,intensity,0.1,0.05,0.7,0.3,0.82,20,400,1E-11,3.5,0.01,0.5,0.1,,,,,,,,,,,,,,,,,,,,,,,,,,,,,,,,,,,,,,,,,,,,,,,,,,,,,,,,,,,,,,,,,,,,,,,,,,,,,,,,,
,,,,,699892,001,2025-03-15_14h12.47.943,Utility_discrimination_2024_2cat,2024.2.4,Win32,61.72839506,,,,,,,,2,"[0.5,0.5]","[0.707,0.707]",s,"[0.5,0.6928362647106112]","[0.5,0.30716373528938873]",84.0528,86.3339,1,s,1,0.7511,,-0.616056949,0.077962516,0.694019466,86.3355,86.3355,0,32,32,32,1,0.192836265,0.192836265,shape_difference4,1,,TRUE,,intensity,0.1,0.05,0.7,0.3,0.82,20,400,1E-11,3.5,0.01,0.5,0.1,,,,,,,,,,,,,,,,,,,,,,,,,,,,,,,,,,,,,,,,,,,,,,,,,,,,,,,,,,,,,,,,,,,,,,,,,,,,,,,,,
,,,,,699892,001,2025-03-15_14h12.47.943,Utility_discrimination_2024_2cat,2024.2.4,Win32,61.72839506,,,,,,,,3,"[0.5,0.5]","[0.383,0.924]",s,"[0.33483614350409285,0.33483614350409285]","[0.6651638564959071,0.6651638564959071]",86.3363,88.3671,1,d,1,0.4999,,-0.160589475,0.350306654,0.510896129,88.3691,88.3691,0,33,33,33,1,-0.233612244,-0.233612244,shape_difference2,1,,TRUE,,intensity,0.1,0.05,0.7,0.3,0.82,20,400,1E-11,3.5,0.01,0.5,0.1,,,,,,,,,,,,,,,,,,,,,,,,,,,,,,,,,,,,,,,,,,,,,,,,,,,,,,,,,,,,,,,,,,,,,,,,,,,,,,,,,
,,,,,699892,001,2025-03-15_14h12.47.943,Utility_discrimination_2024_2cat,2024.2.4,Win32,61.72839506,,,,,,,,1,"[0.5,0.5]","[0.924,0.383]",d,"[0.5253378217319599,0.5611283218807595]","[0.4746621782680402,0.4388716781192405]",88.3698,90.6655,1,s,1,0.7575,,0.443457652,0.835769825,0.392312173,90.6681,90.6681,0,34,34,34,1,0.066156193,0.066156193,shape_difference3,1,,TRUE,,intensity,0.1,0.05,0.7,0.3,0.82,20,400,1E-11,3.5,0.01,0.5,0.1,,,,,,,,,,,,,,,,,,,,,,,,,,,,,,,,,,,,,,,,,,,,,,,,,,,,,,,,,,,,,,,,,,,,,,,,,,,,,,,,,
,,,,,699892,001,2025-03-15_14h12.47.943,Utility_discrimination_2024_2cat,2024.2.4,Win32,61.72839506,,,,,,,,0,"[0.5,0.5]","[1,0]",s,"[1.085710006074743,0.7427780652885569]","[-0.085710006074743,0.2572219347114431]",90.6689,92.8648,1,d,1,0.6532,,0.04845466,0.508656626,0.460201966,92.8678,92.8678,0,35,35,35,1,0.633885288,0.633885288,shape_difference1,1,,TRUE,,intensity,0.1,0.05,0.7,0.3,0.82,20,400,1E-11,3.5,0.01,0.5,0.1,,,,,,,,,,,,,,,,,,,,,,,,,,,,,,,,,,,,,,,,,,,,,,,,,,,,,,,,,,,,,,,,,,,,,,,,,,,,,,,,,
,,,,,699892,001,2025-03-15_14h12.47.943,Utility_discrimination_2024_2cat,2024.2.4,Win32,61.72839506,,,,,,,,3,"[0.5,0.5]","[0.383,0.924]",d,"[0.749210009875631,0.5]","[0.250789990124369,0.5]",92.8689,95.1984,1,d,1,0.7911,,-0.171576622,0.286796614,0.458373237,95.2003,95.2003,0,36,36,36,1,0.24921001,0.24921001,shape_difference0,1,,TRUE,,intensity,0.1,0.05,0.7,0.3,0.82,20,400,1E-11,3.5,0.01,0.5,0.1,,,,,,,,,,,,,,,,,,,,,,,,,,,,,,,,,,,,,,,,,,,,,,,,,,,,,,,,,,,,,,,,,,,,,,,,,,,,,,,,,
,,,,,699892,001,2025-03-15_14h12.47.943,Utility_discrimination_2024_2cat,2024.2.4,Win32,61.72839506,,,,,,,,2,"[0.5,0.5]","[0.707,0.707]",d,"[0.5169664228199629,0.5409320487875866]","[0.48303357718003714,0.4590679512124134]",95.201,97.7319,0,s,0,0.9945,,-0.642600146,0.003859163,0.64645931,97.7343,97.7344,0,37,37,37,1,0.044298754,0.044298754,shape_difference3,1,,TRUE,,intensity,0.1,0.05,0.7,0.3,0.82,20,400,1E-11,3.5,0.01,0.5,0.1,,,,,,,,,,,,,,,,,,,,,,,,,,,,,,,,,,,,,,,,,,,,,,,,,,,,,,,,,,,,,,,,,,,,,,,,,,,,,,,,,
,,,,,699892,001,2025-03-15_14h12.47.943,Utility_discrimination_2024_2cat,2024.2.4,Win32,61.72839506,,,,,,,,4,"[0.5,0.5]","[0,1]",d,"[0.30937390605147286,0.30937390605147286]","[0.6906260939485271,0.6906260939485271]",97.7349,100.0151,1,s,1,0.7345,,-0.030796683,0.460349377,0.49114606,100.0172,100.0172,0,38,38,38,1,-0.269626724,-0.269626724,shape_difference2,1,,TRUE,,intensity,0.1,0.05,0.7,0.3,0.82,20,400,1E-11,3.5,0.01,0.5,0.1,,,,,,,,,,,,,,,,,,,,,,,,,,,,,,,,,,,,,,,,,,,,,,,,,,,,,,,,,,,,,,,,,,,,,,,,,,,,,,,,,
,,,,,699892,001,2025-03-15_14h12.47.943,Utility_discrimination_2024_2cat,2024.2.4,Win32,61.72839506,,,,,,,,3,"[0.5,0.5]","[0.383,0.924]",s,"[0.5,0.6669164371028359]","[0.5,0.3330835628971641]",100.0181,102.2319,1,s,1,0.6753,,-0.086613843,0.373421794,0.460035637,102.234,102.234,0,39,39,39,1,0.166916437,0.166916437,shape_difference4,1,,TRUE,,intensity,0.1,0.05,0.7,0.3,0.82,20,400,1E-11,3.5,0.01,0.5,0.1,,,,,,,,,,,,,,,,,,,,,,,,,,,,,,,,,,,,,,,,,,,,,,,,,,,,,,,,,,,,,,,,,,,,,,,,,,,,,,,,,
,,,,,699892,001,2025-03-15_14h12.47.943,Utility_discrimination_2024_2cat,2024.2.4,Win32,61.72839506,,,,,,,,2,"[0.5,0.5]","[0.707,0.707]",s,"[0.5354990069980262,0.5856425129665175]","[0.46450099300197384,0.4143574870334825]",102.2355,113.0484,0,s,0,9.279,,-0.67113939,-0.036541485,0.634597904,113.0507,113.0507,0,40,40,40,1,0.092686702,0.092686702,shape_difference3,1,,TRUE,,intensity,0.1,0.05,0.7,0.3,0.82,20,400,1E-11,3.5,0.01,0.5,0.1,,,,,,,,,,,,,,,,,,,,,,,,,,,,,,,,,,,,,,,,,,,,,,,,,,,,,,,,,,,,,,,,,,,,,,,,,,,,,,,,,
,,,,,699892,001,2025-03-15_14h12.47.943,Utility_discrimination_2024_2cat,2024.2.4,Win32,61.72839506,,,,,,,,0,"[0.5,0.5]","[1,0]",d,"[0.28070879426531026,0.28070879426531026]","[0.7192912057346897,0.7192912057346897]",113.0525,115.1482,1,d,1,0.5514,,0.035692706,0.472493779,0.436801073,115.1509,115.1509,0,41,41,41,1,-0.310171437,-0.310171437,shape_difference2,1,,TRUE,,intensity,0.1,0.05,0.7,0.3,0.82,20,400,1E-11,3.5,0.01,0.5,0.1,,,,,,,,,,,,,,,,,,,,,,,,,,,,,,,,,,,,,,,,,,,,,,,,,,,,,,,,,,,,,,,,,,,,,,,,,,,,,,,,,
,,,,,699892,001,2025-03-15_14h12.47.943,Utility_discrimination_2024_2cat,2024.2.4,Win32,61.72839506,,,,,,,,1,"[0.5,0.5]","[0.924,0.383]",d,"[0.7257837766076747,0.5]","[0.27421622339232526,0.5]",115.1518,117.8148,0,d,0,1.1413,,0.43271927,0.797812626,0.365093356,117.8174,117.8174,0,42,42,42,1,0.225783777,0.225783777,shape_difference0,1,,TRUE,,intensity,0.1,0.05,0.7,0.3,0.82,20,400,1E-11,3.5,0.01,0.5,0.1,,,,,,,,,,,,,,,,,,,,,,,,,,,,,,,,,,,,,,,,,,,,,,,,,,,,,,,,,,,,,,,,,,,,,,,,,,,,,,,,,
,,,,,699892,001,2025-03-15_14h12.47.943,Utility_discrimination_2024_2cat,2024.2.4,Win32,61.72839506,,,,,,,,4,"[0.5,0.5]","[0,1]",s,"[1.0663674639258136,0.7347605397008513]","[-0.06636746392581361,0.2652394602991487]",117.8186,120.1643,1,d,1,0.8135,,-0.04414718,0.394342532,0.438489712,120.1666,120.1667,0,43,43,43,1,0.612951801,0.612951801,shape_difference1,1,,TRUE,,intensity,0.1,0.05,0.7,0.3,0.82,20,400,1E-11,3.5,0.01,0.5,0.1,,,,,,,,,,,,,,,,,,,,,,,,,,,,,,,,,,,,,,,,,,,,,,,,,,,,,,,,,,,,,,,,,,,,,,,,,,,,,,,,,
,,,,,699892,001,2025-03-15_14h12.47.943,Utility_discrimination_2024_2cat,2024.2.4,Win32,61.72839506,,,,,,,,1,"[0.5,0.5]","[0.924,0.383]",d,"[0.5,0.6449996753216951]","[0.5,0.3550003246783049]",120.1673,123.5481,1,s,1,1.8373,,0.42499085,0.780215086,0.355224236,123.551,123.551,0,44,44,44,1,0.144999675,0.144999675,shape_difference4,1,,TRUE,,intensity,0.1,0.05,0.7,0.3,0.82,20,400,1E-11,3.5,0.01,0.5,0.1,,,,,,,,,,,,,,,,,,,,,,,,,,,,,,,,,,,,,,,,,,,,,,,,,,,,,,,,,,,,,,,,,,,,,,,,,,,,,,,,,
,,,,,699892,001,2025-03-15_14h12.47.943,Utility_discrimination_2024_2cat,2024.2.4,Win32,61.72839506,,,,,,,,0,"[0.5,0.5]","[1,0]",s,"[1.048397267191296,0.727311854257864]","[-0.048397267191296,0.27268814574213596]",123.5517,125.4481,1,d,1,0.3573,,0.108843793,0.555025395,0.446181602,125.4498,125.4499,0,45,45,45,1,0.593503536,0.593503536,shape_difference1,1,,TRUE,,intensity,0.1,0.05,0.7,0.3,0.82,20,400,1E-11,3.5,0.01,0.5,0.1,,,,,,,,,,,,,,,,,,,,,,,,,,,,,,,,,,,,,,,,,,,,,,,,,,,,,,,,,,,,,,,,,,,,,,,,,,,,,,,,,
,,,,,699892,001,2025-03-15_14h12.47.943,Utility_discrimination_2024_2cat,2024.2.4,Win32,61.72839506,,,,,,,,3,"[0.5,0.5]","[0.383,0.924]",d,"[0.7814524352399858,0.5]","[0.21854756476001425,0.5]",125.4506,127.5656,1,d,1,0.5689,,-0.007302409,0.485956576,0.493258985,127.5693,127.5693,0,46,46,46,1,0.281452435,0.281452435,shape_difference0,1,,TRUE,,intensity,0.1,0.05,0.7,0.3,0.82,20,400,1E-11,3.5,0.01,0.5,0.1,,,,,,,,,,,,,,,,,,,,,,,,,,,,,,,,,,,,,,,,,,,,,,,,,,,,,,,,,,,,,,,,,,,,,,,,,,,,,,,,,
,,,,,699892,001,2025-03-15_14h12.47.943,Utility_discrimination_2024_2cat,2024.2.4,Win32,61.72839506,,,,,,,,4,"[0.5,0.5]","[0,1]",d,"[0.567158314537727,0.6620216256732631]","[0.432841685462273,0.33797837432673694]",127.5703,129.7648,1,d,1,0.6621,,-0.058252429,0.358095927,0.416348356,129.7666,129.7666,0,47,47,47,1,0.17534808,0.17534808,shape_difference3,1,,TRUE,,intensity,0.1,0.05,0.7,0.3,0.82,20,400,1E-11,3.5,0.01,0.5,0.1,,,,,,,,,,,,,,,,,,,,,,,,,,,,,,,,,,,,,,,,,,,,,,,,,,,,,,,,,,,,,,,,,,,,,,,,,,,,,,,,,
,,,,,699892,001,2025-03-15_14h12.47.943,Utility_discrimination_2024_2cat,2024.2.4,Win32,61.72839506,,,,,,,,2,"[0.5,0.5]","[0.707,0.707]",d,"[0.5,0.6237020712346848]","[0.5,0.37629792876531526]",129.7674,131.816,1,d,1,0.5172,,-0.689998991,-0.095065821,0.594933171,131.8182,131.8182,0,48,48,48,1,0.123702071,0.123702071,shape_difference4,1,,TRUE,,intensity,0.1,0.05,0.7,0.3,0.82,20,400,1E-11,3.5,0.01,0.5,0.1,,,,,,,,,,,,,,,,,,,,,,,,,,,,,,,,,,,,,,,,,,,,,,,,,,,,,,,,,,,,,,,,,,,,,,,,,,,,,,,,,
,,,,,699892,001,2025-03-15_14h12.47.943,Utility_discrimination_2024_2cat,2024.2.4,Win32,61.72839506,,,,,,,,0,"[0.5,0.5]","[1,0]",d,"[0.2564761934309592,0.2564761934309592]","[0.7435238065690408,0.7435238065690408]",131.8187,133.7841,1,d,1,0.4348,,0.105485407,0.496544562,0.391059156,133.7862,133.7862,0,49,49,49,1,-0.344446685,-0.344446685,shape_difference2,1,,TRUE,,intensity,0.1,0.05,0.7,0.3,0.82,20,400,1E-11,3.5,0.01,0.5,0.1,,,,,,,,,,,,,,,,,,,,,,,,,,,,,,,,,,,,,,,,,,,,,,,,,,,,,,,,,,,,,,,,,,,,,,,,,,,,,,,,,
,,,,,699892,001,2025-03-15_14h12.47.943,Utility_discrimination_2024_2cat,2024.2.4,Win32,61.72839506,,,,,,,,2,"[0.5,0.5]","[0.707,0.707]",d,"[0.7625303776026271,0.5]","[0.23746962239737285,0.5]",133.7867,135.9812,1,s,1,0.6564,,-0.706498112,-0.130139369,0.576358744,135.9831,135.9831,0,50,50,50,1,0.262530378,0.262530378,shape_difference0,1,,TRUE,,intensity,0.1,0.05,0.7,0.3,0.82,20,400,1E-11,3.5,0.01,0.5,0.1,,,,,,,,,,,,,,,,,,,,,,,,,,,,,,,,,,,,,,,,,,,,,,,,,,,,,,,,,,,,,,,,,,,,,,,,,,,,,,,,,
,,,,,699892,001,2025-03-15_14h12.47.943,Utility_discrimination_2024_2cat,2024.2.4,Win32,61.72839506,,,,,,,,4,"[0.5,0.5]","[0,1]",s,"[0.23481731888988383,0.23481731888988383]","[0.7651826811101161,0.7651826811101161]",135.9836,138.1645,1,d,1,0.6354,,-0.068194537,0.306984031,0.375178568,138.1671,138.1672,0,51,51,51,1,-0.375081586,-0.375081586,shape_difference2,1,,TRUE,,intensity,0.1,0.05,0.7,0.3,0.82,20,400,1E-11,3.5,0.01,0.5,0.1,,,,,,,,,,,,,,,,,,,,,,,,,,,,,,,,,,,,,,,,,,,,,,,,,,,,,,,,,,,,,,,,,,,,,,,,,,,,,,,,,
,,,,,699892,001,2025-03-15_14h12.47.943,Utility_discrimination_2024_2cat,2024.2.4,Win32,61.72839506,,,,,,,,1,"[0.5,0.5]","[0.924,0.383]",d,"[0.5,0.6002930371428107]","[0.5,0.3997069628571893]",138.1681,140.3312,1,s,1,0.6348,,0.419296995,0.757508094,0.338211099,140.3334,140.3334,0,52,52,52,1,0.100293037,0.100293037,shape_difference4,1,,TRUE,,intensity,0.1,0.05,0.7,0.3,0.82,20,400,1E-11,3.5,0.01,0.5,0.1,,,,,,,,,,,,,,,,,,,,,,,,,,,,,,,,,,,,,,,,,,,,,,,,,,,,,,,,,,,,,,,,,,,,,,,,,,,,,,,,,
,,,,,699892,001,2025-03-15_14h12.47.943,Utility_discrimination_2024_2cat,2024.2.4,Win32,61.72839506,,,,,,,,3,"[0.5,0.5]","[0.383,0.924]",s,"[1.036478042965018,0.7223713100168851]","[-0.03647804296501811,0.2776286899831148]",140.3343,142.9315,1,d,1,1.0564,,-0.025342847,0.425449953,0.4507928,142.9342,142.9342,0,53,53,53,1,0.580603943,0.580603943,shape_difference1,1,,TRUE,,intensity,0.1,0.05,0.7,0.3,0.82,20,400,1E-11,3.5,0.01,0.5,0.1,,,,,,,,,,,,,,,,,,,,,,,,,,,,,,,,,,,,,,,,,,,,,,,,,,,,,,,,,,,,,,,,,,,,,,,,,,,,,,,,,
,,,,,699892,001,2025-03-15_14h12.47.943,Utility_discrimination_2024_2cat,2024.2.4,Win32,61.72839506,,,,,,,,0,"[0.5,0.5]","[1,0]",d,"[0.5581994380918789,0.6404080438561256]","[0.4418005619081211,0.3595919561438744]",142.9351,145.2642,1,d,1,0.7905,,0.102947951,0.45869821,0.355750259,145.2662,145.2662,0,54,54,54,1,0.151956757,0.151956757,shape_difference3,1,,TRUE,,intensity,0.1,0.05,0.7,0.3,0.82,20,400,1E-11,3.5,0.01,0.5,0.1,,,,,,,,,,,,,,,,,,,,,,,,,,,,,,,,,,,,,,,,,,,,,,,,,,,,,,,,,,,,,,,,,,,,,,,,,,,,,,,,,
,,,,,699892,001,2025-03-15_14h12.47.943,Utility_discrimination_2024_2cat,2024.2.4,Win32,61.72839506,,,,,,,,2,"[0.5,0.5]","[0.707,0.707]",d,"[0.7461716337332263,0.5]","[0.25382836626677374,0.5]",145.2668,147.4311,1,d,1,0.6249,,-0.740475113,-0.170023005,0.570452108,147.4339,147.4339,0,55,55,55,1,0.246171634,0.246171634,shape_difference0,1,,TRUE,,intensity,0.1,0.05,0.7,0.3,0.82,20,400,1E-11,3.5,0.01,0.5,0.1,,,,,,,,,,,,,,,,,,,,,,,,,,,,,,,,,,,,,,,,,,,,,,,,,,,,,,,,,,,,,,,,,,,,,,,,,,,,,,,,,
,,,,,699892,001,2025-03-15_14h12.47.943,Utility_discrimination_2024_2cat,2024.2.4,Win32,61.72839506,,,,,,,,3,"[0.5,0.5]","[0.383,0.924]",d,"[0.20977221626856202,0.20977221626856202]","[0.790227783731438,0.790227783731438]",147.4348,149.747,1,d,1,0.7672,,-0.037927976,0.369592096,0.407520071,149.7494,149.7494,0,56,56,56,1,-0.410506059,-0.410506059,shape_difference2,1,,TRUE,,intensity,0.1,0.05,0.7,0.3,0.82,20,400,1E-11,3.5,0.01,0.5,0.1,,,,,,,,,,,,,,,,,,,,,,,,,,,,,,,,,,,,,,,,,,,,,,,,,,,,,,,,,,,,,,,,,,,,,,,,,,,,,,,,,
,,,,,699892,001,2025-03-15_14h12.47.943,Utility_discrimination_2024_2cat,2024.2.4,Win32,61.72839506,,,,,,,,1,"[0.5,0.5]","[0.924,0.383]",d,"[0.5503677255875357,0.6215137818352034]","[0.4496322744124644,0.3784862181647966]",149.7503,151.9309,1,s,1,0.6424,,0.415001173,0.727085863,0.312084689,151.9333,151.9334,0,57,57,57,1,0.131508422,0.131508422,shape_difference3,1,,TRUE,,intensity,0.1,0.05,0.7,0.3,0.82,20,400,1E-11,3.5,0.01,0.5,0.1,,,,,,,,,,,,,,,,,,,,,,,,,,,,,,,,,,,,,,,,,,,,,,,,,,,,,,,,,,,,,,,,,,,,,,,,,,,,,,,,,
,,,,,699892,001,2025-03-15_14h12.47.943,Utility_discrimination_2024_2cat,2024.2.4,Win32,61.72839506,,,,,,,,4,"[0.5,0.5]","[0,1]",s,"[1.0263645163407296,0.7181792313403673]","[-0.02636451634072956,0.2818207686596327]",151.9338,154.0142,1,s,1,0.5359,,-0.075380169,0.279253359,0.354633528,154.0162,154.0162,0,58,58,58,1,0.569658567,0.569658567,shape_difference1,1,,TRUE,,intensity,0.1,0.05,0.7,0.3,0.82,20,400,1E-11,3.5,0.01,0.5,0.1,,,,,,,,,,,,,,,,,,,,,,,,,,,,,,,,,,,,,,,,,,,,,,,,,,,,,,,,,,,,,,,,,,,,,,,,,,,,,,,,,
,,,,,699892,001,2025-03-15_14h12.47.943,Utility_discrimination_2024_2cat,2024.2.4,Win32,61.72839506,,,,,,,,4,"[0.5,0.5]","[0,1]",s,"[0.5,0.5865154137164339]","[0.5,0.4134845862835661]",154.0179,155.9978,1,s,1,0.4462,,-0.08070592,0.249725923,0.330431843,156,156,0,59,59,59,1,0.086515414,0.086515414,shape_difference4,1,,TRUE,,intensity,0.1,0.05,0.7,0.3,0.82,20,400,1E-11,3.5,0.01,0.5,0.1,,,,,,,,,,,,,,,,,,,,,,,,,,,,,,,,,,,,,,,,,,,,,,,,,,,,,,,,,,,,,,,,,,,,,,,,,,,,,,,,,
,,,,,699892,001,2025-03-15_14h12.47.943,Utility_discrimination_2024_2cat,2024.2.4,Win32,61.72839506,,,,,,,,1,"[0.5,0.5]","[0.924,0.383]",s,"[0.5,0.5752698090383476]","[0.5,0.42473019096165243]",156.001,158.0635,0,s,0,0.5179,,0.411681932,0.696948466,0.285266534,158.0658,158.0658,0,60,60,60,1,0.075269809,0.075269809,shape_difference4,1,,TRUE,,intensity,0.1,0.05,0.7,0.3,0.82,20,400,1E-11,3.5,0.01,0.5,0.1,,,,,,,,,,,,,,,,,,,,,,,,,,,,,,,,,,,,,,,,,,,,,,,,,,,,,,,,,,,,,,,,,,,,,,,,,,,,,,,,,
,,,,,699892,001,2025-03-15_14h12.47.943,Utility_discrimination_2024_2cat,2024.2.4,Win32,61.72839506,,,,,,,,2,"[0.5,0.5]","[0.707,0.707]",d,"[1.0174608951935058,0.7144886611029359]","[-0.01746089519350591,0.28551133889706415]",158.0665,160.4807,1,s,1,0.8679,,-0.763304889,-0.210959736,0.552345154,160.4824,160.4824,0,61,61,61,1,0.560022614,0.560022614,shape_difference1,1,,TRUE,,intensity,0.1,0.05,0.7,0.3,0.82,20,400,1E-11,3.5,0.01,0.5,0.1,,,,,,,,,,,,,,,,,,,,,,,,,,,,,,,,,,,,,,,,,,,,,,,,,,,,,,,,,,,,,,,,,,,,,,,,,,,,,,,,,
,,,,,699892,001,2025-03-15_14h12.47.943,Utility_discrimination_2024_2cat,2024.2.4,Win32,61.72839506,,,,,,,,0,"[0.5,0.5]","[1,0]",s,"[0.18891985560226848,0.18891985560226848]","[0.8110801443977316,0.8110801443977316]",160.4831,163.4158,1,s,1,1.4004,,0.098401164,0.419207186,0.320806022,163.4178,163.4179,0,62,62,62,1,-0.440000204,-0.440000204,shape_difference2,1,,TRUE,,intensity,0.1,0.05,0.7,0.3,0.82,20,400,1E-11,3.5,0.01,0.5,0.1,,,,,,,,,,,,,,,,,,,,,,,,,,,,,,,,,,,,,,,,,,,,,,,,,,,,,,,,,,,,,,,,,,,,,,,,,,,,,,,,,
,,,,,699892,001,2025-03-15_14h12.47.943,Utility_discrimination_2024_2cat,2024.2.4,Win32,61.72839506,,,,,,,,3,"[0.5,0.5]","[0.383,0.924]",s,"[0.7303245388404165,0.5]","[0.2696754611595835,0.5]",163.4183,165.5806,1,s,1,0.618,,-0.051946914,0.323885598,0.375832511,165.582,165.582,0,63,63,63,1,0.230324539,0.230324539,shape_difference0,1,,TRUE,,intensity,0.1,0.05,0.7,0.3,0.82,20,400,1E-11,3.5,0.01,0.5,0.1,,,,,,,,,,,,,,,,,,,,,,,,,,,,,,,,,,,,,,,,,,,,,,,,,,,,,,,,,,,,,,,,,,,,,,,,,,,,,,,,,
,,,,,699892,001,2025-03-15_14h12.47.943,Utility_discrimination_2024_2cat,2024.2.4,Win32,61.72839506,,,,,,,,0,"[0.5,0.5]","[1,0]",s,"[0.5422397387190205,0.601904748241188]","[0.4577602612809794,0.398095251758812]",165.5826,167.9806,1,d,1,0.8517,,0.076476337,0.389787053,0.313310715,167.9828,167.9828,0,64,64,64,1,0.110286524,0.110286524,shape_difference3,1,,TRUE,,intensity,0.1,0.05,0.7,0.3,0.82,20,400,1E-11,3.5,0.01,0.5,0.1,,,,,,,,,,,,,,,,,,,,,,,,,,,,,,,,,,,,,,,,,,,,,,,,,,,,,,,,,,,,,,,,,,,,,,,,,,,,,,,,,
,,,,,699892,001,2025-03-15_14h12.47.943,Utility_discrimination_2024_2cat,2024.2.4,Win32,61.72839506,,,,,,,,1,"[0.5,0.5]","[0.924,0.383]",d,"[0.7131561548235639,0.5]","[0.2868438451764362,0.5]",167.9837,170.3132,1,d,1,0.7955,,0.409055963,0.686831053,0.277775089,170.3148,170.3148,0,65,65,65,1,0.213156155,0.213156155,shape_difference0,1,,TRUE,,intensity,0.1,0.05,0.7,0.3,0.82,20,400,1E-11,3.5,0.01,0.5,0.1,,,,,,,,,,,,,,,,,,,,,,,,,,,,,,,,,,,,,,,,,,,,,,,,,,,,,,,,,,,,,,,,,,,,,,,,,,,,,,,,,
,,,,,699892,001,2025-03-15_14h12.47.943,Utility_discrimination_2024_2cat,2024.2.4,Win32,61.72839506,,,,,,,,3,"[0.5,0.5]","[0.383,0.924]",d,"[1.0093073310892855,0.7111089911333294]","[-0.009307331089285498,0.28889100886667063]",170.3153,188.5638,1,s,1,16.7013,,-0.06196498,0.286976102,0.348941083,188.566,188.5661,0,66,66,66,1,0.55119841,0.55119841,shape_difference1,1,,TRUE,,intensity,0.1,0.05,0.7,0.3,0.82,20,400,1E-11,3.5,0.01,0.5,0.1,,,,,,,,,,,,,,,,,,,,,,,,,,,,,,,,,,,,,,,,,,,,,,,,,,,,,,,,,,,,,,,,,,,,,,,,,,,,,,,,,
,,,,,699892,001,2025-03-15_14h12.47.943,Utility_discrimination_2024_2cat,2024.2.4,Win32,61.72839506,,,,,,,,2,"[0.5,0.5]","[0.707,0.707]",s,"[0.5355866963414776,0.5858540663695176]","[0.46441330365852246,0.41414593363048235]",188.5673,191.0128,1,s,1,0.914,,-0.779061589,-0.241211791,0.537849798,191.0151,191.0151,0,67,67,67,1,0.092915656,0.092915656,shape_difference3,1,,TRUE,,intensity,0.1,0.05,0.7,0.3,0.82,20,400,1E-11,3.5,0.01,0.5,0.1,,,,,,,,,,,,,,,,,,,,,,,,,,,,,,,,,,,,,,,,,,,,,,,,,,,,,,,,,,,,,,,,,,,,,,,,,,,,,,,,,
,,,,,699892,001,2025-03-15_14h12.47.943,Utility_discrimination_2024_2cat,2024.2.4,Win32,61.72839506,,,,,,,,4,"[0.5,0.5]","[0,1]",s,"[0.1702239688969745,0.1702239688969745]","[0.8297760311030256,0.8297760311030256]",191.0159,193.4649,1,s,1,0.9166,,-0.007940465,0.32225898,0.330199446,193.4669,193.4669,0,68,68,68,1,-0.466444174,-0.466444174,shape_difference2,1,,TRUE,,intensity,0.1,0.05,0.7,0.3,0.82,20,400,1E-11,3.5,0.01,0.5,0.1,,,,,,,,,,,,,,,,,,,,,,,,,,,,,,,,,,,,,,,,,,,,,,,,,,,,,,,,,,,,,,,,,,,,,,,,,,,,,,,,,
,,,,,699892,001,2025-03-15_14h12.47.943,Utility_discrimination_2024_2cat,2024.2.4,Win32,61.72839506,,,,,,,,2,"[0.5,0.5]","[0.707,0.707]",s,"[0.5,0.6258192786463113]","[0.5,0.37418072135368874]",193.4678,195.7459,1,d,1,0.7468,,-0.797573468,-0.278899126,0.518674342,195.7474,195.7474,0,69,69,69,1,0.125819279,0.125819279,shape_difference4,1,,TRUE,,intensity,0.1,0.05,0.7,0.3,0.82,20,400,1E-11,3.5,0.01,0.5,0.1,,,,,,,,,,,,,,,,,,,,,,,,,,,,,,,,,,,,,,,,,,,,,,,,,,,,,,,,,,,,,,,,,,,,,,,,,,,,,,,,,
,,,,,699892,001,2025-03-15_14h12.47.943,Utility_discrimination_2024_2cat,2024.2.4,Win32,61.72839506,,,,,,,,0,"[0.5,0.5]","[1,0]",d,"[0.1477096881968495,0.1477096881968495]","[0.8522903118031505,0.8522903118031505]",195.748,198.3965,1,d,1,1.1032,,0.060589173,0.370116351,0.309527178,198.3986,198.3986,0,70,70,70,1,-0.498288984,-0.498288984,shape_difference2,1,,TRUE,,intensity,0.1,0.05,0.7,0.3,0.82,20,400,1E-11,3.5,0.01,0.5,0.1,,,,,,,,,,,,,,,,,,,,,,,,,,,,,,,,,,,,,,,,,,,,,,,,,,,,,,,,,,,,,,,,,,,,,,,,,,,,,,,,,
,,,,,699892,001,2025-03-15_14h12.47.943,Utility_discrimination_2024_2cat,2024.2.4,Win32,61.72839506,,,,,,,,1,"[0.5,0.5]","[0.924,0.383]",d,"[0.6965963976450127,0.5]","[0.3034036023549873,0.5]",198.3991,201.0965,1,d,1,1.1503,,0.40692981,0.675443595,0.268513785,201.0987,201.0987,0,71,71,71,1,0.196596398,0.196596398,shape_difference0,1,,TRUE,,intensity,0.1,0.05,0.7,0.3,0.82,20,400,1E-11,3.5,0.01,0.5,0.1,,,,,,,,,,,,,,,,,,,,,,,,,,,,,,,,,,,,,,,,,,,,,,,,,,,,,,,,,,,,,,,,,,,,,,,,,,,,,,,,,
,,,,,699892,001,2025-03-15_14h12.47.943,Utility_discrimination_2024_2cat,2024.2.4,Win32,61.72839506,,,,,,,,4,"[0.5,0.5]","[0,1]",d,"[1.0015364423608846,0.7078879409353017]","[-0.0015364423608846822,0.2921120590646983]",201.1,203.3464,1,s,1,0.7036,,-0.028106661,0.289294048,0.317400709,203.3495,203.3495,0,72,72,72,1,0.542788358,0.542788358,shape_difference1,1,,TRUE,,intensity,0.1,0.05,0.7,0.3,0.82,20,400,1E-11,3.5,0.01,0.5,0.1,,,,,,,,,,,,,,,,,,,,,,,,,,,,,,,,,,,,,,,,,,,,,,,,,,,,,,,,,,,,,,,,,,,,,,,,,,,,,,,,,
,,,,,699892,001,2025-03-15_14h12.47.943,Utility_discrimination_2024_2cat,2024.2.4,Win32,61.72839506,,,,,,,,3,"[0.5,0.5]","[0.383,0.924]",s,"[0.5,0.6076156681504002]","[0.5,0.39238433184959975]",203.3507,205.9299,1,s,1,1.0458,,-0.069287979,0.260501269,0.329789248,205.9319,205.9319,0,73,73,73,1,0.107615668,0.107615668,shape_difference4,1,,TRUE,,intensity,0.1,0.05,0.7,0.3,0.82,20,400,1E-11,3.5,0.01,0.5,0.1,,,,,,,,,,,,,,,,,,,,,,,,,,,,,,,,,,,,,,,,,,,,,,,,,,,,,,,,,,,,,,,,,,,,,,,,,,,,,,,,,
,,,,,699892,001,2025-03-15_14h12.47.943,Utility_discrimination_2024_2cat,2024.2.4,Win32,61.72839506,,,,,,,,3,"[0.5,0.5]","[0.383,0.924]",s,"[0.531408744422306,0.5757746210083831]","[0.46859125557769404,0.4242253789916169]",205.9329,208.2625,1,s,1,0.7901,,-0.074759184,0.226088034,0.300847218,208.2648,208.2648,0,74,74,74,1,0.082007166,0.082007166,shape_difference3,1,,TRUE,,intensity,0.1,0.05,0.7,0.3,0.82,20,400,1E-11,3.5,0.01,0.5,0.1,,,,,,,,,,,,,,,,,,,,,,,,,,,,,,,,,,,,,,,,,,,,,,,,,,,,,,,,,,,,,,,,,,,,,,,,,,,,,,,,,
,,,,,699892,001,2025-03-15_14h12.47.943,Utility_discrimination_2024_2cat,2024.2.4,Win32,61.72839506,,,,,,,,4,"[0.5,0.5]","[0,1]",s,"[0.5279479236407285,0.5674252779217575]","[0.4720520763592715,0.4325747220782425]",208.2656,210.2652,1,s,1,0.4674,,-0.042762583,0.267646452,0.310409035,210.2677,210.2677,0,75,75,75,1,0.07297108,0.07297108,shape_difference3,1,,TRUE,,intensity,0.1,0.05,0.7,0.3,0.82,20,400,1E-11,3.5,0.01,0.5,0.1,,,,,,,,,,,,,,,,,,,,,,,,,,,,,,,,,,,,,,,,,,,,,,,,,,,,,,,,,,,,,,,,,,,,,,,,,,,,,,,,,
,,,,,699892,001,2025-03-15_14h12.47.943,Utility_discrimination_2024_2cat,2024.2.4,Win32,61.72839506,,,,,,,,2,"[0.5,0.5]","[0.707,0.707]",s,"[0.5,0.5932990636739504]","[0.5,0.4067009363260496]",210.2686,212.363,1,s,1,0.5567,,-0.825856923,-0.311772,0.514084923,212.3647,212.3647,0,76,76,76,1,0.093299064,0.093299064,shape_difference4,1,,TRUE,,intensity,0.1,0.05,0.7,0.3,0.82,20,400,1E-11,3.5,0.01,0.5,0.1,,,,,,,,,,,,,,,,,,,,,,,,,,,,,,,,,,,,,,,,,,,,,,,,,,,,,,,,,,,,,,,,,,,,,,,,,,,,,,,,,
,,,,,699892,001,2025-03-15_14h12.47.943,Utility_discrimination_2024_2cat,2024.2.4,Win32,61.72839506,,,,,,,,0,"[0.5,0.5]","[1,0]",s,"[0.1278135515881086,0.1278135515881086]","[0.8721864484118914,0.8721864484118914]",212.3654,214.7295,1,d,1,0.8183,,0.048851355,0.345226618,0.296375263,214.7308,214.7308,0,77,77,77,1,-0.52643062,-0.52643062,shape_difference2,1,,TRUE,,intensity,0.1,0.05,0.7,0.3,0.82,20,400,1E-11,3.5,0.01,0.5,0.1,,,,,,,,,,,,,,,,,,,,,,,,,,,,,,,,,,,,,,,,,,,,,,,,,,,,,,,,,,,,,,,,,,,,,,,,,,,,,,,,,
,,,,,699892,001,2025-03-15_14h12.47.943,Utility_discrimination_2024_2cat,2024.2.4,Win32,61.72839506,,,,,,,,1,"[0.5,0.5]","[0.924,0.383]",d,"[0.6868187476416736,0.5]","[0.3131812523583264,0.5]",214.7318,217.2461,1,s,1,0.9701,,0.404236478,0.663867631,0.259631152,217.2488,217.2488,0,78,78,78,1,0.186818748,0.186818748,shape_difference0,1,,TRUE,,intensity,0.1,0.05,0.7,0.3,0.82,20,400,1E-11,3.5,0.01,0.5,0.1,,,,,,,,,,,,,,,,,,,,,,,,,,,,,,,,,,,,,,,,,,,,,,,,,,,,,,,,,,,,,,,,,,,,,,,,,,,,,,,,,
,,,,,699892,001,2025-03-15_14h12.47.943,Utility_discrimination_2024_2cat,2024.2.4,Win32,61.72839506,,,,,,,,4,"[0.5,0.5]","[0,1]",s,"[0.9928153726316125,0.7042730386557441]","[0.007184627368387486,0.29572696134425586]",217.2497,219.2955,1,d,1,0.5134,,-0.053628252,0.240211642,0.293839894,219.2973,219.2973,0,79,79,79,1,0.53334997,0.53334997,shape_difference1,1,,TRUE,,intensity,0.1,0.05,0.7,0.3,0.82,20,400,1E-11,3.5,0.01,0.5,0.1,,,,,,,,,,,,,,,,,,,,,,,,,,,,,,,,,,,,,,,,,,,,,,,,,,,,,,,,,,,,,,,,,,,,,,,,,,,,,,,,,
,,,,,699892,001,2025-03-15_14h12.47.943,Utility_discrimination_2024_2cat,2024.2.4,Win32,61.72839506,,,,,,,,2,"[0.5,0.5]","[0.707,0.707]",d,"[0.5,0.5841010920962006]","[0.5,0.4158989079037994]",219.2979,221.429,1,s,1,0.5907,,-0.848016174,-0.337659314,0.51035686,221.4306,221.4307,0,80,80,80,1,0.084101092,0.084101092,shape_difference4,1,,TRUE,,intensity,0.1,0.05,0.7,0.3,0.82,20,400,1E-11,3.5,0.01,0.5,0.1,,,,,,,,,,,,,,,,,,,,,,,,,,,,,,,,,,,,,,,,,,,,,,,,,,,,,,,,,,,,,,,,,,,,,,,,,,,,,,,,,
,,,,,699892,001,2025-03-15_14h12.47.943,Utility_discrimination_2024_2cat,2024.2.4,Win32,61.72839506,,,,,,,,0,"[0.5,0.5]","[1,0]",s,"[0.11045563180269419,0.11045563180269419]","[0.8895443681973059,0.8895443681973059]",221.4316,223.4963,1,d,1,0.5348,,0.040016142,0.312697936,0.272681794,223.4982,223.4982,0,81,81,81,1,-0.550982133,-0.550982133,shape_difference2,1,,TRUE,,intensity,0.1,0.05,0.7,0.3,0.82,20,400,1E-11,3.5,0.01,0.5,0.1,,,,,,,,,,,,,,,,,,,,,,,,,,,,,,,,,,,,,,,,,,,,,,,,,,,,,,,,,,,,,,,,,,,,,,,,,,,,,,,,,
,,,,,699892,001,2025-03-15_14h12.47.943,Utility_discrimination_2024_2cat,2024.2.4,Win32,61.72839506,,,,,,,,3,"[0.5,0.5]","[0.383,0.924]",d,"[0.6788027357422394,0.5]","[0.32119726425776063,0.5]",223.4986,225.8959,1,d,1,0.8611,,-0.078932387,0.196314051,0.275246437,225.8974,225.8974,0,82,82,82,1,0.178802736,0.178802736,shape_difference0,1,,TRUE,,intensity,0.1,0.05,0.7,0.3,0.82,20,400,1E-11,3.5,0.01,0.5,0.1,,,,,,,,,,,,,,,,,,,,,,,,,,,,,,,,,,,,,,,,,,,,,,,,,,,,,,,,,,,,,,,,,,,,,,,,,,,,,,,,,
,,,,,699892,001,2025-03-15_14h12.47.943,Utility_discrimination_2024_2cat,2024.2.4,Win32,61.72839506,,,,,,,,1,"[0.5,0.5]","[0.924,0.383]",d,"[0.5249816841415371,0.5602691283205751]","[0.4750183158584629,0.4397308716794249]",225.898,228.5632,1,d,1,1.1433,,0.401718578,0.649240093,0.247521515,228.5653,228.5653,0,83,83,83,1,0.065226329,0.065226329,shape_difference3,1,,TRUE,,intensity,0.1,0.05,0.7,0.3,0.82,20,400,1E-11,3.5,0.01,0.5,0.1,,,,,,,,,,,,,,,,,,,,,,,,,,,,,,,,,,,,,,,,,,,,,,,,,,,,,,,,,,,,,,,,,,,,,,,,,,,,,,,,,
,,,,,699892,001,2025-03-15_14h12.47.943,Utility_discrimination_2024_2cat,2024.2.4,Win32,61.72839506,,,,,,,,2,"[0.5,0.5]","[0.707,0.707]",d,"[0.9830111003565088,0.7002091465763451]","[0.01698889964349115,0.29979085342365486]",228.5659,230.512,1,s,1,0.4142,,-0.873461133,-0.368757096,0.504704037,230.5136,230.5136,0,84,84,84,1,0.522739286,0.522739286,shape_difference1,1,,TRUE,,intensity,0.1,0.05,0.7,0.3,0.82,20,400,1E-11,3.5,0.01,0.5,0.1,,,,,,,,,,,,,,,,,,,,,,,,,,,,,,,,,,,,,,,,,,,,,,,,,,,,,,,,,,,,,,,,,,,,,,,,,,,,,,,,,
,,,,,699892,001,2025-03-15_14h12.47.943,Utility_discrimination_2024_2cat,2024.2.4,Win32,61.72839506,,,,,,,,3,"[0.5,0.5]","[0.383,0.924]",s,"[0.09111151127587636,0.09111151127587636]","[0.9088884887241236,0.9088884887241236]",230.5141,232.7459,1,s,1,0.6844,,-0.082177646,0.186694993,0.268872639,232.7485,232.7485,0,85,85,85,1,-0.578342983,-0.578342983,shape_difference2,1,,TRUE,,intensity,0.1,0.05,0.7,0.3,0.82,20,400,1E-11,3.5,0.01,0.5,0.1,,,,,,,,,,,,,,,,,,,,,,,,,,,,,,,,,,,,,,,,,,,,,,,,,,,,,,,,,,,,,,,,,,,,,,,,,,,,,,,,,
,,,,,699892,001,2025-03-15_14h12.47.943,Utility_discrimination_2024_2cat,2024.2.4,Win32,61.72839506,,,,,,,,1,"[0.5,0.5]","[0.924,0.383]",s,"[0.5223430480042762,0.5539033325220659]","[0.4776569519957238,0.4460966674779341]",232.7494,235.013,0,s,0,0.7248,,0.392671197,0.630338999,0.237667802,235.0144,235.0144,0,86,86,86,1,0.05833694,0.05833694,shape_difference3,1,,TRUE,,intensity,0.1,0.05,0.7,0.3,0.82,20,400,1E-11,3.5,0.01,0.5,0.1,,,,,,,,,,,,,,,,,,,,,,,,,,,,,,,,,,,,,,,,,,,,,,,,,,,,,,,,,,,,,,,,,,,,,,,,,,,,,,,,,
,,,,,699892,001,2025-03-15_14h12.47.943,Utility_discrimination_2024_2cat,2024.2.4,Win32,61.72839506,,,,,,,,4,"[0.5,0.5]","[0,1]",d,"[0.9717260420025398,0.6955314654620917]","[0.028273957997460186,0.3044685345379083]",235.015,237.13,1,s,1,0.5695,,-0.061838023,0.204283058,0.266121081,237.1318,237.1318,0,87,87,87,1,0.510526019,0.510526019,shape_difference1,1,,TRUE,,intensity,0.1,0.05,0.7,0.3,0.82,20,400,1E-11,3.5,0.01,0.5,0.1,,,,,,,,,,,,,,,,,,,,,,,,,,,,,,,,,,,,,,,,,,,,,,,,,,,,,,,,,,,,,,,,,,,,,,,,,,,,,,,,,
,,,,,699892,001,2025-03-15_14h12.47.943,Utility_discrimination_2024_2cat,2024.2.4,Win32,61.72839506,,,,,,,,0,"[0.5,0.5]","[1,0]",s,"[0.5,0.5765316852391024]","[0.5,0.42346831476089764]",237.1324,239.2625,1,d,1,0.6013,,0.033247634,0.295148443,0.261900809,239.2644,239.2644,0,88,88,88,1,0.076531685,0.076531685,shape_difference4,1,,TRUE,,intensity,0.1,0.05,0.7,0.3,0.82,20,400,1E-11,3.5,0.01,0.5,0.1,,,,,,,,,,,,,,,,,,,,,,,,,,,,,,,,,,,,,,,,,,,,,,,,,,,,,,,,,,,,,,,,,,,,,,,,,,,,,,,,,
,,,,,699892,001,2025-03-15_14h12.47.943,Utility_discrimination_2024_2cat,2024.2.4,Win32,61.72839506,,,,,,,,0,"[0.5,0.5]","[1,0]",d,"[0.6720646069157254,0.5]","[0.32793539308427455,0.5]",239.2653,241.5122,1,s,1,0.7126,,0.027976552,0.287675634,0.259699082,241.5141,241.5145,0,89,89,89,1,0.172064607,0.172064607,shape_difference0,1,,TRUE,,intensity,0.1,0.05,0.7,0.3,0.82,20,400,1E-11,3.5,0.01,0.5,0.1,,,,,,,,,,,,,,,,,,,,,,,,,,,,,,,,,,,,,,,,,,,,,,,,,,,,,,,,,,,,,,,,,,,,,,,,,,,,,,,,,
,,,,,699892,001,2025-03-15_14h12.47.943,Utility_discrimination_2024_2cat,2024.2.4,Win32,61.72839506,,,,,,,,1,"[0.5,0.5]","[0.924,0.383]",s,"[0.6662384820150351,0.5]","[0.33376151798496495,0.5]",241.5155,243.4128,1,s,1,0.3523,,0.37214211,0.605445583,0.233303472,243.415,243.4151,0,90,90,90,1,0.166238482,0.166238482,shape_difference0,1,,TRUE,,intensity,0.1,0.05,0.7,0.3,0.82,20,400,1E-11,3.5,0.01,0.5,0.1,,,,,,,,,,,,,,,,,,,,,,,,,,,,,,,,,,,,,,,,,,,,,,,,,,,,,,,,,,,,,,,,,,,,,,,,,,,,,,,,,
,,,,,699892,001,2025-03-15_14h12.47.943,Utility_discrimination_2024_2cat,2024.2.4,Win32,61.72839506,,,,,,,,4,"[0.5,0.5]","[0,1]",s,"[0.9597374832904582,0.6905621819266726]","[0.04026251670954184,0.3094378180733274]",243.4157,245.9629,1,s,1,0.9996,,-0.068152192,0.193316303,0.261468495,245.9646,245.9646,0,91,91,91,1,0.497551389,0.497551389,shape_difference1,1,,TRUE,,intensity,0.1,0.05,0.7,0.3,0.82,20,400,1E-11,3.5,0.01,0.5,0.1,,,,,,,,,,,,,,,,,,,,,,,,,,,,,,,,,,,,,,,,,,,,,,,,,,,,,,,,,,,,,,,,,,,,,,,,,,,,,,,,,
,,,,,699892,001,2025-03-15_14h12.47.943,Utility_discrimination_2024_2cat,2024.2.4,Win32,61.72839506,,,,,,,,3,"[0.5,0.5]","[0.383,0.924]",s,"[0.5,0.5701349988149047]","[0.5,0.42986500118509524]",245.9653,248.6978,1,d,1,1.2009,,-0.03598207,0.247394049,0.283376119,248.6996,248.6996,0,92,92,92,1,0.070134999,0.070134999,shape_difference4,1,,TRUE,,intensity,0.1,0.05,0.7,0.3,0.82,20,400,1E-11,3.5,0.01,0.5,0.1,,,,,,,,,,,,,,,,,,,,,,,,,,,,,,,,,,,,,,,,,,,,,,,,,,,,,,,,,,,,,,,,,,,,,,,,,,,,,,,,,
,,,,,699892,001,2025-03-15_14h12.47.943,Utility_discrimination_2024_2cat,2024.2.4,Win32,61.72839506,,,,,,,,2,"[0.5,0.5]","[0.707,0.707]",d,"[0.5335317411156999,0.5808964198195997]","[0.4664682588843001,0.4191035801804003]",248.7002,250.9619,1,d,1,0.7474,,-0.890526426,-0.404878559,0.485647867,250.9634,250.9634,0,93,93,93,1,0.087550238,0.087550238,shape_difference3,1,,TRUE,,intensity,0.1,0.05,0.7,0.3,0.82,20,400,1E-11,3.5,0.01,0.5,0.1,,,,,,,,,,,,,,,,,,,,,,,,,,,,,,,,,,,,,,,,,,,,,,,,,,,,,,,,,,,,,,,,,,,,,,,,,,,,,,,,,
,,,,,699892,001,2025-03-15_14h12.47.943,Utility_discrimination_2024_2cat,2024.2.4,Win32,61.72839506,,,,,,,,3,"[0.5,0.5]","[0.383,0.924]",d,"[0.06990751093575981,0.06990751093575981]","[0.9300924890642401,0.9300924890642401]",250.964,252.9458,1,s,1,0.4338,,-0.047575327,0.214285614,0.26186094,252.9473,252.9473,0,94,94,94,1,-0.608334497,-0.608334497,shape_difference2,1,,TRUE,,intensity,0.1,0.05,0.7,0.3,0.82,20,400,1E-11,3.5,0.01,0.5,0.1,,,,,,,,,,,,,,,,,,,,,,,,,,,,,,,,,,,,,,,,,,,,,,,,,,,,,,,,,,,,,,,,,,,,,,,,,,,,,,,,,
,,,,,699892,001,2025-03-15_14h12.47.943,Utility_discrimination_2024_2cat,2024.2.4,Win32,61.72839506,,,,,,,,2,"[0.5,0.5]","[0.707,0.707]",s,"[0.5306571100487459,0.5739612785510214]","[0.4693428899512541,0.42603872144897853]",252.9484,254.995,1,s,1,0.5128,,-0.906423025,-0.425211867,0.481211158,254.9969,254.9969,0,95,95,95,1,0.080044674,0.080044674,shape_difference3,1,,TRUE,,intensity,0.1,0.05,0.7,0.3,0.82,20,400,1E-11,3.5,0.01,0.5,0.1,,,,,,,,,,,,,,,,,,,,,,,,,,,,,,,,,,,,,,,,,,,,,,,,,,,,,,,,,,,,,,,,,,,,,,,,,,,,,,,,,
,,,,,699892,001,2025-03-15_14h12.47.943,Utility_discrimination_2024_2cat,2024.2.4,Win32,61.72839506,,,,,,,,4,"[0.5,0.5]","[0,1]",s,"[0.05229385802006992,0.05229385802006992]","[0.9477061419799301,0.9477061419799301]",254.9974,257.1784,1,d,1,0.6453,,-0.073088773,0.185485161,0.258573934,257.1804,257.1804,0,96,96,96,1,-0.633247726,-0.633247726,shape_difference2,1,,TRUE,,intensity,0.1,0.05,0.7,0.3,0.82,20,400,1E-11,3.5,0.01,0.5,0.1,,,,,,,,,,,,,,,,,,,,,,,,,,,,,,,,,,,,,,,,,,,,,,,,,,,,,,,,,,,,,,,,,,,,,,,,,,,,,,,,,
,,,,,699892,001,2025-03-15_14h12.47.943,Utility_discrimination_2024_2cat,2024.2.4,Win32,61.72839506,,,,,,,,0,"[0.5,0.5]","[1,0]",d,"[0.5,0.5645662389825545]","[0.5,0.4354337610174454]",257.1815,259.3616,1,s,1,0.6343,,0.023809016,0.27952208,0.255713064,259.3638,259.3639,0,97,97,97,1,0.064566239,0.064566239,shape_difference4,1,,TRUE,,intensity,0.1,0.05,0.7,0.3,0.82,20,400,1E-11,3.5,0.01,0.5,0.1,,,,,,,,,,,,,,,,,,,,,,,,,,,,,,,,,,,,,,,,,,,,,,,,,,,,,,,,,,,,,,,,,,,,,,,,,,,,,,,,,
,,,,,699892,001,2025-03-15_14h12.47.943,Utility_discrimination_2024_2cat,2024.2.4,Win32,61.72839506,,,,,,,,1,"[0.5,0.5]","[0.924,0.383]",s,"[0.6610410353621787,0.5]","[0.3389589646378212,0.5]",259.3649,261.5615,1,s,1,0.6496,,0.356481702,0.596741901,0.240260199,261.563,261.563,0,98,98,98,1,0.161041035,0.161041035,shape_difference0,1,,TRUE,,intensity,0.1,0.05,0.7,0.3,0.82,20,400,1E-11,3.5,0.01,0.5,0.1,,,,,,,,,,,,,,,,,,,,,,,,,,,,,,,,,,,,,,,,,,,,,,,,,,,,,,,,,,,,,,,,,,,,,,,,,,,,,,,,,
,,,,,699892,001,2025-03-15_14h12.47.943,Utility_discrimination_2024_2cat,2024.2.4,Win32,61.72839506,,,,,,,,2,"[0.5,0.5]","[0.707,0.707]",s,"[0.9516439465133673,0.6872073934140905]","[0.0483560534866328,0.31279260658590946]",261.5636,270.8956,1,d,1,7.7871,,-0.929904407,-0.45344894,0.476455467,270.8991,270.8991,0,99,99,99,1,0.48879215,0.48879215,shape_difference1,1,,TRUE,,intensity,0.1,0.05,0.7,0.3,0.82,20,400,1E-11,3.5,0.01,0.5,0.1,,,,,,,,,,,,,,,,,,,,,,,,,,,,,,,,,,,,,,,,,,,,,,,,,,,,,,,,,,,,,,,,,,,,,,,,,,,,,,,,,
,,,,,699892,001,2025-03-15_14h12.47.943,Utility_discrimination_2024_2cat,2024.2.4,Win32,61.72839506,,,,,,,,3,"[0.5,0.5]","[0.383,0.924]",d,"[0.03652714673033103,0.03652714673033103]","[0.963472853269669,0.963472853269669]",270.9002,272.8974,1,d,1,0.4672,,-0.056455474,0.195462005,0.251917479,272.8988,272.8989,0,100,100,100,1,-0.65554859,-0.65554859,shape_difference2,1,,TRUE,,intensity,0.1,0.05,0.7,0.3,0.82,20,400,1E-11,3.5,0.01,0.5,0.1,,,,,,,,,,,,,,,,,,,,,,,,,,,,,,,,,,,,,,,,,,,,,,,,,,,,,,,,,,,,,,,,,,,,,,,,,,,,,,,,,
,,,,,699892,001,2025-03-15_14h12.47.943,Utility_discrimination_2024_2cat,2024.2.4,Win32,61.72839506,,,,,,,,1,"[0.5,0.5]","[0.924,0.383]",d,"[0.528275622384066,0.568215861835188]","[0.471724377615934,0.431784138164812]",272.8995,275.7284,1,d,1,1.2926,,0.344356324,0.592597231,0.248240907,275.731,275.731,0,101,101,101,1,0.07382669,0.07382669,shape_difference3,1,,TRUE,,intensity,0.1,0.05,0.7,0.3,0.82,20,400,1E-11,3.5,0.01,0.5,0.1,,,,,,,,,,,,,,,,,,,,,,,,,,,,,,,,,,,,,,,,,,,,,,,,,,,,,,,,,,,,,,,,,,,,,,,,,,,,,,,,,
,,,,,699892,001,2025-03-15_14h12.47.943,Utility_discrimination_2024_2cat,2024.2.4,Win32,61.72839506,,,,,,,,4,"[0.5,0.5]","[0,1]",d,"[0.9448319891818253,0.68438382235567]","[0.055168010818174684,0.31561617764433]",275.7319,277.7784,1,d,1,0.526,,-0.077006593,0.176873107,0.2538797,277.7801,277.7802,0,102,102,102,1,0.481419902,0.481419902,shape_difference1,1,,TRUE,,intensity,0.1,0.05,0.7,0.3,0.82,20,400,1E-11,3.5,0.01,0.5,0.1,,,,,,,,,,,,,,,,,,,,,,,,,,,,,,,,,,,,,,,,,,,,,,,,,,,,,,,,,,,,,,,,,,,,,,,,,,,,,,,,,
,,,,,699892,001,2025-03-15_14h12.47.943,Utility_discrimination_2024_2cat,2024.2.4,Win32,61.72839506,,,,,,,,0,"[0.5,0.5]","[1,0]",d,"[0.5,0.5595579441887224]","[0.5,0.44044205581127754]",277.7809,279.9616,1,d,1,0.6516,,0.020468156,0.270270943,0.249802787,279.964,279.9641,0,103,103,103,1,0.059557944,0.059557944,shape_difference4,1,,TRUE,,intensity,0.1,0.05,0.7,0.3,0.82,20,400,1E-11,3.5,0.01,0.5,0.1,,,,,,,,,,,,,,,,,,,,,,,,,,,,,,,,,,,,,,,,,,,,,,,,,,,,,,,,,,,,,,,,,,,,,,,,,,,,,,,,,
,,,,,699892,001,2025-03-15_14h12.47.943,Utility_discrimination_2024_2cat,2024.2.4,Win32,61.72839506,,,,,,,,0,"[0.5,0.5]","[1,0]",d,"[0.6562466310509208,0.5]","[0.34375336894907915,0.5]",279.9646,282.3449,0,s,0,0.8581,,0.069232642,0.293840134,0.224607492,282.3467,282.3467,0,104,104,104,1,0.156246631,0.156246631,shape_difference0,1,,TRUE,,intensity,0.1,0.05,0.7,0.3,0.82,20,400,1E-11,3.5,0.01,0.5,0.1,,,,,,,,,,,,,,,,,,,,,,,,,,,,,,,,,,,,,,,,,,,,,,,,,,,,,,,,,,,,,,,,,,,,,,,,,,,,,,,,,
,,,,,699892,001,2025-03-15_14h12.47.943,Utility_discrimination_2024_2cat,2024.2.4,Win32,61.72839506,,,,,,,,2,"[0.5,0.5]","[0.707,0.707]",d,"[0.6772331618174192,0.5]","[0.3227668381825808,0.5]",282.3473,284.4446,1,d,1,0.559,,-0.957860854,-0.488033908,0.469826946,284.4469,284.4469,0,105,105,105,1,0.177233162,0.177233162,shape_difference0,1,,TRUE,,intensity,0.1,0.05,0.7,0.3,0.82,20,400,1E-11,3.5,0.01,0.5,0.1,,,,,,,,,,,,,,,,,,,,,,,,,,,,,,,,,,,,,,,,,,,,,,,,,,,,,,,,,,,,,,,,,,,,,,,,,,,,,,,,,
,,,,,699892,001,2025-03-15_14h12.47.943,Utility_discrimination_2024_2cat,2024.2.4,Win32,61.72839506,,,,,,,,3,"[0.5,0.5]","[0.383,0.924]",d,"[0.01850932784473802,0.01850932784473802]","[0.981490672155262,0.981490672155262]",284.4478,286.8637,1,s,1,0.8839,,-0.06336887,0.188171674,0.251540543,286.8649,286.865,0,106,106,106,1,-0.681033483,-0.681033483,shape_difference2,1,,TRUE,,intensity,0.1,0.05,0.7,0.3,0.82,20,400,1E-11,3.5,0.01,0.5,0.1,,,,,,,,,,,,,,,,,,,,,,,,,,,,,,,,,,,,,,,,,,,,,,,,,,,,,,,,,,,,,,,,,,,,,,,,,,,,,,,,,
,,,,,699892,001,2025-03-15_14h12.47.943,Utility_discrimination_2024_2cat,2024.2.4,Win32,61.72839506,,,,,,,,1,"[0.5,0.5]","[0.924,0.383]",s,"[0.5262521132147887,0.5633340799228844]","[0.47374788678521135,0.4366659200771156]",286.8655,289.3955,1,d,1,1.0117,,0.334825792,0.588134717,0.253308925,289.3974,289.3975,0,107,107,107,1,0.068543377,0.068543377,shape_difference3,1,,TRUE,,intensity,0.1,0.05,0.7,0.3,0.82,20,400,1E-11,3.5,0.01,0.5,0.1,,,,,,,,,,,,,,,,,,,,,,,,,,,,,,,,,,,,,,,,,,,,,,,,,,,,,,,,,,,,,,,,,,,,,,,,,,,,,,,,,
,,,,,699892,001,2025-03-15_14h12.47.943,Utility_discrimination_2024_2cat,2024.2.4,Win32,61.72839506,,,,,,,,4,"[0.5,0.5]","[0,1]",d,"[0.9389958648367034,0.6819647361823131]","[0.06100413516329667,0.3180352638176868]",289.3984,291.6447,1,s,1,0.7081,,-0.08015835,0.167030028,0.247188378,291.6466,291.6466,0,108,108,108,1,0.47510375,0.47510375,shape_difference1,1,,TRUE,,intensity,0.1,0.05,0.7,0.3,0.82,20,400,1E-11,3.5,0.01,0.5,0.1,,,,,,,,,,,,,,,,,,,,,,,,,,,,,,,,,,,,,,,,,,,,,,,,,,,,,,,,,,,,,,,,,,,,,,,,,,,,,,,,,
,,,,,699892,001,2025-03-15_14h12.47.943,Utility_discrimination_2024_2cat,2024.2.4,Win32,61.72839506,,,,,,,,4,"[0.5,0.5]","[0,1]",s,"[0.5,0.5548963314871245]","[0.5,0.4451036685128756]",291.6476,294.2116,0,s,0,1.0383,,-0.034006826,0.192267597,0.226274423,294.2141,294.2141,0,109,109,109,1,0.054896331,0.054896331,shape_difference4,1,,TRUE,,intensity,0.1,0.05,0.7,0.3,0.82,20,400,1E-11,3.5,0.01,0.5,0.1,,,,,,,,,,,,,,,,,,,,,,,,,,,,,,,,,,,,,,,,,,,,,,,,,,,,,,,,,,,,,,,,,,,,,,,,,,,,,,,,,
,,,,,699892,001,2025-03-15_14h12.47.943,Utility_discrimination_2024_2cat,2024.2.4,Win32,61.72839506,,,,,,,,0,"[0.5,0.5]","[1,0]",d,"[0.5,0.5754923008029266]","[0.5,0.42450769919707343]",294.2146,296.7114,1,s,1,0.9521,,0.057790136,0.287848519,0.230058383,296.7133,296.7133,0,110,110,110,1,0.075492301,0.075492301,shape_difference4,1,,TRUE,,intensity,0.1,0.05,0.7,0.3,0.82,20,400,1E-11,3.5,0.01,0.5,0.1,,,,,,,,,,,,,,,,,,,,,,,,,,,,,,,,,,,,,,,,,,,,,,,,,,,,,,,,,,,,,,,,,,,,,,,,,,,,,,,,,
,,,,,699892,001,2025-03-15_14h12.47.943,Utility_discrimination_2024_2cat,2024.2.4,Win32,61.72839506,,,,,,,,1,"[0.5,0.5]","[0.924,0.383]",s,"[0.6723872584941291,0.5]","[0.327612741505871,0.5]",296.7141,298.8615,1,d,1,0.6072,,0.327220542,0.583161124,0.255940582,298.8637,298.8637,0,111,111,111,1,0.172387258,0.172387258,shape_difference0,1,,TRUE,,intensity,0.1,0.05,0.7,0.3,0.82,20,400,1E-11,3.5,0.01,0.5,0.1,,,,,,,,,,,,,,,,,,,,,,,,,,,,,,,,,,,,,,,,,,,,,,,,,,,,,,,,,,,,,,,,,,,,,,,,,,,,,,,,,
,,,,,699892,001,2025-03-15_14h12.47.943,Utility_discrimination_2024_2cat,2024.2.4,Win32,61.72839506,,,,,,,,3,"[0.5,0.5]","[0.383,0.924]",d,"[0.9338898089223748,0.6798482649537549]","[0.06611019107762517,0.32015173504624506]",298.8645,301.8771,1,s,1,1.4806,,-0.068831152,0.180322823,0.249153975,301.8786,301.8786,0,112,112,112,1,0.469577715,0.469577715,shape_difference1,1,,TRUE,,intensity,0.1,0.05,0.7,0.3,0.82,20,400,1E-11,3.5,0.01,0.5,0.1,,,,,,,,,,,,,,,,,,,,,,,,,,,,,,,,,,,,,,,,,,,,,,,,,,,,,,,,,,,,,,,,,,,,,,,,,,,,,,,,,
,,,,,699892,001,2025-03-15_14h12.47.943,Utility_discrimination_2024_2cat,2024.2.4,Win32,61.72839506,,,,,,,,2,"[0.5,0.5]","[0.707,0.707]",s,"[0.5244832977618906,0.5590667549138041]","[0.4755167022381094,0.44093324508619597]",301.8792,303.9605,1,s,1,0.5473,,-0.976778747,-0.511527665,0.465251083,303.9625,303.9625,0,113,113,113,1,0.063925059,0.063925059,shape_difference3,1,,TRUE,,intensity,0.1,0.05,0.7,0.3,0.82,20,400,1E-11,3.5,0.01,0.5,0.1,,,,,,,,,,,,,,,,,,,,,,,,,,,,,,,,,,,,,,,,,,,,,,,,,,,,,,,,,,,,,,,,,,,,,,,,,,,,,,,,,
,,,,,699892,001,2025-03-15_14h12.47.943,Utility_discrimination_2024_2cat,2024.2.4,Win32,61.72839506,,,,,,,,1,"[0.5,0.5]","[0.924,0.383]",s,"[-0.0009478112936097682,-0.0009478112936097682]","[1.0009478112936097,1.0009478112936097]",303.9631,306.1273,1,d,1,0.6179,,0.321058808,0.577443199,0.256384391,306.1298,306.1299,0,114,114,114,1,-0.708554189,-0.708554189,shape_difference2,1,,TRUE,,intensity,0.1,0.05,0.7,0.3,0.82,20,400,1E-11,3.5,0.01,0.5,0.1,,,,,,,,,,,,,,,,,,,,,,,,,,,,,,,,,,,,,,,,,,,,,,,,,,,,,,,,,,,,,,,,,,,,,,,,,,,,,,,,,
,,,,,699892,001,2025-03-15_14h12.47.943,Utility_discrimination_2024_2cat,2024.2.4,Win32,61.72839506,,,,,,,,3,"[0.5,0.5]","[0.383,0.924]",d,"[0.929312357443197,0.6779509014077321]","[0.07068764255680304,0.32204909859226794]",306.1306,308.3111,1,d,1,0.6357,,-0.073204492,0.171539674,0.244744166,308.313,308.3131,0,115,115,115,1,0.464623763,0.464623763,shape_difference1,1,,TRUE,,intensity,0.1,0.05,0.7,0.3,0.82,20,400,1E-11,3.5,0.01,0.5,0.1,,,,,,,,,,,,,,,,,,,,,,,,,,,,,,,,,,,,,,,,,,,,,,,,,,,,,,,,,,,,,,,,,,,,,,,,,,,,,,,,,
,,,,,699892,001,2025-03-15_14h12.47.943,Utility_discrimination_2024_2cat,2024.2.4,Win32,61.72839506,,,,,,,,4,"[0.5,0.5]","[0,1]",d,"[0.5228882460675418,0.5552186406433645]","[0.47711175393245825,0.44478135935663554]",308.3136,310.8942,1,s,1,1.0614,,-0.044729001,0.186013703,0.230742704,310.8962,310.8962,0,116,116,116,1,0.059760434,0.059760434,shape_difference3,1,,TRUE,,intensity,0.1,0.05,0.7,0.3,0.82,20,400,1E-11,3.5,0.01,0.5,0.1,,,,,,,,,,,,,,,,,,,,,,,,,,,,,,,,,,,,,,,,,,,,,,,,,,,,,,,,,,,,,,,,,,,,,,,,,,,,,,,,,
,,,,,699892,001,2025-03-15_14h12.47.943,Utility_discrimination_2024_2cat,2024.2.4,Win32,61.72839506,,,,,,,,2,"[0.5,0.5]","[0.707,0.707]",s,"[0.5,0.5709209127869073]","[0.5,0.4290790872130927]",310.8969,313.1609,1,s,1,0.723,,-0.98988212,-0.531869289,0.458012831,313.1623,313.1623,0,117,117,117,1,0.070920913,0.070920913,shape_difference4,1,,TRUE,,intensity,0.1,0.05,0.7,0.3,0.82,20,400,1E-11,3.5,0.01,0.5,0.1,,,,,,,,,,,,,,,,,,,,,,,,,,,,,,,,,,,,,,,,,,,,,,,,,,,,,,,,,,,,,,,,,,,,,,,,,,,,,,,,,
,,,,,699892,001,2025-03-15_14h12.47.943,Utility_discrimination_2024_2cat,2024.2.4,Win32,61.72839506,,,,,,,,0,"[0.5,0.5]","[1,0]",s,"[-0.016801151603657694,-0.016801151603657694]","[1.0168011516036577,1.0168011516036577]",313.1629,315.0436,1,d,1,0.347,,0.0487329,0.281389517,0.232656618,315.0452,315.0453,0,118,118,118,1,-0.730977584,-0.730977584,shape_difference2,1,,TRUE,,intensity,0.1,0.05,0.7,0.3,0.82,20,400,1E-11,3.5,0.01,0.5,0.1,,,,,,,,,,,,,,,,,,,,,,,,,,,,,,,,,,,,,,,,,,,,,,,,,,,,,,,,,,,,,,,,,,,,,,,,,,,,,,,,,
,,,,,699892,001,2025-03-15_14h12.47.943,Utility_discrimination_2024_2cat,2024.2.4,Win32,61.72839506,,,,,,,,1,"[0.5,0.5]","[0.924,0.383]",d,"[0.6682480029837677,0.5]","[0.33175199701623226,0.5]",315.0463,318.0109,0,d,0,1.4203,,0.315990303,0.570691232,0.254700929,318.0129,318.0129,0,119,119,119,1,0.168248003,0.168248003,shape_difference0,1,,TRUE,,intensity,0.1,0.05,0.7,0.3,0.82,20,400,1E-11,3.5,0.01,0.5,0.1,,,,,,,,,,,,,,,,,,,,,,,,,,,,,,,,,,,,,,,,,,,,,,,,,,,,,,,,,,,,,,,,,,,,,,,,,,,,,,,,,
,,,,,699892,001,2025-03-15_14h12.47.943,Utility_discrimination_2024_2cat,2024.2.4,Win32,61.72839506,,,,,,,,3,"[0.5,0.5]","[0.383,0.924]",s,"[0.925094483054463,0.6762025833440036]","[0.07490551694553704,0.3237974166559964]",318.0135,320.1104,1,s,1,0.5642,,-0.07674747,0.161376227,0.238123697,320.1117,320.1117,0,120,120,120,1,0.460058964,0.460058964,shape_difference1,1,,TRUE,,intensity,0.1,0.05,0.7,0.3,0.82,20,400,1E-11,3.5,0.01,0.5,0.1,,,,,,,,,,,,,,,,,,,,,,,,,,,,,,,,,,,,,,,,,,,,,,,,,,,,,,,,,,,,,,,,,,,,,,,,,,,,,,,,,
,,,,,699892,001,2025-03-15_14h12.47.943,Utility_discrimination_2024_2cat,2024.2.4,Win32,61.72839506,,,,,,,,0,"[0.5,0.5]","[1,0]",s,"[0.5214016493103277,0.5516321774484146]","[0.47859835068967227,0.44836782255158536]",320.1122,322.0776,0,s,0,0.4159,,0.103336848,0.29702451,0.193687662,322.0798,322.0798,0,121,121,121,1,0.05587898,0.05587898,shape_difference3,1,,TRUE,,intensity,0.1,0.05,0.7,0.3,0.82,20,400,1E-11,3.5,0.01,0.5,0.1,,,,,,,,,,,,,,,,,,,,,,,,,,,,,,,,,,,,,,,,,,,,,,,,,,,,,,,,,,,,,,,,,,,,,,,,,,,,,,,,,
,,,,,699892,001,2025-03-15_14h12.47.943,Utility_discrimination_2024_2cat,2024.2.4,Win32,61.72839506,,,,,,,,4,"[0.5,0.5]","[0,1]",d,"[0.6848448555247699,0.5]","[0.31515514447523,0.5]",322.0804,324.4273,1,s,1,0.8008,,-0.053248486,0.179222981,0.232471467,324.4288,324.4288,0,122,122,122,1,0.184844856,0.184844856,shape_difference0,1,,TRUE,,intensity,0.1,0.05,0.7,0.3,0.82,20,400,1E-11,3.5,0.01,0.5,0.1,,,,,,,,,,,,,,,,,,,,,,,,,,,,,,,,,,,,,,,,,,,,,,,,,,,,,,,,,,,,,,,,,,,,,,,,,,,,,,,,,
,,,,,699892,001,2025-03-15_14h12.47.943,Utility_discrimination_2024_2cat,2024.2.4,Win32,61.72839506,,,,,,,,2,"[0.5,0.5]","[0.707,0.707]",s,"[0.5,0.566994761505687]","[0.5,0.433005238494313]",324.4295,327.0936,0,s,0,1.1406,,-0.999178956,-0.560253648,0.438925308,327.0952,327.0952,0,123,123,123,1,0.066994762,0.066994762,shape_difference4,1,,TRUE,,intensity,0.1,0.05,0.7,0.3,0.82,20,400,1E-11,3.5,0.01,0.5,0.1,,,,,,,,,,,,,,,,,,,,,,,,,,,,,,,,,,,,,,,,,,,,,,,,,,,,,,,,,,,,,,,,,,,,,,,,,,,,,,,,,
,,,,,699892,001,2025-03-15_14h12.47.943,Utility_discrimination_2024_2cat,2024.2.4,Win32,61.72839506,,,,,,,,2,"[0.5,0.5]","[0.707,0.707]",d,"[-0.03097385250973783,-0.03097385250973783]","[1.0309738525097378,1.0309738525097378]",327.0962,329.5933,0,d,0,0.9645,,-0.88618781,-0.519353048,0.366834762,329.5959,329.5959,0,124,124,124,1,-0.751023837,-0.751023837,shape_difference2,1,,TRUE,,intensity,0.1,0.05,0.7,0.3,0.82,20,400,1E-11,3.5,0.01,0.5,0.1,,,,,,,,,,,,,,,,,,,,,,,,,,,,,,,,,,,,,,,,,,,,,,,,,,,,,,,,,,,,,,,,,,,,,,,,,,,,,,,,,
,,,,,699892,001,2025-03-15_14h12.47.943,Utility_discrimination_2024_2cat,2024.2.4,Win32,61.72839506,,,,,,,,4,"[0.5,0.5]","[0,1]",s,"[0.0032992434728290054,0.0032992434728290054]","[0.996700756527171,0.996700756527171]",329.5966,331.8276,1,d,1,0.6928,,0.003041604,0.195771559,0.192729955,331.829,331.829,0,125,125,125,1,-0.702547039,-0.702547039,shape_difference2,1,,TRUE,,intensity,0.1,0.05,0.7,0.3,0.82,20,400,1E-11,3.5,0.01,0.5,0.1,,,,,,,,,,,,,,,,,,,,,,,,,,,,,,,,,,,,,,,,,,,,,,,,,,,,,,,,,,,,,,,,,,,,,,,,,,,,,,,,,
,,,,,699892,001,2025-03-15_14h12.47.943,Utility_discrimination_2024_2cat,2024.2.4,Win32,61.72839506,,,,,,,,1,"[0.5,0.5]","[0.924,0.383]",d,"[0.5,0.5828430326825014]","[0.5,0.4171569673174986]",331.8295,334.6771,1,d,1,1.312,,0.311757593,0.562537293,0.250779699,334.6794,334.6794,0,126,126,126,1,0.082843033,0.082843033,shape_difference4,1,,TRUE,,intensity,0.1,0.05,0.7,0.3,0.82,20,400,1E-11,3.5,0.01,0.5,0.1,,,,,,,,,,,,,,,,,,,,,,,,,,,,,,,,,,,,,,,,,,,,,,,,,,,,,,,,,,,,,,,,,,,,,,,,,,,,,,,,,
,,,,,699892,001,2025-03-15_14h12.47.943,Utility_discrimination_2024_2cat,2024.2.4,Win32,61.72839506,,,,,,,,0,"[0.5,0.5]","[1,0]",d,"[0.9210904599215528,0.6745429070886956]","[0.07890954007844714,0.3254570929113044]",334.68,336.9267,1,s,1,0.7125,,0.102292804,0.292134826,0.189842023,336.9283,336.9283,0,127,127,127,1,0.455725606,0.455725606,shape_difference1,1,,TRUE,,intensity,0.1,0.05,0.7,0.3,0.82,20,400,1E-11,3.5,0.01,0.5,0.1,,,,,,,,,,,,,,,,,,,,,,,,,,,,,,,,,,,,,,,,,,,,,,,,,,,,,,,,,,,,,,,,,,,,,,,,,,,,,,,,,
,,,,,699892,001,2025-03-15_14h12.47.943,Utility_discrimination_2024_2cat,2024.2.4,Win32,61.72839506,,,,,,,,3,"[0.5,0.5]","[0.383,0.924]",s,"[0.6795311241266745,0.5]","[0.3204688758733255,0.5]",336.9288,339.1602,1,d,1,0.6844,,-0.024596511,0.187630508,0.212227019,339.1621,339.1621,0,128,128,128,1,0.179531124,0.179531124,shape_difference0,1,,TRUE,,intensity,0.1,0.05,0.7,0.3,0.82,20,400,1E-11,3.5,0.01,0.5,0.1,,,,,,,,,,,,,,,,,,,,,,,,,,,,,,,,,,,,,,,,,,,,,,,,,,,,,,,,,,,,,,,,,,,,,,,,,,,,,,,,,
,,,,,699892,001,2025-03-15_14h12.47.943,Utility_discrimination_2024_2cat,2024.2.4,Win32,61.72839506,,,,,,,,2,"[0.5,0.5]","[0.707,0.707]",d,"[0.5279706436688153,0.5674800907310322]","[0.4720293563311847,0.4325199092689677]",339.1633,341.343,1,d,1,0.6629,,-0.891564111,-0.538783851,0.35278026,341.3452,341.3453,0,129,129,129,1,0.073030401,0.073030401,shape_difference3,1,,TRUE,,intensity,0.1,0.05,0.7,0.3,0.82,20,400,1E-11,3.5,0.01,0.5,0.1,,,,,,,,,,,,,,,,,,,,,,,,,,,,,,,,,,,,,,,,,,,,,,,,,,,,,,,,,,,,,,,,,,,,,,,,,,,,,,,,,
,,,,,699892,001,2025-03-15_14h12.47.943,Utility_discrimination_2024_2cat,2024.2.4,Win32,61.72839506,,,,,,,,4,"[0.5,0.5]","[0,1]",d,"[-0.008052980136900922,-0.008052980136900922]","[1.008052980136901,1.008052980136901]",341.3459,343.3106,1,s,1,0.4273,,0.002008034,0.19070827,0.188700237,343.3124,343.3124,0,130,130,130,1,-0.718603932,-0.718603932,shape_difference2,1,,TRUE,,intensity,0.1,0.05,0.7,0.3,0.82,20,400,1E-11,3.5,0.01,0.5,0.1,,,,,,,,,,,,,,,,,,,,,,,,,,,,,,,,,,,,,,,,,,,,,,,,,,,,,,,,,,,,,,,,,,,,,,,,,,,,,,,,,
,,,,,699892,001,2025-03-15_14h12.47.943,Utility_discrimination_2024_2cat,2024.2.4,Win32,61.72839506,,,,,,,,1,"[0.5,0.5]","[0.924,0.383]",s,"[0.5,0.5778807528555191]","[0.5,0.4221192471444809]",343.313,345.6937,1,s,1,0.8506,,0.308169398,0.552506049,0.24433665,345.6964,345.6964,0,131,131,131,1,0.077880753,0.077880753,shape_difference4,1,,TRUE,,intensity,0.1,0.05,0.7,0.3,0.82,20,400,1E-11,3.5,0.01,0.5,0.1,,,,,,,,,,,,,,,,,,,,,,,,,,,,,,,,,,,,,,,,,,,,,,,,,,,,,,,,,,,,,,,,,,,,,,,,,,,,,,,,,
,,,,,699892,001,2025-03-15_14h12.47.943,Utility_discrimination_2024_2cat,2024.2.4,Win32,61.72839506,,,,,,,,0,"[0.5,0.5]","[1,0]",s,"[0.9171706742129703,0.6729181474281034]","[0.08282932578702973,0.32708185257189654]",345.6973,347.627,1,d,1,0.3914,,0.101236709,0.287028847,0.185792138,347.6294,347.6294,0,132,132,132,1,0.451483414,0.451483414,shape_difference1,1,,TRUE,,intensity,0.1,0.05,0.7,0.3,0.82,20,400,1E-11,3.5,0.01,0.5,0.1,,,,,,,,,,,,,,,,,,,,,,,,,,,,,,,,,,,,,,,,,,,,,,,,,,,,,,,,,,,,,,,,,,,,,,,,,,,,,,,,,
,,,,,699892,001,2025-03-15_14h12.47.943,Utility_discrimination_2024_2cat,2024.2.4,Win32,61.72839506,,,,,,,,3,"[0.5,0.5]","[0.383,0.924]",d,"[0.6751530893701585,0.5]","[0.3248469106298415,0.5]",347.63,349.7435,1,s,1,0.5745,,-0.036567491,0.181229279,0.21779677,349.7451,349.7451,0,133,133,133,1,0.175153089,0.175153089,shape_difference0,1,,TRUE,,intensity,0.1,0.05,0.7,0.3,0.82,20,400,1E-11,3.5,0.01,0.5,0.1,,,,,,,,,,,,,,,,,,,,,,,,,,,,,,,,,,,,,,,,,,,,,,,,,,,,,,,,,,,,,,,,,,,,,,,,,,,,,,,,,
,,,,,699892,001,2025-03-15_14h12.47.943,Utility_discrimination_2024_2cat,2024.2.4,Win32,61.72839506,,,,,,,,3,"[0.5,0.5]","[0.383,0.924]",s,"[0.5265075579918073,0.5639503487844123]","[0.47349244200819274,0.43604965121558764]",349.7457,352.027,1,d,1,0.7356,,-0.046172819,0.174141946,0.220314765,352.029,352.029,0,134,134,134,1,0.069210334,0.069210334,shape_difference3,1,,TRUE,,intensity,0.1,0.05,0.7,0.3,0.82,20,400,1E-11,3.5,0.01,0.5,0.1,,,,,,,,,,,,,,,,,,,,,,,,,,,,,,,,,,,,,,,,,,,,,,,,,,,,,,,,,,,,,,,,,,,,,,,,,,,,,,,,,
,,,,,699892,001,2025-03-15_14h12.47.943,Utility_discrimination_2024_2cat,2024.2.4,Win32,61.72839506,,,,,,,,1,"[0.5,0.5]","[0.924,0.383]",d,"[0.525247049838215,0.5609093317245709]","[0.474752950161785,0.43909066827542903]",352.0295,354.3437,0,d,0,0.7747,,0.305081981,0.539975239,0.234893258,354.3452,354.3452,0,135,135,135,1,0.06591919,0.06591919,shape_difference3,1,,TRUE,,intensity,0.1,0.05,0.7,0.3,0.82,20,400,1E-11,3.5,0.01,0.5,0.1,,,,,,,,,,,,,,,,,,,,,,,,,,,,,,,,,,,,,,,,,,,,,,,,,,,,,,,,,,,,,,,,,,,,,,,,,,,,,,,,,
,,,,,699892,001,2025-03-15_14h12.47.943,Utility_discrimination_2024_2cat,2024.2.4,Win32,61.72839506,,,,,,,,0,"[0.5,0.5]","[1,0]",s,"[0.9132158102624504,0.6712788477603013]","[0.08678418973754964,0.3287211522396986]",354.3459,356.8436,1,d,1,0.9513,,0.10013668,0.281520994,0.181384314,356.8459,356.846,0,136,136,136,1,0.447203258,0.447203258,shape_difference1,1,,TRUE,,intensity,0.1,0.05,0.7,0.3,0.82,20,400,1E-11,3.5,0.01,0.5,0.1,,,,,,,,,,,,,,,,,,,,,,,,,,,,,,,,,,,,,,,,,,,,,,,,,,,,,,,,,,,,,,,,,,,,,,,,,,,,,,,,,
,,,,,699892,001,2025-03-15_14h12.47.943,Utility_discrimination_2024_2cat,2024.2.4,Win32,61.72839506,,,,,,,,4,"[0.5,0.5]","[0,1]",d,"[0.671500593148204,0.5]","[0.328499406851796,0.5]",356.8466,359.5268,0,s,0,1.1441,,0.000953374,0.185384052,0.184430678,359.5284,359.5285,0,137,137,137,1,0.171500593,0.171500593,shape_difference0,1,,TRUE,,intensity,0.1,0.05,0.7,0.3,0.82,20,400,1E-11,3.5,0.01,0.5,0.1,,,,,,,,,,,,,,,,,,,,,,,,,,,,,,,,,,,,,,,,,,,,,,,,,,,,,,,,,,,,,,,,,,,,,,,,,,,,,,,,,
,,,,,699892,001,2025-03-15_14h12.47.943,Utility_discrimination_2024_2cat,2024.2.4,Win32,61.72839506,,,,,,,,2,"[0.5,0.5]","[0.707,0.707]",d,"[0.5,0.5737826311921325]","[0.5,0.42621736880786754]",359.529,361.7101,1,d,1,0.6362,,-0.895695101,-0.565260908,0.330434193,361.7126,361.7126,0,138,138,138,1,0.073782631,0.073782631,shape_difference4,1,,TRUE,,intensity,0.1,0.05,0.7,0.3,0.82,20,400,1E-11,3.5,0.01,0.5,0.1,,,,,,,,,,,,,,,,,,,,,,,,,,,,,,,,,,,,,,,,,,,,,,,,,,,,,,,,,,,,,,,,,,,,,,,,,,,,,,,,,
,,,,,699892,001,2025-03-15_14h12.47.943,Utility_discrimination_2024_2cat,2024.2.4,Win32,61.72839506,,,,,,,,2,"[0.5,0.5]","[0.707,0.707]",d,"[-0.01781598291175235,-0.01781598291175235]","[1.0178159829117523,1.0178159829117523]",361.7135,364.1283,1,s,1,0.8831,,-0.898968024,-0.600561726,0.298406297,364.1297,364.1297,0,139,139,139,1,-0.732412989,-0.732412989,shape_difference2,1,,TRUE,,intensity,0.1,0.05,0.7,0.3,0.82,20,400,1E-11,3.5,0.01,0.5,0.1,,,,,,,,,,,,,,,,,,,,,,,,,,,,,,,,,,,,,,,,,,,,,,,,,,,,,,,,,,,,,,,,,,,,,,,,,,,,,,,,,
,,,,,699892,001,2025-03-15_14h12.47.943,Utility_discrimination_2024_2cat,2024.2.4,Win32,61.72839506,,,,,,,,4,"[0.5,0.5]","[0,1]",s,"[-0.026547854251014136,-0.026547854251014136]","[1.0265478542510142,1.0265478542510142]",364.1303,366.2932,1,s,1,0.6185,,-0.002296967,0.179602315,0.181899282,366.2952,366.2952,0,140,140,140,1,-0.744763585,-0.744763585,shape_difference2,1,,TRUE,,intensity,0.1,0.05,0.7,0.3,0.82,20,400,1E-11,3.5,0.01,0.5,0.1,,,,,,,,,,,,,,,,,,,,,,,,,,,,,,,,,,,,,,,,,,,,,,,,,,,,,,,,,,,,,,,,,,,,,,,,,,,,,,,,,
,,,,,699892,001,2025-03-15_14h12.47.943,Utility_discrimination_2024_2cat,2024.2.4,Win32,61.72839506,,,,,,,,3,"[0.5,0.5]","[0.383,0.924]",s,"[0.5,0.5703528797595467]","[0.5,0.42964712024045326]",366.2957,368.3765,1,d,1,0.5574,,0.003401733,0.191671755,0.188270022,368.3783,368.3784,0,141,141,141,1,0.07035288,0.07035288,shape_difference4,1,,TRUE,,intensity,0.1,0.05,0.7,0.3,0.82,20,400,1E-11,3.5,0.01,0.5,0.1,,,,,,,,,,,,,,,,,,,,,,,,,,,,,,,,,,,,,,,,,,,,,,,,,,,,,,,,,,,,,,,,,,,,,,,,,,,,,,,,,
,,,,,699892,001,2025-03-15_14h12.47.943,Utility_discrimination_2024_2cat,2024.2.4,Win32,61.72839506,,,,,,,,1,"[0.5,0.5]","[0.924,0.383]",d,"[0.530345931462444,0.5732105500556092]","[0.4696540685375559,0.42678944994439083]",368.3793,371.5959,1,d,1,1.6843,,0.30043775,0.525721691,0.225283941,371.5973,371.5973,0,142,142,142,1,0.079232197,0.079232197,shape_difference3,1,,TRUE,,intensity,0.1,0.05,0.7,0.3,0.82,20,400,1E-11,3.5,0.01,0.5,0.1,,,,,,,,,,,,,,,,,,,,,,,,,,,,,,,,,,,,,,,,,,,,,,,,,,,,,,,,,,,,,,,,,,,,,,,,,,,,,,,,,
,,,,,699892,001,2025-03-15_14h12.47.943,Utility_discrimination_2024_2cat,2024.2.4,Win32,61.72839506,,,,,,,,0,"[0.5,0.5]","[1,0]",d,"[0.9082267861487722,0.6692108864664283]","[0.09177321385122783,0.3307891135335717]",371.5979,373.8436,1,s,1,0.7037,,0.105520315,0.294798843,0.189278527,373.8458,373.8458,0,143,143,143,1,0.441803881,0.441803881,shape_difference1,1,,TRUE,,intensity,0.1,0.05,0.7,0.3,0.82,20,400,1E-11,3.5,0.01,0.5,0.1,,,,,,,,,,,,,,,,,,,,,,,,,,,,,,,,,,,,,,,,,,,,,,,,,,,,,,,,,,,,,,,,,,,,,,,,,,,,,,,,,
,,,,,699892,001,2025-03-15_14h12.47.943,Utility_discrimination_2024_2cat,2024.2.4,Win32,61.72839506,,,,,,,,1,"[0.5,0.5]","[0.924,0.383]",s,"[0.6856756654006887,0.5]","[0.3143243345993113,0.5]",373.8467,375.9456,1,d,1,0.5675,,0.273878555,0.507229176,0.233350621,375.9471,375.9471,0,144,144,144,1,0.185675665,0.185675665,shape_difference0,1,,TRUE,,intensity,0.1,0.05,0.7,0.3,0.82,20,400,1E-11,3.5,0.01,0.5,0.1,,,,,,,,,,,,,,,,,,,,,,,,,,,,,,,,,,,,,,,,,,,,,,,,,,,,,,,,,,,,,,,,,,,,,,,,,,,,,,,,,
,,,,,699892,001,2025-03-15_14h12.47.943,Utility_discrimination_2024_2cat,2024.2.4,Win32,61.72839506,,,,,,,,3,"[0.5,0.5]","[0.383,0.924]",d,"[0.902396694486781,0.666794300853287]","[0.097603305513219,0.33320569914671305]",375.9479,377.993,1,s,1,0.5031,,0.002539181,0.186516887,0.183977706,377.9953,377.9953,0,145,145,145,1,0.435494258,0.435494258,shape_difference1,1,,TRUE,,intensity,0.1,0.05,0.7,0.3,0.82,20,400,1E-11,3.5,0.01,0.5,0.1,,,,,,,,,,,,,,,,,,,,,,,,,,,,,,,,,,,,,,,,,,,,,,,,,,,,,,,,,,,,,,,,,,,,,,,,,,,,,,,,,
,,,,,699892,001,2025-03-15_14h12.47.943,Utility_discrimination_2024_2cat,2024.2.4,Win32,61.72839506,,,,,,,,4,"[0.5,0.5]","[0,1]",s,"[0.528754539845122,0.5693712658404508]","[0.47124546015487806,0.4306287341595491]",377.9959,379.9758,1,s,1,0.448,,-0.017407803,0.173143949,0.190551752,379.9777,379.9777,0,146,146,146,1,0.075077128,0.075077128,shape_difference3,1,,TRUE,,intensity,0.1,0.05,0.7,0.3,0.82,20,400,1E-11,3.5,0.01,0.5,0.1,,,,,,,,,,,,,,,,,,,,,,,,,,,,,,,,,,,,,,,,,,,,,,,,,,,,,,,,,,,,,,,,,,,,,,,,,,,,,,,,,
,,,,,699892,001,2025-03-15_14h12.47.943,Utility_discrimination_2024_2cat,2024.2.4,Win32,61.72839506,,,,,,,,2,"[0.5,0.5]","[0.707,0.707]",s,"[0.5,0.5674380400048988]","[0.5,0.4325619599951011]",379.9783,382.2933,1,d,1,0.7799,,-0.910948079,-0.611132402,0.299815676,382.2955,382.2956,0,147,147,147,1,0.06743804,0.06743804,shape_difference4,1,,TRUE,,intensity,0.1,0.05,0.7,0.3,0.82,20,400,1E-11,3.5,0.01,0.5,0.1,,,,,,,,,,,,,,,,,,,,,,,,,,,,,,,,,,,,,,,,,,,,,,,,,,,,,,,,,,,,,,,,,,,,,,,,,,,,,,,,,
,,,,,699892,001,2025-03-15_14h12.47.943,Utility_discrimination_2024_2cat,2024.2.4,Win32,61.72839506,,,,,,,,0,"[0.5,0.5]","[1,0]",d,"[-0.034686920816693334,-0.034686920816693334]","[1.0346869208166933,1.0346869208166933]",382.2962,384.3758,1,d,1,0.5407,,0.104822737,0.290515411,0.185692675,384.3775,384.3775,0,148,148,148,1,-0.756275701,-0.756275701,shape_difference2,1,,TRUE,,intensity,0.1,0.05,0.7,0.3,0.82,20,400,1E-11,3.5,0.01,0.5,0.1,,,,,,,,,,,,,,,,,,,,,,,,,,,,,,,,,,,,,,,,,,,,,,,,,,,,,,,,,,,,,,,,,,,,,,,,,,,,,,,,,
,,,,,699892,001,2025-03-15_14h12.47.943,Utility_discrimination_2024_2cat,2024.2.4,Win32,61.72839506,,,,,,,,3,"[0.5,0.5]","[0.383,0.924]",d,"[0.6806116629760197,0.5]","[0.3193883370239803,0.5]",384.3783,388.8621,1,d,1,2.9674,,0.001658353,0.18096782,0.179309467,388.8634,388.8634,0,149,149,149,1,0.180611663,0.180611663,shape_difference0,1,,TRUE,,intensity,0.1,0.05,0.7,0.3,0.82,20,400,1E-11,3.5,0.01,0.5,0.1,,,,,,,,,,,,,,,,,,,,,,,,,,,,,,,,,,,,,,,,,,,,,,,,,,,,,,,,,,,,,,,,,,,,,,,,,,,,,,,,,
,,,,,699892,001,2025-03-15_14h12.47.943,Utility_discrimination_2024_2cat,2024.2.4,Win32,61.72839506,,,,,,,,4,"[0.5,0.5]","[0,1]",d,"[0.5274354567282363,0.5661889347699487]","[0.47256454327176367,0.4338110652300513]",388.8645,392.2932,1,d,1,1.8909,,-0.029701582,0.165756273,0.195457855,392.2949,392.2949,0,150,150,150,1,0.071633046,0.071633046,shape_difference3,1,,TRUE,,intensity,0.1,0.05,0.7,0.3,0.82,20,400,1E-11,3.5,0.01,0.5,0.1,,,,,,,,,,,,,,,,,,,,,,,,,,,,,,,,,,,,,,,,,,,,,,,,,,,,,,,,,,,,,,,,,,,,,,,,,,,,,,,,,
,,,,,699892,001,2025-03-15_14h12.47.943,Utility_discrimination_2024_2cat,2024.2.4,Win32,61.72839506,,,,,,,,1,"[0.5,0.5]","[0.924,0.383]",d,"[0.5,0.5649159215926858]","[0.5,0.4350840784073142]",392.2954,394.8434,0,s,0,1.008,,0.251974793,0.498602212,0.246627419,394.8455,394.8456,0,151,151,151,1,0.064915922,0.064915922,shape_difference4,1,,TRUE,,intensity,0.1,0.05,0.7,0.3,0.82,20,400,1E-11,3.5,0.01,0.5,0.1,,,,,,,,,,,,,,,,,,,,,,,,,,,,,,,,,,,,,,,,,,,,,,,,,,,,,,,,,,,,,,,,,,,,,,,,,,,,,,,,,
,,,,,699892,001,2025-03-15_14h12.47.943,Utility_discrimination_2024_2cat,2024.2.4,Win32,61.72839506,,,,,,,,0,"[0.5,0.5]","[1,0]",d,"[0.8954430065145691,0.6639119821375324]","[0.1045569934854309,0.33608801786246756]",394.8466,396.9593,1,s,1,0.5678,,0.10416141,0.285993505,0.181832095,396.9612,396.9612,0,152,152,152,1,0.427968622,0.427968622,shape_difference1,1,,TRUE,,intensity,0.1,0.05,0.7,0.3,0.82,20,400,1E-11,3.5,0.01,0.5,0.1,,,,,,,,,,,,,,,,,,,,,,,,,,,,,,,,,,,,,,,,,,,,,,,,,,,,,,,,,,,,,,,,,,,,,,,,,,,,,,,,,
,,,,,699892,001,2025-03-15_14h12.47.943,Utility_discrimination_2024_2cat,2024.2.4,Win32,61.72839506,,,,,,,,2,"[0.5,0.5]","[0.707,0.707]",s,"[0.6764623894172743,0.5]","[0.3235376105827257,0.5]",396.9619,399.109,1,d,1,0.6148,,-0.93301551,-0.621482792,0.311532718,399.1113,399.1114,0,153,153,153,1,0.176462389,0.176462389,shape_difference0,1,,TRUE,,intensity,0.1,0.05,0.7,0.3,0.82,20,400,1E-11,3.5,0.01,0.5,0.1,,,,,,,,,,,,,,,,,,,,,,,,,,,,,,,,,,,,,,,,,,,,,,,,,,,,,,,,,,,,,,,,,,,,,,,,,,,,,,,,,
,,,,,699892,001,2025-03-15_14h12.47.943,Utility_discrimination_2024_2cat,2024.2.4,Win32,61.72839506,,,,,,,,0,"[0.5,0.5]","[1,0]",d,"[-0.043663969165388394,-0.043663969165388394]","[1.0436639691653884,1.0436639691653884]",399.1121,401.5428,1,d,1,0.8858,,0.103513763,0.28107974,0.177565977,401.545,401.545,0,154,154,154,1,-0.768973082,-0.768973082,shape_difference2,1,,TRUE,,intensity,0.1,0.05,0.7,0.3,0.82,20,400,1E-11,3.5,0.01,0.5,0.1,,,,,,,,,,,,,,,,,,,,,,,,,,,,,,,,,,,,,,,,,,,,,,,,,,,,,,,,,,,,,,,,,,,,,,,,,,,,,,,,,
,,,,,699892,001,2025-03-15_14h12.47.943,Utility_discrimination_2024_2cat,2024.2.4,Win32,61.72839506,,,,,,,,4,"[0.5,0.5]","[0,1]",d,"[0.673036561654692,0.5]","[0.32696343834530806,0.5]",401.5462,403.5757,1,s,1,0.4985,,0.003973163,0.184464335,0.180491171,403.5775,403.5776,0,155,155,155,1,0.173036562,0.173036562,shape_difference0,1,,TRUE,,intensity,0.1,0.05,0.7,0.3,0.82,20,400,1E-11,3.5,0.01,0.5,0.1,,,,,,,,,,,,,,,,,,,,,,,,,,,,,,,,,,,,,,,,,,,,,,,,,,,,,,,,,,,,,,,,,,,,,,,,,,,,,,,,,
,,,,,699892,001,2025-03-15_14h12.47.943,Utility_discrimination_2024_2cat,2024.2.4,Win32,61.72839506,,,,,,,,1,"[0.5,0.5]","[0.924,0.383]",s,"[0.5,0.5751335370050128]","[0.5,0.42486646299498715]",403.5781,405.6929,0,s,0,0.5785,,0.235398299,0.496486987,0.261088689,405.6949,405.6949,0,156,156,156,1,0.075133537,0.075133537,shape_difference4,1,,TRUE,,intensity,0.1,0.05,0.7,0.3,0.82,20,400,1E-11,3.5,0.01,0.5,0.1,,,,,,,,,,,,,,,,,,,,,,,,,,,,,,,,,,,,,,,,,,,,,,,,,,,,,,,,,,,,,,,,,,,,,,,,,,,,,,,,,
,,,,,699892,001,2025-03-15_14h12.47.943,Utility_discrimination_2024_2cat,2024.2.4,Win32,61.72839506,,,,,,,,3,"[0.5,0.5]","[0.383,0.924]",d,"[0.8870053223397198,0.6604145437836717]","[0.11299467766028021,0.3395854562163283]",405.6957,407.7929,1,d,1,0.5616,,0.000733787,0.174822149,0.174088362,407.7952,407.7952,0,157,157,157,1,0.418836929,0.418836929,shape_difference1,1,,TRUE,,intensity,0.1,0.05,0.7,0.3,0.82,20,400,1E-11,3.5,0.01,0.5,0.1,,,,,,,,,,,,,,,,,,,,,,,,,,,,,,,,,,,,,,,,,,,,,,,,,,,,,,,,,,,,,,,,,,,,,,,,,,,,,,,,,
,,,,,699892,001,2025-03-15_14h12.47.943,Utility_discrimination_2024_2cat,2024.2.4,Win32,61.72839506,,,,,,,,2,"[0.5,0.5]","[0.707,0.707]",d,"[0.5263282760453158,0.5635178252372632]","[0.4736717239546842,0.4364821747627368]",407.7959,410.3102,0,s,0,0.9827,,-0.948990906,-0.634539234,0.314451672,410.3117,410.3117,0,158,158,158,1,0.068742235,0.068742235,shape_difference3,1,,TRUE,,intensity,0.1,0.05,0.7,0.3,0.82,20,400,1E-11,3.5,0.01,0.5,0.1,,,,,,,,,,,,,,,,,,,,,,,,,,,,,,,,,,,,,,,,,,,,,,,,,,,,,,,,,,,,,,,,,,,,,,,,,,,,,,,,,
,,,,,699892,001,2025-03-15_14h12.47.943,Utility_discrimination_2024_2cat,2024.2.4,Win32,61.72839506,,,,,,,,1,"[0.5,0.5]","[0.924,0.383]",d,"[-0.053784511475139296,-0.053784511475139296]","[1.0537845114751394,1.0537845114751394]",410.3124,412.5428,1,s,1,0.6927,,0.22266551,0.494251717,0.271586207,412.5448,412.5448,0,159,159,159,1,-0.783287852,-0.783287852,shape_difference2,1,,TRUE,,intensity,0.1,0.05,0.7,0.3,0.82,20,400,1E-11,3.5,0.01,0.5,0.1,,,,,,,,,,,,,,,,,,,,,,,,,,,,,,,,,,,,,,,,,,,,,,,,,,,,,,,,,,,,,,,,,,,,,,,,,,,,,,,,,
,,,,,699892,001,2025-03-15_14h12.47.943,Utility_discrimination_2024_2cat,2024.2.4,Win32,61.72839506,,,,,,,,2,"[0.5,0.5]","[0.707,0.707]",s,"[0.8766176143988682,0.6561088163579725]","[0.12338238560113174,0.34389118364202753]",412.5454,414.6586,1,s,1,0.5694,,-0.960755537,-0.651511343,0.309244194,414.6604,414.6604,0,160,160,160,1,0.407594821,0.407594821,shape_difference1,1,,TRUE,,intensity,0.1,0.05,0.7,0.3,0.82,20,400,1E-11,3.5,0.01,0.5,0.1,,,,,,,,,,,,,,,,,,,,,,,,,,,,,,,,,,,,,,,,,,,,,,,,,,,,,,,,,,,,,,,,,,,,,,,,,,,,,,,,,
,,,,,699892,001,2025-03-15_14h12.47.943,Utility_discrimination_2024_2cat,2024.2.4,Win32,61.72839506,,,,,,,,3,"[0.5,0.5]","[0.383,0.924]",s,"[-0.06553443022068661,-0.06553443022068661]","[1.0655344302206866,1.0655344302206866]",414.6621,416.4925,1,d,1,0.3102,,0.005286003,0.189959374,0.184673371,416.4949,416.4949,0,161,161,161,1,-0.799907256,-0.799907256,shape_difference2,1,,TRUE,,intensity,0.1,0.05,0.7,0.3,0.82,20,400,1E-11,3.5,0.01,0.5,0.1,,,,,,,,,,,,,,,,,,,,,,,,,,,,,,,,,,,,,,,,,,,,,,,,,,,,,,,,,,,,,,,,,,,,,,,,,,,,,,,,,
,,,,,699892,001,2025-03-15_14h12.47.943,Utility_discrimination_2024_2cat,2024.2.4,Win32,61.72839506,,,,,,,,0,"[0.5,0.5]","[1,0]",d,"[0.5306520458982277,0.5739490611226172]","[0.4693479541017723,0.4260509388773828]",416.4958,418.7287,1,s,1,0.7012,,0.102859716,0.275604572,0.172744856,418.7305,418.7306,0,162,162,162,1,0.080031451,0.080031451,shape_difference3,1,,TRUE,,intensity,0.1,0.05,0.7,0.3,0.82,20,400,1E-11,3.5,0.01,0.5,0.1,,,,,,,,,,,,,,,,,,,,,,,,,,,,,,,,,,,,,,,,,,,,,,,,,,,,,,,,,,,,,,,,,,,,,,,,,,,,,,,,,
,,,,,699892,001,2025-03-15_14h12.47.943,Utility_discrimination_2024_2cat,2024.2.4,Win32,61.72839506,,,,,,,,4,"[0.5,0.5]","[0,1]",s,"[0.6701838456979174,0.5]","[0.3298161543020825,0.5]",418.7315,421.4251,0,s,0,1.1557,,0.006908185,0.195668873,0.188760688,421.4271,421.4271,0,163,163,163,1,0.170183846,0.170183846,shape_difference0,1,,TRUE,,intensity,0.1,0.05,0.7,0.3,0.82,20,400,1E-11,3.5,0.01,0.5,0.1,,,,,,,,,,,,,,,,,,,,,,,,,,,,,,,,,,,,,,,,,,,,,,,,,,,,,,,,,,,,,,,,,,,,,,,,,,,,,,,,,
,,,,,699892,001,2025-03-15_14h12.47.943,Utility_discrimination_2024_2cat,2024.2.4,Win32,61.72839506,,,,,,,,4,"[0.5,0.5]","[0,1]",d,"[0.5,0.5898047952770042]","[0.5,0.41019520472299575]",421.428,423.5759,1,s,1,0.601,,0.006322648,0.191856402,0.185533754,423.5783,423.5783,0,164,164,164,1,0.089804795,0.089804795,shape_difference4,1,,TRUE,,intensity,0.1,0.05,0.7,0.3,0.82,20,400,1E-11,3.5,0.01,0.5,0.1,,,,,,,,,,,,,,,,,,,,,,,,,,,,,,,,,,,,,,,,,,,,,,,,,,,,,,,,,,,,,,,,,,,,,,,,,,,,,,,,,
,,,,,699892,001,2025-03-15_14h12.47.943,Utility_discrimination_2024_2cat,2024.2.4,Win32,61.72839506,,,,,,,,1,"[0.5,0.5]","[0.924,0.383]",s,"[0.5,0.584178058073158]","[0.5,0.41582194192684196]",423.5792,425.6444,1,d,1,0.5347,,0.212719775,0.491796997,0.279077222,425.6457,425.6457,0,165,165,165,1,0.084178058,0.084178058,shape_difference4,1,,TRUE,,intensity,0.1,0.05,0.7,0.3,0.82,20,400,1E-11,3.5,0.01,0.5,0.1,,,,,,,,,,,,,,,,,,,,,,,,,,,,,,,,,,,,,,,,,,,,,,,,,,,,,,,,,,,,,,,,,,,,,,,,,,,,,,,,,
,,,,,699892,001,2025-03-15_14h12.47.943,Utility_discrimination_2024_2cat,2024.2.4,Win32,61.72839506,,,,,,,,2,"[0.5,0.5]","[0.707,0.707]",d,"[0.8647978590099443,0.6512095021653773]","[0.13520214099005573,0.3487904978346227]",425.6464,427.7616,1,d,1,0.5999,,-0.969573029,-0.674145506,0.295427523,427.7634,427.7634,0,166,166,166,1,0.394802878,0.394802878,shape_difference1,1,,TRUE,,intensity,0.1,0.05,0.7,0.3,0.82,20,400,1E-11,3.5,0.01,0.5,0.1,,,,,,,,,,,,,,,,,,,,,,,,,,,,,,,,,,,,,,,,,,,,,,,,,,,,,,,,,,,,,,,,,,,,,,,,,,,,,,,,,
,,,,,699892,001,2025-03-15_14h12.47.943,Utility_discrimination_2024_2cat,2024.2.4,Win32,61.72839506,,,,,,,,3,"[0.5,0.5]","[0.383,0.924]",d,"[-0.07358897848128954,-0.07358897848128954]","[1.0735889784812895,1.0735889784812895]",427.7639,429.7921,1,d,1,0.4843,,0.004718793,0.185363174,0.180644381,429.7939,429.7939,0,167,167,167,1,-0.811299828,-0.811299828,shape_difference2,1,,TRUE,,intensity,0.1,0.05,0.7,0.3,0.82,20,400,1E-11,3.5,0.01,0.5,0.1,,,,,,,,,,,,,,,,,,,,,,,,,,,,,,,,,,,,,,,,,,,,,,,,,,,,,,,,,,,,,,,,,,,,,,,,,,,,,,,,,
,,,,,699892,001,2025-03-15_14h12.47.943,Utility_discrimination_2024_2cat,2024.2.4,Win32,61.72839506,,,,,,,,0,"[0.5,0.5]","[1,0]",d,"[0.5291316991046263,0.5702811748633806]","[0.4708683008953736,0.42971882513661946]",429.7948,431.9924,1,d,1,0.6537,,0.105973185,0.289129827,0.183156642,431.994,431.994,0,168,168,168,1,0.076061878,0.076061878,shape_difference3,1,,TRUE,,intensity,0.1,0.05,0.7,0.3,0.82,20,400,1E-11,3.5,0.01,0.5,0.1,,,,,,,,,,,,,,,,,,,,,,,,,,,,,,,,,,,,,,,,,,,,,,,,,,,,,,,,,,,,,,,,,,,,,,,,,,,,,,,,,
,,,,,699892,001,2025-03-15_14h12.47.943,Utility_discrimination_2024_2cat,2024.2.4,Win32,61.72839506,,,,,,,,3,"[0.5,0.5]","[0.383,0.924]",d,"[0.6811836930185464,0.5]","[0.3188163069814536,0.5]",431.9949,434.1581,1,d,1,0.6169,,0.004175623,0.180367307,0.176191683,434.1597,434.1598,0,169,169,169,1,0.181183693,0.181183693,shape_difference0,1,,TRUE,,intensity,0.1,0.05,0.7,0.3,0.82,20,400,1E-11,3.5,0.01,0.5,0.1,,,,,,,,,,,,,,,,,,,,,,,,,,,,,,,,,,,,,,,,,,,,,,,,,,,,,,,,,,,,,,,,,,,,,,,,,,,,,,,,,
,,,,,699892,001,2025-03-15_14h12.47.943,Utility_discrimination_2024_2cat,2024.2.4,Win32,61.72839506,,,,,,,,4,"[0.5,0.5]","[0,1]",d,"[0.5278803804638705,0.5672623278031759]","[0.47211961953612946,0.43273767219682413]",434.1611,437.2588,0,d,0,1.5514,,0.005808469,0.187869344,0.182060875,437.2602,437.2603,0,170,170,170,1,0.072794727,0.072794727,shape_difference3,1,,TRUE,,intensity,0.1,0.05,0.7,0.3,0.82,20,400,1E-11,3.5,0.01,0.5,0.1,,,,,,,,,,,,,,,,,,,,,,,,,,,,,,,,,,,,,,,,,,,,,,,,,,,,,,,,,,,,,,,,,,,,,,,,,,,,,,,,,
,,,,,699892,001,2025-03-15_14h12.47.943,Utility_discrimination_2024_2cat,2024.2.4,Win32,61.72839506,,,,,,,,0,"[0.5,0.5]","[1,0]",s,"[0.5,0.5795900878995554]","[0.5,0.42040991210044465]",437.2609,439.3923,1,d,1,0.5994,,0.105490787,0.285025609,0.179534822,439.3943,439.3943,0,171,171,171,1,0.079590088,0.079590088,shape_difference4,1,,TRUE,,intensity,0.1,0.05,0.7,0.3,0.82,20,400,1E-11,3.5,0.01,0.5,0.1,,,,,,,,,,,,,,,,,,,,,,,,,,,,,,,,,,,,,,,,,,,,,,,,,,,,,,,,,,,,,,,,,,,,,,,,,,,,,,,,,
,,,,,699892,001,2025-03-15_14h12.47.943,Utility_discrimination_2024_2cat,2024.2.4,Win32,61.72839506,,,,,,,,2,"[0.5,0.5]","[0.707,0.707]",d,"[0.6771442092971143,0.5]","[0.3228557907028857,0.5]",439.3949,441.4417,1,d,1,0.5021,,-0.976301686,-0.700823183,0.275478503,441.4433,441.4433,0,172,172,172,1,0.177144209,0.177144209,shape_difference0,1,,TRUE,,intensity,0.1,0.05,0.7,0.3,0.82,20,400,1E-11,3.5,0.01,0.5,0.1,,,,,,,,,,,,,,,,,,,,,,,,,,,,,,,,,,,,,,,,,,,,,,,,,,,,,,,,,,,,,,,,,,,,,,,,,,,,,,,,,
,,,,,699892,001,2025-03-15_14h12.47.943,Utility_discrimination_2024_2cat,2024.2.4,Win32,61.72839506,,,,,,,,1,"[0.5,0.5]","[0.924,0.383]",d,"[-0.08038817172730661,-0.08038817172730661]","[1.0803881717273067,1.0803881717273067]",441.4439,443.8085,1,d,1,0.8275,,0.204804141,0.489000384,0.284196243,443.8103,443.8103,0,173,173,173,1,-0.820916792,-0.820916792,shape_difference2,1,,TRUE,,intensity,0.1,0.05,0.7,0.3,0.82,20,400,1E-11,3.5,0.01,0.5,0.1,,,,,,,,,,,,,,,,,,,,,,,,,,,,,,,,,,,,,,,,,,,,,,,,,,,,,,,,,,,,,,,,,,,,,,,,,,,,,,,,,
,,,,,699892,001,2025-03-15_14h12.47.943,Utility_discrimination_2024_2cat,2024.2.4,Win32,61.72839506,,,,,,,,4,"[0.5,0.5]","[0,1]",d,"[0.8545784125486104,0.6469735194871404]","[0.14542158745138956,0.35302648051285956]",443.8108,446.2754,0,d,0,0.9244,,0.005345216,0.183577344,0.178232128,446.2774,446.2774,0,174,174,174,1,0.383742871,0.383742871,shape_difference1,1,,TRUE,,intensity,0.1,0.05,0.7,0.3,0.82,20,400,1E-11,3.5,0.01,0.5,0.1,,,,,,,,,,,,,,,,,,,,,,,,,,,,,,,,,,,,,,,,,,,,,,,,,,,,,,,,,,,,,,,,,,,,,,,,,,,,,,,,,
,,,,,699892,001,2025-03-15_14h12.47.943,Utility_discrimination_2024_2cat,2024.2.4,Win32,61.72839506,,,,,,,,3,"[0.5,0.5]","[0.383,0.924]",s,"[0.5,0.575830221063022]","[0.5,0.42416977893697805]",446.2792,448.542,0,d,0,0.7189,,0.00663714,0.192452364,0.185815224,448.5437,448.5437,0,175,175,175,1,0.075830221,0.075830221,shape_difference4,1,,TRUE,,intensity,0.1,0.05,0.7,0.3,0.82,20,400,1E-11,3.5,0.01,0.5,0.1,,,,,,,,,,,,,,,,,,,,,,,,,,,,,,,,,,,,,,,,,,,,,,,,,,,,,,,,,,,,,,,,,,,,,,,,,,,,,,,,,
,,,,,699892,001,2025-03-15_14h12.47.943,Utility_discrimination_2024_2cat,2024.2.4,Win32,61.72839506,,,,,,,,0,"[0.5,0.5]","[1,0]",s,"[0.5326380871514734,0.5787404504646513]","[0.4673619128485266,0.4212595495353488]",448.5442,450.625,1,s,1,0.5462,,0.105047492,0.280520729,0.175473237,450.6273,450.6273,0,176,176,176,1,0.085216938,0.085216938,shape_difference3,1,,TRUE,,intensity,0.1,0.05,0.7,0.3,0.82,20,400,1E-11,3.5,0.01,0.5,0.1,,,,,,,,,,,,,,,,,,,,,,,,,,,,,,,,,,,,,,,,,,,,,,,,,,,,,,,,,,,,,,,,,,,,,,,,,,,,,,,,,
,,,,,699892,001,2025-03-15_14h12.47.943,Utility_discrimination_2024_2cat,2024.2.4,Win32,61.72839506,,,,,,,,1,"[0.5,0.5]","[0.924,0.383]",s,"[0.6738200857303923,0.5]","[0.3261799142696077,0.5]",450.628,452.7753,1,d,1,0.6015,,0.301940098,0.49615168,0.194211582,452.7768,452.7768,0,177,177,177,1,0.173820086,0.173820086,shape_difference0,1,,TRUE,,intensity,0.1,0.05,0.7,0.3,0.82,20,400,1E-11,3.5,0.01,0.5,0.1,,,,,,,,,,,,,,,,,,,,,,,,,,,,,,,,,,,,,,,,,,,,,,,,,,,,,,,,,,,,,,,,,,,,,,,,,,,,,,,,,
,,,,,699892,001,2025-03-15_14h12.47.943,Utility_discrimination_2024_2cat,2024.2.4,Win32,61.72839506,,,,,,,,2,"[0.5,0.5]","[0.707,0.707]",d,"[0.8924008609301048,0.6626510062080413]","[0.1075991390698951,0.3373489937919587]",452.7775,454.5943,1,d,1,0.2848,,-0.981531207,-0.706832568,0.274698639,454.5957,454.5957,0,178,178,178,1,0.424676256,0.424676256,shape_difference1,1,,TRUE,,intensity,0.1,0.05,0.7,0.3,0.82,20,400,1E-11,3.5,0.01,0.5,0.1,,,,,,,,,,,,,,,,,,,,,,,,,,,,,,,,,,,,,,,,,,,,,,,,,,,,,,,,,,,,,,,,,,,,,,,,,,,,,,,,,
,,,,,699892,001,2025-03-15_14h12.47.943,Utility_discrimination_2024_2cat,2024.2.4,Win32,61.72839506,,,,,,,,0,"[0.5,0.5]","[1,0]",d,"[-0.08629355984583553,-0.08629355984583553]","[1.0862935598458354,1.0862935598458354]",454.5962,456.7415,1,s,1,0.6057,,0.104628042,0.275466336,0.170838294,456.7434,456.7434,0,179,179,179,1,-0.829269533,-0.829269533,shape_difference2,1,,TRUE,,intensity,0.1,0.05,0.7,0.3,0.82,20,400,1E-11,3.5,0.01,0.5,0.1,,,,,,,,,,,,,,,,,,,,,,,,,,,,,,,,,,,,,,,,,,,,,,,,,,,,,,,,,,,,,,,,,,,,,,,,,,,,,,,,,
,,,,,699892,001,2025-03-15_14h12.47.943,Utility_discrimination_2024_2cat,2024.2.4,Win32,61.72839506,,,,,,,,1,"[0.5,0.5]","[0.924,0.383]",s,"[0.6710704403144903,0.5]","[0.3289295596855098,0.5]",456.7442,459.2917,1,s,1,1.0018,,0.294432339,0.494374235,0.199941896,459.2936,459.2936,0,180,180,180,1,0.17107044,0.17107044,shape_difference0,1,,TRUE,,intensity,0.1,0.05,0.7,0.3,0.82,20,400,1E-11,3.5,0.01,0.5,0.1,,,,,,,,,,,,,,,,,,,,,,,,,,,,,,,,,,,,,,,,,,,,,,,,,,,,,,,,,,,,,,,,,,,,,,,,,,,,,,,,,
,,,,,699892,001,2025-03-15_14h12.47.943,Utility_discrimination_2024_2cat,2024.2.4,Win32,61.72839506,,,,,,,,4,"[0.5,0.5]","[0,1]",s,"[0.8843967532206511,0.6593332862375643]","[0.1156032467793488,0.34066671376243574]",459.2941,461.1277,1,d,1,0.3167,,0.007313627,0.193865126,0.186551499,461.129,461.129,0,181,181,181,1,0.416013802,0.416013802,shape_difference1,1,,TRUE,,intensity,0.1,0.05,0.7,0.3,0.82,20,400,1E-11,3.5,0.01,0.5,0.1,,,,,,,,,,,,,,,,,,,,,,,,,,,,,,,,,,,,,,,,,,,,,,,,,,,,,,,,,,,,,,,,,,,,,,,,,,,,,,,,,
,,,,,699892,001,2025-03-15_14h12.47.943,Utility_discrimination_2024_2cat,2024.2.4,Win32,61.72839506,,,,,,,,3,"[0.5,0.5]","[0.383,0.924]",d,"[0.5,0.5900304667197815]","[0.5,0.40996953328021846]",461.1296,463.0918,1,d,1,0.4255,,0.006144688,0.188543107,0.182398419,463.0944,463.0944,0,182,182,182,1,0.090030467,0.090030467,shape_difference4,1,,TRUE,,intensity,0.1,0.05,0.7,0.3,0.82,20,400,1E-11,3.5,0.01,0.5,0.1,,,,,,,,,,,,,,,,,,,,,,,,,,,,,,,,,,,,,,,,,,,,,,,,,,,,,,,,,,,,,,,,,,,,,,,,,,,,,,,,,
,,,,,699892,001,2025-03-15_14h12.47.943,Utility_discrimination_2024_2cat,2024.2.4,Win32,61.72839506,,,,,,,,2,"[0.5,0.5]","[0.707,0.707]",d,"[0.5308216018224443,0.5743581203235992]","[0.46917839817755574,0.42564187967640077]",463.0951,465.2249,1,d,1,0.6068,,-0.985671509,-0.713388408,0.272283102,465.2269,465.2269,0,183,183,183,1,0.080474156,0.080474156,shape_difference3,1,,TRUE,,intensity,0.1,0.05,0.7,0.3,0.82,20,400,1E-11,3.5,0.01,0.5,0.1,,,,,,,,,,,,,,,,,,,,,,,,,,,,,,,,,,,,,,,,,,,,,,,,,,,,,,,,,,,,,,,,,,,,,,,,,,,,,,,,,
,,,,,699892,001,2025-03-15_14h12.47.943,Utility_discrimination_2024_2cat,2024.2.4,Win32,61.72839506,,,,,,,,1,"[0.5,0.5]","[0.924,0.383]",d,"[-0.09157566394728045,-0.09157566394728045]","[1.0915756639472805,1.0915756639472805]",465.2276,467.5748,1,d,1,0.8025,,0.274703011,0.492474692,0.217771682,467.5764,467.5764,0,184,184,184,1,-0.836740685,-0.836740685,shape_difference2,1,,TRUE,,intensity,0.1,0.05,0.7,0.3,0.82,20,400,1E-11,3.5,0.01,0.5,0.1,,,,,,,,,,,,,,,,,,,,,,,,,,,,,,,,,,,,,,,,,,,,,,,,,,,,,,,,,,,,,,,,,,,,,,,,,,,,,,,,,
,,,,,699892,001,2025-03-15_14h12.47.943,Utility_discrimination_2024_2cat,2024.2.4,Win32,61.72839506,,,,,,,,3,"[0.5,0.5]","[0.383,0.924]",d,"[0.8747219690452157,0.655323067255755]","[0.12527803095478435,0.34467693274424505]",467.5775,469.5247,1,d,1,0.41,,0.005711508,0.184355228,0.17864372,469.5273,469.5273,0,185,185,185,1,0.405543257,0.405543257,shape_difference1,1,,TRUE,,intensity,0.1,0.05,0.7,0.3,0.82,20,400,1E-11,3.5,0.01,0.5,0.1,,,,,,,,,,,,,,,,,,,,,,,,,,,,,,,,,,,,,,,,,,,,,,,,,,,,,,,,,,,,,,,,,,,,,,,,,,,,,,,,,
,,,,,699892,001,2025-03-15_14h12.47.943,Utility_discrimination_2024_2cat,2024.2.4,Win32,61.72839506,,,,,,,,2,"[0.5,0.5]","[0.707,0.707]",d,"[0.5293357484816626,0.5707734506450557]","[0.47066425151833735,0.42922654935494436]",469.528,471.858,1,d,1,0.7874,,-0.989010961,-0.720835248,0.268175713,471.8596,471.8596,0,186,186,186,1,0.076594644,0.076594644,shape_difference3,1,,TRUE,,intensity,0.1,0.05,0.7,0.3,0.82,20,400,1E-11,3.5,0.01,0.5,0.1,,,,,,,,,,,,,,,,,,,,,,,,,,,,,,,,,,,,,,,,,,,,,,,,,,,,,,,,,,,,,,,,,,,,,,,,,,,,,,,,,
,,,,,699892,001,2025-03-15_14h12.47.943,Utility_discrimination_2024_2cat,2024.2.4,Win32,61.72839506,,,,,,,,4,"[0.5,0.5]","[0,1]",d,"[-0.09645466156025617,-0.09645466156025617]","[1.0964546615602562,1.0964546615602562]",471.8601,474.1746,1,s,1,0.7758,,0.006795173,0.190438502,0.183643329,474.1771,474.1772,0,187,187,187,1,-0.843641671,-0.843641671,shape_difference2,1,,TRUE,,intensity,0.1,0.05,0.7,0.3,0.82,20,400,1E-11,3.5,0.01,0.5,0.1,,,,,,,,,,,,,,,,,,,,,,,,,,,,,,,,,,,,,,,,,,,,,,,,,,,,,,,,,,,,,,,,,,,,,,,,,,,,,,,,,
,,,,,699892,001,2025-03-15_14h12.47.943,Utility_discrimination_2024_2cat,2024.2.4,Win32,61.72839506,,,,,,,,0,"[0.5,0.5]","[1,0]",s,"[0.5,0.5844936156428489]","[0.5,0.41550638435715115]",474.1778,476.0913,1,s,1,0.3749,,0.104219088,0.269693045,0.165473956,476.0931,476.0931,0,188,188,188,1,0.084493616,0.084493616,shape_difference4,1,,TRUE,,intensity,0.1,0.05,0.7,0.3,0.82,20,400,1E-11,3.5,0.01,0.5,0.1,,,,,,,,,,,,,,,,,,,,,,,,,,,,,,,,,,,,,,,,,,,,,,,,,,,,,,,,,,,,,,,,,,,,,,,,,,,,,,,,,
,,,,,699892,001,2025-03-15_14h12.47.943,Utility_discrimination_2024_2cat,2024.2.4,Win32,61.72839506,,,,,,,,4,"[0.5,0.5]","[0,1]",s,"[0.6687829542569134,0.5]","[0.33121704574308664,0.5]",476.0937,478.458,0,s,0,0.8181,,0.006354821,0.186799096,0.180444275,478.4599,478.4599,0,189,189,189,1,0.168782954,0.168782954,shape_difference0,1,,TRUE,,intensity,0.1,0.05,0.7,0.3,0.82,20,400,1E-11,3.5,0.01,0.5,0.1,,,,,,,,,,,,,,,,,,,,,,,,,,,,,,,,,,,,,,,,,,,,,,,,,,,,,,,,,,,,,,,,,,,,,,,,,,,,,,,,,
,,,,,699892,001,2025-03-15_14h12.47.943,Utility_discrimination_2024_2cat,2024.2.4,Win32,61.72839506,,,,,,,,3,"[0.5,0.5]","[0.383,0.924]",d,"[0.5,0.5799671337400383]","[0.5,0.42003286625996167]",478.4604,480.7073,1,s,1,0.7123,,0.005320905,0.179751894,0.174430989,480.7091,480.7091,0,190,190,190,1,0.079967134,0.079967134,shape_difference4,1,,TRUE,,intensity,0.1,0.05,0.7,0.3,0.82,20,400,1E-11,3.5,0.01,0.5,0.1,,,,,,,,,,,,,,,,,,,,,,,,,,,,,,,,,,,,,,,,,,,,,,,,,,,,,,,,,,,,,,,,,,,,,,,,,,,,,,,,,
,,,,,699892,001,2025-03-15_14h12.47.943,Utility_discrimination_2024_2cat,2024.2.4,Win32,61.72839506,,,,,,,,1,"[0.5,0.5]","[0.924,0.383]",s,"[0.5281147725965741,0.567827806473197]","[0.4718852274034259,0.432172193526803]",480.7099,482.791,1,s,1,0.5358,,0.259594243,0.49038132,0.230787077,482.7936,482.7936,0,191,191,191,1,0.073406717,0.073406717,shape_difference3,1,,TRUE,,intensity,0.1,0.05,0.7,0.3,0.82,20,400,1E-11,3.5,0.01,0.5,0.1,,,,,,,,,,,,,,,,,,,,,,,,,,,,,,,,,,,,,,,,,,,,,,,,,,,,,,,,,,,,,,,,,,,,,,,,,,,,,,,,,
