Consent.started,Consent.stopped,key_resp.keys,key_resp.rt,key_resp.duration,participant,session,date,expName,psychopyVersion,OS,frameRate,SetupExperiment.started,SetupExperiment.stopped,DiscrimInstructions_Pre.started,DiscrimInstructions_Pre.stopped,KeyboardResponse.keys,KeyboardResponse.rt,KeyboardResponse.duration,feature_index,feature_center,feature_vector,correct_answer,coord1,coord2,DiscriminationTrial.started,DiscriminationTrial.stopped,PreTest.response,Resp_s_or_d.keys,Resp_s_or_d.corr,Resp_s_or_d.rt,Resp_s_or_d.duration,PreTest.CI_lower,PreTest.CI_upper,PreTest.CI_width,CrashPretest_2.started,CrashPretest_2.stopped,PreTest.thisRepN,PreTest.thisTrialN,PreTest.thisN,PreTest.thisIndex,PreTest.ran,PreTest.intensity,intensity,PreTest.label,PreTest.nReps,PreTest.method,PreTest.autoLog,PreTest.seed,PreTest.varName,PreTest.startVal,PreTest.minVal,PreTest.maxVal,PreTest.startValSd,PreTest.pThreshold,PreTest.nTrials,PreTest.maxTrials,PreTest.stopInterval,PreTest.beta,PreTest.delta,PreTest.gamma,PreTest.grain,WelcomeToCategorizationTask.started,WelcomeToCategorizationTask.stopped,PressAnyKey3.keys,PressAnyKey3.rt,PressAnyKey3.duration,shape_coordinates,category_center,category_sigma,subspace_center,subspace_vector1,subspace_vector2,CategorizationTrial.started,CategorizationTrial.stopped,Respond_1or2.keys,Respond_1or2.rt,Respond_1or2.duration,Feedback.started,Feedback.stopped,xcoord,ycoord,shape_coord,numeric_response_minus1,correctness,truecategory,mixture_index,respAifA,respBifA,respAifB,respBifB,trial_number,D,muAx,muAy,muBx,muBy,sigmaA,sigmaB,priorA,priorB,TrialLoop.thisRepN,TrialLoop.thisTrialN,TrialLoop.thisN,TrialLoop.thisIndex,TrialLoop.ran,DiscriminationInstructions_Post.started,DiscriminationInstructions_Post.stopped,key_resp_2.keys,key_resp_2.rt,key_resp_2.duration,PostTest.response,PostTest.CI_lower,PostTest.CI_upper,PostTest.CI_width,CrashPosttest.started,CrashPosttest.stopped,PostTest.thisRepN,PostTest.thisTrialN,PostTest.thisN,PostTest.thisIndex,PostTest.ran,PostTest.intensity,PostTest.label,PostTest.nReps,PostTest.method,PostTest.autoLog,PostTest.seed,PostTest.varName,PostTest.startVal,PostTest.minVal,PostTest.maxVal,PostTest.startValSd,PostTest.pThreshold,PostTest.nTrials,PostTest.maxTrials,PostTest.stopInterval,PostTest.beta,PostTest.delta,PostTest.gamma,PostTest.grain,Thanks.started,Thanks.stopped
0.0001,5.5864,y,5.5649,,772950,001,2025-03-15_00h31.52.114,Utility_discrimination_2024_2cat,2024.2.4,MacIntel,59.52380952,,,,,,,,,,,,,,,,,,,,,,,,,,,,,,,,,,,,,,,,,,,,,,,,,,,,,,,,,,,,,,,,,,,,,,,,,,,,,,,,,,,,,,,,,,,,,,,,,,,,,,,,,,,,,,,,,,,,,,,,,,,,,,,,,,,
,,,,,772950,001,2025-03-15_00h31.52.114,Utility_discrimination_2024_2cat,2024.2.4,MacIntel,59.52380952,5.5869,5.587,,,,,,,,,,,,,,,,,,,,,,,,,,,,,,,,,,,,,,,,,,,,,,,,,,,,,,,,,,,,,,,,,,,,,,,,,,,,,,,,,,,,,,,,,,,,,,,,,,,,,,,,,,,,,,,,,,,,,,,,,,,,,,,,,
,,,,,772950,001,2025-03-15_00h31.52.114,Utility_discrimination_2024_2cat,2024.2.4,MacIntel,59.52380952,,,5.5872,32.454,space,26.8318,,,,,,,,,,,,,,,,,,,,,,,,,,,,,,,,,,,,,,,,,,,,,,,,,,,,,,,,,,,,,,,,,,,,,,,,,,,,,,,,,,,,,,,,,,,,,,,,,,,,,,,,,,,,,,,,,,,,,,,,,,,,,
,,,,,772950,001,2025-03-15_00h31.52.114,Utility_discrimination_2024_2cat,2024.2.4,MacIntel,59.52380952,,,,,,,,0,"[0.5,0.5]","[1,0]",,"[0.6185239449756466,0.5]","[0.3814760550243534,0.5]",32.4898,35.8371,1,d,1,1.8153,,-0.447967632,0.547967632,0.995935263,35.8411,35.8413,0,0,0,0,1,0.118523945,0.118523945,shape_difference3,1,,TRUE,,intensity,0.1,0.05,0.7,0.3,0.82,20,400,1E-11,3.5,0.01,0.5,0.1,,,,,,,,,,,,,,,,,,,,,,,,,,,,,,,,,,,,,,,,,,,,,,,,,,,,,,,,,,,,,,,,,,,,,,,,,,,,,,,,,
,,,,,772950,001,2025-03-15_00h31.52.114,Utility_discrimination_2024_2cat,2024.2.4,MacIntel,59.52380952,,,,,,,,2,"[0.5,0.5]","[0.707,0.707]",d,"[0.6185239449756466,0.5]","[0.3814760550243534,0.5]",35.8426,38.719,1,d,1,1.3493,,-0.447967632,0.547967632,0.995935263,38.7226,38.7226,0,1,1,1,1,0.118523945,0.118523945,shape_difference0,1,,TRUE,,intensity,0.1,0.05,0.7,0.3,0.82,20,400,1E-11,3.5,0.01,0.5,0.1,,,,,,,,,,,,,,,,,,,,,,,,,,,,,,,,,,,,,,,,,,,,,,,,,,,,,,,,,,,,,,,,,,,,,,,,,,,,,,,,,
,,,,,772950,001,2025-03-15_00h31.52.114,Utility_discrimination_2024_2cat,2024.2.4,MacIntel,59.52380952,,,,,,,,4,"[0.5,0.5]","[0,1]",d,"[0.5837964290977822,0.5837964290977822]","[0.4162035709022178,0.4162035709022178]",38.724,41.3534,1,s,1,1.0988,,-0.447967632,0.547967632,0.995935263,41.3562,41.3562,0,2,2,2,1,0.118523945,0.118523945,shape_difference2,1,,TRUE,,intensity,0.1,0.05,0.7,0.3,0.82,20,400,1E-11,3.5,0.01,0.5,0.1,,,,,,,,,,,,,,,,,,,,,,,,,,,,,,,,,,,,,,,,,,,,,,,,,,,,,,,,,,,,,,,,,,,,,,,,,,,,,,,,,
,,,,,772950,001,2025-03-15_00h31.52.114,Utility_discrimination_2024_2cat,2024.2.4,MacIntel,59.52380952,,,,,,,,1,"[0.5,0.5]","[0.924,0.383]",s,"[0.5,0.6185239449756466]","[0.5,0.3814760550243534]",41.3577,43.9034,1,s,1,1.0158,,-0.447967632,0.547967632,0.995935263,43.9062,43.9062,0,3,3,3,1,0.118523945,0.118523945,shape_difference4,1,,TRUE,,intensity,0.1,0.05,0.7,0.3,0.82,20,400,1E-11,3.5,0.01,0.5,0.1,,,,,,,,,,,,,,,,,,,,,,,,,,,,,,,,,,,,,,,,,,,,,,,,,,,,,,,,,,,,,,,,,,,,,,,,,,,,,,,,,
,,,,,772950,001,2025-03-15_00h31.52.114,Utility_discrimination_2024_2cat,2024.2.4,MacIntel,59.52380952,,,,,,,,2,"[0.5,0.5]","[0.707,0.707]",s,"[0.6095161251574974,0.5453946709256726]","[0.3904838748425025,0.4546053290743273]",43.9074,46.4867,1,d,1,1.0486,,-0.479157219,0.478510979,0.957668197,46.4895,46.4895,0,4,4,4,1,0.118523945,0.118523945,shape_difference1,1,,TRUE,,intensity,0.1,0.05,0.7,0.3,0.82,20,400,1E-11,3.5,0.01,0.5,0.1,,,,,,,,,,,,,,,,,,,,,,,,,,,,,,,,,,,,,,,,,,,,,,,,,,,,,,,,,,,,,,,,,,,,,,,,,,,,,,,,,
,,,,,772950,001,2025-03-15_00h31.52.114,Utility_discrimination_2024_2cat,2024.2.4,MacIntel,59.52380952,,,,,,,,1,"[0.5,0.5]","[0.924,0.383]",d,"[0.5261601218135545,0.5261601218135545]","[0.4738398781864455,0.4738398781864455]",46.4906,49.1868,1,d,1,1.1778,,-0.479157219,0.478510979,0.957668197,49.1891,49.1891,0,5,5,5,1,0.037001587,0.037001587,shape_difference2,1,,TRUE,,intensity,0.1,0.05,0.7,0.3,0.82,20,400,1E-11,3.5,0.01,0.5,0.1,,,,,,,,,,,,,,,,,,,,,,,,,,,,,,,,,,,,,,,,,,,,,,,,,,,,,,,,,,,,,,,,,,,,,,,,,,,,,,,,,
,,,,,772950,001,2025-03-15_00h31.52.114,Utility_discrimination_2024_2cat,2024.2.4,MacIntel,59.52380952,,,,,,,,3,"[0.5,0.5]","[0.383,0.924]",d,"[0.5341894661325662,0.5141716077151222]","[0.46581053386743376,0.48582839228487784]",49.1901,51.8023,1,s,1,1.0854,,-0.479157219,0.478510979,0.957668197,51.8063,51.8063,0,6,6,6,1,0.037001587,0.037001587,shape_difference1,1,,TRUE,,intensity,0.1,0.05,0.7,0.3,0.82,20,400,1E-11,3.5,0.01,0.5,0.1,,,,,,,,,,,,,,,,,,,,,,,,,,,,,,,,,,,,,,,,,,,,,,,,,,,,,,,,,,,,,,,,,,,,,,,,,,,,,,,,,
,,,,,772950,001,2025-03-15_00h31.52.114,Utility_discrimination_2024_2cat,2024.2.4,MacIntel,59.52380952,,,,,,,,0,"[0.5,0.5]","[1,0]",s,"[0.5141716077151222,0.5341894661325662]","[0.48582839228487784,0.46581053386743376]",51.8072,54.6701,0,s,0,1.3328,,-0.479157219,0.478510979,0.957668197,54.6733,54.6733,0,7,7,7,1,0.037001587,0.037001587,shape_difference3,1,,TRUE,,intensity,0.1,0.05,0.7,0.3,0.82,20,400,1E-11,3.5,0.01,0.5,0.1,,,,,,,,,,,,,,,,,,,,,,,,,,,,,,,,,,,,,,,,,,,,,,,,,,,,,,,,,,,,,,,,,,,,,,,,,,,,,,,,,
,,,,,772950,001,2025-03-15_00h31.52.114,Utility_discrimination_2024_2cat,2024.2.4,MacIntel,59.52380952,,,,,,,,4,"[0.5,0.5]","[0,1]",d,"[0.5370015867235566,0.5]","[0.4629984132764434,0.5]",54.6743,57.2197,0,s,0,1.0266,,-0.479157219,0.478510979,0.957668197,57.2215,57.2215,0,8,8,8,1,0.037001587,0.037001587,shape_difference0,1,,TRUE,,intensity,0.1,0.05,0.7,0.3,0.82,20,400,1E-11,3.5,0.01,0.5,0.1,,,,,,,,,,,,,,,,,,,,,,,,,,,,,,,,,,,,,,,,,,,,,,,,,,,,,,,,,,,,,,,,,,,,,,,,,,,,,,,,,
,,,,,772950,001,2025-03-15_00h31.52.114,Utility_discrimination_2024_2cat,2024.2.4,MacIntel,59.52380952,,,,,,,,3,"[0.5,0.5]","[0.383,0.924]",d,"[0.5,0.5370015867235566]","[0.5,0.4629984132764434]",57.2225,59.7866,1,s,1,1.0332,,-0.090065158,0.591798206,0.681863364,59.7904,59.7904,0,9,9,9,1,0.037001587,0.037001587,shape_difference4,1,,TRUE,,intensity,0.1,0.05,0.7,0.3,0.82,20,400,1E-11,3.5,0.01,0.5,0.1,,,,,,,,,,,,,,,,,,,,,,,,,,,,,,,,,,,,,,,,,,,,,,,,,,,,,,,,,,,,,,,,,,,,,,,,,,,,,,,,,
,,,,,772950,001,2025-03-15_00h31.52.114,Utility_discrimination_2024_2cat,2024.2.4,MacIntel,59.52380952,,,,,,,,2,"[0.5,0.5]","[0.707,0.707]",s,"[0.586428612097727,0.7085118474629236]","[0.413571387902273,0.2914881525370764]",59.7913,62.3365,1,d,1,1.0196,,-0.510435314,0.404710629,0.915145943,62.3384,62.3384,0,10,10,10,1,0.225662173,0.225662173,shape_difference3,1,,TRUE,,intensity,0.1,0.05,0.7,0.3,0.82,20,400,1E-11,3.5,0.01,0.5,0.1,,,,,,,,,,,,,,,,,,,,,,,,,,,,,,,,,,,,,,,,,,,,,,,,,,,,,,,,,,,,,,,,,,,,,,,,,,,,,,,,,
,,,,,772950,001,2025-03-15_00h31.52.114,Utility_discrimination_2024_2cat,2024.2.4,MacIntel,59.52380952,,,,,,,,4,"[0.5,0.5]","[0,1]",d,"[0.47365134701532874,0.47365134701532874]","[0.5263486529846713,0.5263486529846713]",62.3394,64.92,0,s,0,1.0502,,-0.510435314,0.404710629,0.915145943,64.9232,64.9232,0,11,11,11,1,-0.03726825,-0.03726825,shape_difference2,1,,TRUE,,intensity,0.1,0.05,0.7,0.3,0.82,20,400,1E-11,3.5,0.01,0.5,0.1,,,,,,,,,,,,,,,,,,,,,,,,,,,,,,,,,,,,,,,,,,,,,,,,,,,,,,,,,,,,,,,,,,,,,,,,,,,,,,,,,
,,,,,772950,001,2025-03-15_00h31.52.114,Utility_discrimination_2024_2cat,2024.2.4,MacIntel,59.52380952,,,,,,,,1,"[0.5,0.5]","[0.924,0.383]",d,"[0.5,0.4627317496680746]","[0.5,0.5372682503319254]",64.924,67.4865,1,s,1,1.0444,,-0.510435314,0.404710629,0.915145943,67.4887,67.4887,0,12,12,12,1,-0.03726825,-0.03726825,shape_difference4,1,,TRUE,,intensity,0.1,0.05,0.7,0.3,0.82,20,400,1E-11,3.5,0.01,0.5,0.1,,,,,,,,,,,,,,,,,,,,,,,,,,,,,,,,,,,,,,,,,,,,,,,,,,,,,,,,,,,,,,,,,,,,,,,,,,,,,,,,,
,,,,,772950,001,2025-03-15_00h31.52.114,Utility_discrimination_2024_2cat,2024.2.4,MacIntel,59.52380952,,,,,,,,0,"[0.5,0.5]","[1,0]",s,"[0.46556413669330093,0.48572626012287257]","[0.5344358633066991,0.5142737398771274]",67.4895,70.1699,1,s,1,1.1529,,-0.090065158,0.591798206,0.681863364,70.1729,70.1729,0,13,13,13,1,-0.03726825,-0.03726825,shape_difference1,1,,TRUE,,intensity,0.1,0.05,0.7,0.3,0.82,20,400,1E-11,3.5,0.01,0.5,0.1,,,,,,,,,,,,,,,,,,,,,,,,,,,,,,,,,,,,,,,,,,,,,,,,,,,,,,,,,,,,,,,,,,,,,,,,,,,,,,,,,
,,,,,772950,001,2025-03-15_00h31.52.114,Utility_discrimination_2024_2cat,2024.2.4,MacIntel,59.52380952,,,,,,,,3,"[0.5,0.5]","[0.383,0.924]",s,"[0.7256621725789216,0.5]","[0.2743378274210784,0.5]",70.1737,73.0032,1,s,1,1.2996,,-0.09936101,0.537490534,0.636851544,73.0058,73.0058,0,14,14,14,1,0.225662173,0.225662173,shape_difference0,1,,TRUE,,intensity,0.1,0.05,0.7,0.3,0.82,20,400,1E-11,3.5,0.01,0.5,0.1,,,,,,,,,,,,,,,,,,,,,,,,,,,,,,,,,,,,,,,,,,,,,,,,,,,,,,,,,,,,,,,,,,,,,,,,,,,,,,,,,
,,,,,772950,001,2025-03-15_00h31.52.114,Utility_discrimination_2024_2cat,2024.2.4,MacIntel,59.52380952,,,,,,,,4,"[0.5,0.5]","[0,1]",s,"[0.5657699535565752,0.658672159494192]","[0.4342300464434248,0.341327840505808]",73.0066,75.7371,1,s,1,1.212,,-0.540713527,0.322166073,0.862879599,75.7397,75.7397,0,15,15,15,1,0.171723116,0.171723116,shape_difference3,1,,TRUE,,intensity,0.1,0.05,0.7,0.3,0.82,20,400,1E-11,3.5,0.01,0.5,0.1,,,,,,,,,,,,,,,,,,,,,,,,,,,,,,,,,,,,,,,,,,,,,,,,,,,,,,,,,,,,,,,,,,,,,,,,,,,,,,,,,
,,,,,772950,001,2025-03-15_00h31.52.114,Utility_discrimination_2024_2cat,2024.2.4,MacIntel,59.52380952,,,,,,,,1,"[0.5,0.5]","[0.924,0.383]",s,"[0.5,0.40339734014384304]","[0.5,0.5966026598561569]",75.7406,78.3365,1,d,1,1.0663,,-0.540713527,0.322166073,0.862879599,78.3405,78.3405,0,16,16,16,1,-0.09660266,-0.09660266,shape_difference4,1,,TRUE,,intensity,0.1,0.05,0.7,0.3,0.82,20,400,1E-11,3.5,0.01,0.5,0.1,,,,,,,,,,,,,,,,,,,,,,,,,,,,,,,,,,,,,,,,,,,,,,,,,,,,,,,,,,,,,,,,,,,,,,,,,,,,,,,,,
,,,,,772950,001,2025-03-15_00h31.52.114,Utility_discrimination_2024_2cat,2024.2.4,MacIntel,59.52380952,,,,,,,,0,"[0.5,0.5]","[1,0]",d,"[0.410739142292911,0.4630011812750919]","[0.589260857707089,0.5369988187249081]",78.3417,81.0699,0,d,0,1.1997,,-0.09936101,0.537490534,0.636851544,81.074,81.074,0,17,17,17,1,-0.09660266,-0.09660266,shape_difference1,1,,TRUE,,intensity,0.1,0.05,0.7,0.3,0.82,20,400,1E-11,3.5,0.01,0.5,0.1,,,,,,,,,,,,,,,,,,,,,,,,,,,,,,,,,,,,,,,,,,,,,,,,,,,,,,,,,,,,,,,,,,,,,,,,,,,,,,,,,
,,,,,772950,001,2025-03-15_00h31.52.114,Utility_discrimination_2024_2cat,2024.2.4,MacIntel,59.52380952,,,,,,,,2,"[0.5,0.5]","[0.707,0.707]",s,"[0.6717231163357056,0.5]","[0.3282768836642944,0.5]",81.0752,83.8864,1,d,1,1.2946,,-0.118157943,0.566731222,0.684889165,83.8886,83.8887,0,18,18,18,1,0.171723116,0.171723116,shape_difference0,1,,TRUE,,intensity,0.1,0.05,0.7,0.3,0.82,20,400,1E-11,3.5,0.01,0.5,0.1,,,,,,,,,,,,,,,,,,,,,,,,,,,,,,,,,,,,,,,,,,,,,,,,,,,,,,,,,,,,,,,,,,,,,,,,,,,,,,,,,
,,,,,772950,001,2025-03-15_00h31.52.114,Utility_discrimination_2024_2cat,2024.2.4,MacIntel,59.52380952,,,,,,,,2,"[0.5,0.5]","[0.707,0.707]",d,"[0.630420181502283,0.630420181502283]","[0.369579818497717,0.369579818497717]",83.8904,86.4866,1,d,1,1.0663,,-0.138426098,0.496127593,0.634553691,86.4903,86.4903,0,19,19,19,1,0.184469847,0.184469847,shape_difference2,1,,TRUE,,intensity,0.1,0.05,0.7,0.3,0.82,20,400,1E-11,3.5,0.01,0.5,0.1,,,,,,,,,,,,,,,,,,,,,,,,,,,,,,,,,,,,,,,,,,,,,,,,,,,,,,,,,,,,,,,,,,,,,,,,,,,,,,,,,
,,,,,772950,001,2025-03-15_00h31.52.114,Utility_discrimination_2024_2cat,2024.2.4,MacIntel,59.52380952,,,,,,,,0,"[0.5,0.5]","[1,0]",d,"[0.5959456051886609,0.5959456051886609]","[0.4040543948113391,0.4040543948113391]",86.4914,89.1367,1,s,1,1.128,,-0.120490743,0.470685176,0.591175919,89.1396,89.1397,0,20,20,20,1,0.13570807,0.13570807,shape_difference2,1,,TRUE,,intensity,0.1,0.05,0.7,0.3,0.82,20,400,1E-11,3.5,0.01,0.5,0.1,,,,,,,,,,,,,,,,,,,,,,,,,,,,,,,,,,,,,,,,,,,,,,,,,,,,,,,,,,,,,,,,,,,,,,,,,,,,,,,,,
,,,,,772950,001,2025-03-15_00h31.52.114,Utility_discrimination_2024_2cat,2024.2.4,MacIntel,59.52380952,,,,,,,,4,"[0.5,0.5]","[0,1]",s,"[0.6306116159745301,0.5]","[0.3693883840254699,0.5]",89.1407,91.7699,1,d,1,1.1045,,-0.569624043,0.240042019,0.809666061,91.7727,91.7728,0,21,21,21,1,0.130611616,0.130611616,shape_difference0,1,,TRUE,,intensity,0.1,0.05,0.7,0.3,0.82,20,400,1E-11,3.5,0.01,0.5,0.1,,,,,,,,,,,,,,,,,,,,,,,,,,,,,,,,,,,,,,,,,,,,,,,,,,,,,,,,,,,,,,,,,,,,,,,,,,,,,,,,,
,,,,,772950,001,2025-03-15_00h31.52.114,Utility_discrimination_2024_2cat,2024.2.4,MacIntel,59.52380952,,,,,,,,1,"[0.5,0.5]","[0.924,0.383]",d,"[0.5,0.35243994249424015]","[0.5,0.6475600575057598]",91.7737,94.3198,1,d,1,1.0181,,-0.198081498,0.472058333,0.670139831,94.3237,94.3237,0,22,22,22,1,-0.147560058,-0.147560058,shape_difference4,1,,TRUE,,intensity,0.1,0.05,0.7,0.3,0.82,20,400,1E-11,3.5,0.01,0.5,0.1,,,,,,,,,,,,,,,,,,,,,,,,,,,,,,,,,,,,,,,,,,,,,,,,,,,,,,,,,,,,,,,,,,,,,,,,,,,,,,,,,
,,,,,772950,001,2025-03-15_00h31.52.114,Utility_discrimination_2024_2cat,2024.2.4,MacIntel,59.52380952,,,,,,,,3,"[0.5,0.5]","[0.383,0.924]",d,"[0.5640354735347015,0.5265428423850549]","[0.4359645264652985,0.47345715761494517]",94.3247,97.1031,1,s,1,1.2516,,-0.120490743,0.470685176,0.591175919,97.106,97.1061,0,23,23,23,1,0.069302461,0.069302461,shape_difference1,1,,TRUE,,intensity,0.1,0.05,0.7,0.3,0.82,20,400,1E-11,3.5,0.01,0.5,0.1,,,,,,,,,,,,,,,,,,,,,,,,,,,,,,,,,,,,,,,,,,,,,,,,,,,,,,,,,,,,,,,,,,,,,,,,,,,,,,,,,
,,,,,772950,001,2025-03-15_00h31.52.114,Utility_discrimination_2024_2cat,2024.2.4,MacIntel,59.52380952,,,,,,,,3,"[0.5,0.5]","[0.383,0.924]",s,"[0.550024248918245,0.6206851331604658]","[0.44997575108175497,0.3793148668395342]",97.1078,99.8364,1,s,1,1.1995,,-0.144584963,0.406347617,0.550932581,99.8398,99.8399,0,24,24,24,1,0.130611616,0.130611616,shape_difference3,1,,TRUE,,intensity,0.1,0.05,0.7,0.3,0.82,20,400,1E-11,3.5,0.01,0.5,0.1,,,,,,,,,,,,,,,,,,,,,,,,,,,,,,,,,,,,,,,,,,,,,,,,,,,,,,,,,,,,,,,,,,,,,,,,,,,,,,,,,
,,,,,772950,001,2025-03-15_00h31.52.114,Utility_discrimination_2024_2cat,2024.2.4,MacIntel,59.52380952,,,,,,,,2,"[0.5,0.5]","[0.707,0.707]",s,"[0.5351372241639378,0.5847697000717454]","[0.4648627758360622,0.41523029992825455]",99.8409,102.4699,1,s,1,1.1118,,-0.158612068,0.441238695,0.599850764,102.4723,102.4723,0,25,25,25,1,0.0917421,0.0917421,shape_difference3,1,,TRUE,,intensity,0.1,0.05,0.7,0.3,0.82,20,400,1E-11,3.5,0.01,0.5,0.1,,,,,,,,,,,,,,,,,,,,,,,,,,,,,,,,,,,,,,,,,,,,,,,,,,,,,,,,,,,,,,,,,,,,,,,,,,,,,,,,,
,,,,,772950,001,2025-03-15_00h31.52.114,Utility_discrimination_2024_2cat,2024.2.4,MacIntel,59.52380952,,,,,,,,0,"[0.5,0.5]","[1,0]",s,"[0.5641114274257293,0.5641114274257293]","[0.4358885725742707,0.4358885725742707]",102.4743,105.2365,1,s,1,1.2319,,-0.144584963,0.406347617,0.550932581,105.2405,105.2405,0,26,26,26,1,0.090680944,0.090680944,shape_difference2,1,,TRUE,,intensity,0.1,0.05,0.7,0.3,0.82,20,400,1E-11,3.5,0.01,0.5,0.1,,,,,,,,,,,,,,,,,,,,,,,,,,,,,,,,,,,,,,,,,,,,,,,,,,,,,,,,,,,,,,,,,,,,,,,,,,,,,,,,,
,,,,,772950,001,2025-03-15_00h31.52.114,Utility_discrimination_2024_2cat,2024.2.4,MacIntel,59.52380952,,,,,,,,4,"[0.5,0.5]","[0,1]",s,"[0.5917420996447461,0.5]","[0.4082579003552539,0.5]",105.2415,108.0198,1,d,1,1.2615,,-0.588261172,0.151848651,0.740109824,108.0222,108.0222,0,27,27,27,1,0.0917421,0.0917421,shape_difference0,1,,TRUE,,intensity,0.1,0.05,0.7,0.3,0.82,20,400,1E-11,3.5,0.01,0.5,0.1,,,,,,,,,,,,,,,,,,,,,,,,,,,,,,,,,,,,,,,,,,,,,,,,,,,,,,,,,,,,,,,,,,,,,,,,,,,,,,,,,
,,,,,772950,001,2025-03-15_00h31.52.114,Utility_discrimination_2024_2cat,2024.2.4,MacIntel,59.52380952,,,,,,,,1,"[0.5,0.5]","[0.924,0.383]",d,"[0.5,0.3089903613102919]","[0.5,0.6910096386897081]",108.024,110.503,1,d,1,0.9483,,-0.215333829,0.393351265,0.608685094,110.5061,110.5061,0,28,28,28,1,-0.191009639,-0.191009639,shape_difference4,1,,TRUE,,intensity,0.1,0.05,0.7,0.3,0.82,20,400,1E-11,3.5,0.01,0.5,0.1,,,,,,,,,,,,,,,,,,,,,,,,,,,,,,,,,,,,,,,,,,,,,,,,,,,,,,,,,,,,,,,,,,,,,,,,,,,,,,,,,
,,,,,772950,001,2025-03-15_00h31.52.114,Utility_discrimination_2024_2cat,2024.2.4,MacIntel,59.52380952,,,,,,,,1,"[0.5,0.5]","[0.924,0.383]",d,"[0.5232002550186954,0.5096165559222514]","[0.4767997449813047,0.4903834440777486]",110.5072,113.302,0,s,0,1.2661,,-0.097745232,0.507045379,0.604790611,113.3045,113.3045,0,29,29,29,1,0.025108501,0.025108501,shape_difference1,1,,TRUE,,intensity,0.1,0.05,0.7,0.3,0.82,20,400,1E-11,3.5,0.01,0.5,0.1,,,,,,,,,,,,,,,,,,,,,,,,,,,,,,,,,,,,,,,,,,,,,,,,,,,,,,,,,,,,,,,,,,,,,,,,,,,,,,,,,
,,,,,772950,001,2025-03-15_00h31.52.114,Utility_discrimination_2024_2cat,2024.2.4,MacIntel,59.52380952,,,,,,,,2,"[0.5,0.5]","[0.707,0.707]",d,"[0.6265153706310235,0.5524408949693528]","[0.37348462936897653,0.44755910503064716]",113.3062,115.8198,1,d,1,0.9827,,-0.171834932,0.374013296,0.545848228,115.8236,115.8237,0,30,30,30,1,0.136921397,0.136921397,shape_difference1,1,,TRUE,,intensity,0.1,0.05,0.7,0.3,0.82,20,400,1E-11,3.5,0.01,0.5,0.1,,,,,,,,,,,,,,,,,,,,,,,,,,,,,,,,,,,,,,,,,,,,,,,,,,,,,,,,,,,,,,,,,,,,,,,,,,,,,,,,,
,,,,,772950,001,2025-03-15_00h31.52.114,Utility_discrimination_2024_2cat,2024.2.4,MacIntel,59.52380952,,,,,,,,3,"[0.5,0.5]","[0.383,0.924]",d,"[0.5432750910224168,0.5432750910224168]","[0.4567249089775832,0.4567249089775832]",115.8248,118.3198,1,d,1,0.9666,,-0.160589475,0.350306654,0.510896129,118.3227,118.3227,0,31,31,31,1,0.061209464,0.061209464,shape_difference2,1,,TRUE,,intensity,0.1,0.05,0.7,0.3,0.82,20,400,1E-11,3.5,0.01,0.5,0.1,,,,,,,,,,,,,,,,,,,,,,,,,,,,,,,,,,,,,,,,,,,,,,,,,,,,,,,,,,,,,,,,,,,,,,,,,,,,,,,,,
,,,,,772950,001,2025-03-15_00h31.52.114,Utility_discrimination_2024_2cat,2024.2.4,MacIntel,59.52380952,,,,,,,,0,"[0.5,0.5]","[1,0]",d,"[0.5253378217319599,0.5611283218807595]","[0.4746621782680402,0.4388716781192405]",118.3246,120.8864,1,s,1,1.0314,,-0.160589475,0.350306654,0.510896129,120.8894,120.8894,0,32,32,32,1,0.066156193,0.066156193,shape_difference3,1,,TRUE,,intensity,0.1,0.05,0.7,0.3,0.82,20,400,1E-11,3.5,0.01,0.5,0.1,,,,,,,,,,,,,,,,,,,,,,,,,,,,,,,,,,,,,,,,,,,,,,,,,,,,,,,,,,,,,,,,,,,,,,,,,,,,,,,,,
,,,,,772950,001,2025-03-15_00h31.52.114,Utility_discrimination_2024_2cat,2024.2.4,MacIntel,59.52380952,,,,,,,,4,"[0.5,0.5]","[0,1]",s,"[0.5661561925116445,0.5]","[0.43384380748835555,0.5]",120.8905,123.4698,1,s,1,1.049,,-0.616056949,0.077962516,0.694019466,123.4724,123.4724,0,33,33,33,1,0.066156193,0.066156193,shape_difference0,1,,TRUE,,intensity,0.1,0.05,0.7,0.3,0.82,20,400,1E-11,3.5,0.01,0.5,0.1,,,,,,,,,,,,,,,,,,,,,,,,,,,,,,,,,,,,,,,,,,,,,,,,,,,,,,,,,,,,,,,,,,,,,,,,,,,,,,,,,
,,,,,772950,001,2025-03-15_00h31.52.114,Utility_discrimination_2024_2cat,2024.2.4,MacIntel,59.52380952,,,,,,,,1,"[0.5,0.5]","[0.924,0.383]",s,"[0.5,0.2663877560171044]","[0.5,0.7336122439828956]",123.4733,126.0198,1,s,1,1.0166,,-0.1169537,0.452353369,0.569307069,126.023,126.0231,0,34,34,34,1,-0.233612244,-0.233612244,shape_difference4,1,,TRUE,,intensity,0.1,0.05,0.7,0.3,0.82,20,400,1E-11,3.5,0.01,0.5,0.1,,,,,,,,,,,,,,,,,,,,,,,,,,,,,,,,,,,,,,,,,,,,,,,,,,,,,,,,,,,,,,,,,,,,,,,,,,,,,,,,,
,,,,,772950,001,2025-03-15_00h31.52.114,Utility_discrimination_2024_2cat,2024.2.4,MacIntel,59.52380952,,,,,,,,0,"[0.5,0.5]","[1,0]",s,"[0.5847389754407915,0.5351244887379039]","[0.41526102455920855,0.4648755112620962]",126.0242,128.8197,0,s,0,1.266,,-0.171576622,0.286796614,0.458373237,128.8229,128.8229,0,35,35,35,1,0.091708848,0.091708848,shape_difference1,1,,TRUE,,intensity,0.1,0.05,0.7,0.3,0.82,20,400,1E-11,3.5,0.01,0.5,0.1,,,,,,,,,,,,,,,,,,,,,,,,,,,,,,,,,,,,,,,,,,,,,,,,,,,,,,,,,,,,,,,,,,,,,,,,,,,,,,,,,
,,,,,772950,001,2025-03-15_00h31.52.114,Utility_discrimination_2024_2cat,2024.2.4,MacIntel,59.52380952,,,,,,,,2,"[0.5,0.5]","[0.707,0.707]",d,"[0.5442987540991198,0.5]","[0.4557012459008803,0.5]",128.8239,131.3691,0,s,0,1.0179,,-0.180803695,0.29910644,0.479910135,131.3721,131.3721,0,36,36,36,1,0.044298754,0.044298754,shape_difference0,1,,TRUE,,intensity,0.1,0.05,0.7,0.3,0.82,20,400,1E-11,3.5,0.01,0.5,0.1,,,,,,,,,,,,,,,,,,,,,,,,,,,,,,,,,,,,,,,,,,,,,,,,,,,,,,,,,,,,,,,,,,,,,,,,,,,,,,,,,
,,,,,772950,001,2025-03-15_00h31.52.114,Utility_discrimination_2024_2cat,2024.2.4,MacIntel,59.52380952,,,,,,,,3,"[0.5,0.5]","[0.383,0.924]",d,"[0.5254779894661591,0.5254779894661591]","[0.47452201053384097,0.47452201053384097]",131.373,133.953,0,s,0,1.0526,,-0.171576622,0.286796614,0.458373237,133.9555,133.9555,0,37,37,37,1,0.03603676,0.03603676,shape_difference2,1,,TRUE,,intensity,0.1,0.05,0.7,0.3,0.82,20,400,1E-11,3.5,0.01,0.5,0.1,,,,,,,,,,,,,,,,,,,,,,,,,,,,,,,,,,,,,,,,,,,,,,,,,,,,,,,,,,,,,,,,,,,,,,,,,,,,,,,,,
,,,,,772950,001,2025-03-15_00h31.52.114,Utility_discrimination_2024_2cat,2024.2.4,MacIntel,59.52380952,,,,,,,,4,"[0.5,0.5]","[0,1]",d,"[0.5169664228199629,0.5409320487875866]","[0.48303357718003714,0.4590679512124134]",133.9565,136.6029,1,s,1,1.1276,,-0.642600146,0.003859163,0.64645931,136.6059,136.606,0,38,38,38,1,0.044298754,0.044298754,shape_difference3,1,,TRUE,,intensity,0.1,0.05,0.7,0.3,0.82,20,400,1E-11,3.5,0.01,0.5,0.1,,,,,,,,,,,,,,,,,,,,,,,,,,,,,,,,,,,,,,,,,,,,,,,,,,,,,,,,,,,,,,,,,,,,,,,,,,,,,,,,,
,,,,,772950,001,2025-03-15_00h31.52.114,Utility_discrimination_2024_2cat,2024.2.4,MacIntel,59.52380952,,,,,,,,0,"[0.5,0.5]","[1,0]",s,"[0.5,0.23037327588610024]","[0.5,0.7696267241138998]",136.6069,139.1697,1,s,1,1.0341,,-0.086613843,0.373421794,0.460035637,139.1733,139.1733,0,39,39,39,1,-0.269626724,-0.269626724,shape_difference4,1,,TRUE,,intensity,0.1,0.05,0.7,0.3,0.82,20,400,1E-11,3.5,0.01,0.5,0.1,,,,,,,,,,,,,,,,,,,,,,,,,,,,,,,,,,,,,,,,,,,,,,,,,,,,,,,,,,,,,,,,,,,,,,,,,,,,,,,,,
,,,,,772950,001,2025-03-15_00h31.52.114,Utility_discrimination_2024_2cat,2024.2.4,MacIntel,59.52380952,,,,,,,,4,"[0.5,0.5]","[0,1]",s,"[0.5926867023447159,0.5]","[0.4073132976552841,0.5]",139.1742,141.8527,0,s,0,1.153,,-0.67113939,-0.036541485,0.634597904,141.8552,141.8552,0,40,40,40,1,0.092686702,0.092686702,shape_difference0,1,,TRUE,,intensity,0.1,0.05,0.7,0.3,0.82,20,400,1E-11,3.5,0.01,0.5,0.1,,,,,,,,,,,,,,,,,,,,,,,,,,,,,,,,,,,,,,,,,,,,,,,,,,,,,,,,,,,,,,,,,,,,,,,,,,,,,,,,,
,,,,,772950,001,2025-03-15_00h31.52.114,Utility_discrimination_2024_2cat,2024.2.4,MacIntel,59.52380952,,,,,,,,1,"[0.5,0.5]","[0.924,0.383]",d,"[0.5,0.1898285633172705]","[0.5,0.8101714366827295]",141.8561,144.4032,1,d,1,1.017,,-0.026142562,0.573541892,0.599684454,144.4057,144.4058,0,41,41,41,1,-0.310171437,-0.310171437,shape_difference4,1,,TRUE,,intensity,0.1,0.05,0.7,0.3,0.82,20,400,1E-11,3.5,0.01,0.5,0.1,,,,,,,,,,,,,,,,,,,,,,,,,,,,,,,,,,,,,,,,,,,,,,,,,,,,,,,,,,,,,,,,,,,,,,,,,,,,,,,,,
,,,,,772950,001,2025-03-15_00h31.52.114,Utility_discrimination_2024_2cat,2024.2.4,MacIntel,59.52380952,,,,,,,,2,"[0.5,0.5]","[0.707,0.707]",d,"[0.701313426594776,0.5834448510668823]","[0.298686573405224,0.41655514893311774]",144.4074,147.1197,1,s,1,1.1836,,-0.089492637,0.397480846,0.486973482,147.1231,147.1231,0,42,42,42,1,0.217871674,0.217871674,shape_difference1,1,,TRUE,,intensity,0.1,0.05,0.7,0.3,0.82,20,400,1E-11,3.5,0.01,0.5,0.1,,,,,,,,,,,,,,,,,,,,,,,,,,,,,,,,,,,,,,,,,,,,,,,,,,,,,,,,,,,,,,,,,,,,,,,,,,,,,,,,,
,,,,,772950,001,2025-03-15_00h31.52.114,Utility_discrimination_2024_2cat,2024.2.4,MacIntel,59.52380952,,,,,,,,3,"[0.5,0.5]","[0.383,0.924]",s,"[0.5658914636246641,0.5658914636246641]","[0.4341085363753359,0.4341085363753359]",147.1242,149.7864,0,s,0,1.1328,,-0.18394784,0.248316998,0.432264838,149.7891,149.7892,0,43,43,43,1,0.093198676,0.093198676,shape_difference2,1,,TRUE,,intensity,0.1,0.05,0.7,0.3,0.82,20,400,1E-11,3.5,0.01,0.5,0.1,,,,,,,,,,,,,,,,,,,,,,,,,,,,,,,,,,,,,,,,,,,,,,,,,,,,,,,,,,,,,,,,,,,,,,,,,,,,,,,,,
,,,,,772950,001,2025-03-15_00h31.52.114,Utility_discrimination_2024_2cat,2024.2.4,MacIntel,59.52380952,,,,,,,,0,"[0.5,0.5]","[1,0]",d,"[0.5084307107333221,0.5203393647978842]","[0.49156928926667787,0.4796606352021158]",149.7901,152.3862,1,s,1,1.0702,,-0.007302409,0.485956576,0.493258985,152.389,152.389,0,44,44,44,1,0.0220123,0.0220123,shape_difference3,1,,TRUE,,intensity,0.1,0.05,0.7,0.3,0.82,20,400,1E-11,3.5,0.01,0.5,0.1,,,,,,,,,,,,,,,,,,,,,,,,,,,,,,,,,,,,,,,,,,,,,,,,,,,,,,,,,,,,,,,,,,,,,,,,,,,,,,,,,
,,,,,772950,001,2025-03-15_00h31.52.114,Utility_discrimination_2024_2cat,2024.2.4,MacIntel,59.52380952,,,,,,,,3,"[0.5,0.5]","[0.383,0.924]",s,"[0.6753480797329686,0.5]","[0.3246519202670314,0.5]",152.39,154.9526,1,d,1,1.0372,,-0.192940399,0.197833049,0.390773448,154.9535,154.9535,0,45,45,45,1,0.17534808,0.17534808,shape_difference0,1,,TRUE,,intensity,0.1,0.05,0.7,0.3,0.82,20,400,1E-11,3.5,0.01,0.5,0.1,,,,,,,,,,,,,,,,,,,,,,,,,,,,,,,,,,,,,,,,,,,,,,,,,,,,,,,,,,,,,,,,,,,,,,,,,,,,,,,,,
,,,,,772950,001,2025-03-15_00h31.52.114,Utility_discrimination_2024_2cat,2024.2.4,MacIntel,59.52380952,,,,,,,,2,"[0.5,0.5]","[0.707,0.707]",d,"[0.49921777300924586,0.49811285185520415]","[0.5007822269907541,0.5018871481447958]",154.9538,157.4696,0,s,0,0.9866,,-0.013618116,0.51947221,0.533090326,157.4725,157.4725,0,46,46,46,1,-0.002042368,-0.002042368,shape_difference3,1,,TRUE,,intensity,0.1,0.05,0.7,0.3,0.82,20,400,1E-11,3.5,0.01,0.5,0.1,,,,,,,,,,,,,,,,,,,,,,,,,,,,,,,,,,,,,,,,,,,,,,,,,,,,,,,,,,,,,,,,,,,,,,,,,,,,,,,,,
,,,,,772950,001,2025-03-15_00h31.52.114,Utility_discrimination_2024_2cat,2024.2.4,MacIntel,59.52380952,,,,,,,,4,"[0.5,0.5]","[0,1]",d,"[0.6316934823617295,0.6316934823617295]","[0.3683065176382705,0.3683065176382705]",157.4735,160.0696,1,d,1,1.0693,,-0.689998991,-0.095065821,0.594933171,160.0736,160.0736,0,47,47,47,1,0.186270838,0.186270838,shape_difference2,1,,TRUE,,intensity,0.1,0.05,0.7,0.3,0.82,20,400,1E-11,3.5,0.01,0.5,0.1,,,,,,,,,,,,,,,,,,,,,,,,,,,,,,,,,,,,,,,,,,,,,,,,,,,,,,,,,,,,,,,,,,,,,,,,,,,,,,,,,
,,,,,772950,001,2025-03-15_00h31.52.114,Utility_discrimination_2024_2cat,2024.2.4,MacIntel,59.52380952,,,,,,,,1,"[0.5,0.5]","[0.924,0.383]",d,"[0.5,0.1555533146123892]","[0.5,0.8444466853876108]",160.0748,162.6029,1,d,1,0.9999,,-0.043542676,0.512508489,0.556051166,162.606,162.606,0,48,48,48,1,-0.344446685,-0.344446685,shape_difference4,1,,TRUE,,intensity,0.1,0.05,0.7,0.3,0.82,20,400,1E-11,3.5,0.01,0.5,0.1,,,,,,,,,,,,,,,,,,,,,,,,,,,,,,,,,,,,,,,,,,,,,,,,,,,,,,,,,,,,,,,,,,,,,,,,,,,,,,,,,
,,,,,772950,001,2025-03-15_00h31.52.114,Utility_discrimination_2024_2cat,2024.2.4,MacIntel,59.52380952,,,,,,,,1,"[0.5,0.5]","[0.924,0.383]",d,"[0.6638725491647783,0.567925526331288]","[0.33612745083522166,0.432074473668712]",162.6071,165.1526,1,s,1,1.016,,-0.055043561,0.453542371,0.508585932,165.156,165.1561,0,49,49,49,1,0.177351244,0.177351244,shape_difference1,1,,TRUE,,intensity,0.1,0.05,0.7,0.3,0.82,20,400,1E-11,3.5,0.01,0.5,0.1,,,,,,,,,,,,,,,,,,,,,,,,,,,,,,,,,,,,,,,,,,,,,,,,,,,,,,,,,,,,,,,,,,,,,,,,,,,,,,,,,
,,,,,772950,001,2025-03-15_00h31.52.114,Utility_discrimination_2024_2cat,2024.2.4,MacIntel,59.52380952,,,,,,,,4,"[0.5,0.5]","[0,1]",s,"[0.6371504089772966,0.5568491413834465]","[0.3628495910227034,0.4431508586165535]",165.1571,168.0856,0,s,0,1.3985,,-0.706498112,-0.130139369,0.576358744,168.0891,168.0891,0,50,50,50,1,0.148431179,0.148431179,shape_difference1,1,,TRUE,,intensity,0.1,0.05,0.7,0.3,0.82,20,400,1E-11,3.5,0.01,0.5,0.1,,,,,,,,,,,,,,,,,,,,,,,,,,,,,,,,,,,,,,,,,,,,,,,,,,,,,,,,,,,,,,,,,,,,,,,,,,,,,,,,,
,,,,,772950,001,2025-03-15_00h31.52.114,Utility_discrimination_2024_2cat,2024.2.4,MacIntel,59.52380952,,,,,,,,2,"[0.5,0.5]","[0.707,0.707]",d,"[0.5,0.12491841427140571]","[0.5,0.8750815857285943]",168.0901,170.5528,1,d,1,0.9444,,-0.031467871,0.461391025,0.492858896,170.5559,170.5559,0,51,51,51,1,-0.375081586,-0.375081586,shape_difference4,1,,TRUE,,intensity,0.1,0.05,0.7,0.3,0.82,20,400,1E-11,3.5,0.01,0.5,0.1,,,,,,,,,,,,,,,,,,,,,,,,,,,,,,,,,,,,,,,,,,,,,,,,,,,,,,,,,,,,,,,,,,,,,,,,,,,,,,,,,
,,,,,772950,001,2025-03-15_00h31.52.114,Utility_discrimination_2024_2cat,2024.2.4,MacIntel,59.52380952,,,,,,,,0,"[0.5,0.5]","[1,0]",d,"[0.6125847618086645,0.6125847618086645]","[0.3874152381913355,0.3874152381913355]",170.557,173.3185,1,d,1,1.2372,,-0.025342847,0.425449953,0.4507928,173.3212,173.3212,0,52,52,52,1,0.159242945,0.159242945,shape_difference2,1,,TRUE,,intensity,0.1,0.05,0.7,0.3,0.82,20,400,1E-11,3.5,0.01,0.5,0.1,,,,,,,,,,,,,,,,,,,,,,,,,,,,,,,,,,,,,,,,,,,,,,,,,,,,,,,,,,,,,,,,,,,,,,,,,,,,,,,,,
,,,,,772950,001,2025-03-15_00h31.52.114,Utility_discrimination_2024_2cat,2024.2.4,MacIntel,59.52380952,,,,,,,,3,"[0.5,0.5]","[0.383,0.924]",d,"[0.6519567574200493,0.5]","[0.3480432425799506,0.5]",173.3223,175.9696,1,s,1,1.1172,,-0.096592736,0.290694226,0.387286961,175.973,175.973,0,53,53,53,1,0.151956757,0.151956757,shape_difference0,1,,TRUE,,intensity,0.1,0.05,0.7,0.3,0.82,20,400,1E-11,3.5,0.01,0.5,0.1,,,,,,,,,,,,,,,,,,,,,,,,,,,,,,,,,,,,,,,,,,,,,,,,,,,,,,,,,,,,,,,,,,,,,,,,,,,,,,,,,
,,,,,772950,001,2025-03-15_00h31.52.114,Utility_discrimination_2024_2cat,2024.2.4,MacIntel,59.52380952,,,,,,,,1,"[0.5,0.5]","[0.924,0.383]",s,"[0.523337872371531,0.5563033787762263]","[0.476662127628469,0.4436966212237738]",175.9742,179.0029,0,s,0,1.5027,,0.013013041,0.537336354,0.524323313,179.0059,179.0059,0,54,54,54,1,0.060934393,0.060934393,shape_difference3,1,,TRUE,,intensity,0.1,0.05,0.7,0.3,0.82,20,400,1E-11,3.5,0.01,0.5,0.1,,,,,,,,,,,,,,,,,,,,,,,,,,,,,,,,,,,,,,,,,,,,,,,,,,,,,,,,,,,,,,,,,,,,,,,,,,,,,,,,,
,,,,,772950,001,2025-03-15_00h31.52.114,Utility_discrimination_2024_2cat,2024.2.4,MacIntel,59.52380952,,,,,,,,0,"[0.5,0.5]","[1,0]",d,"[0.6948441088813833,0.5807633048718288]","[0.30515589111861674,0.4192366951281712]",179.0077,181.6361,1,s,1,1.1046,,-0.037927976,0.369592096,0.407520071,181.6392,181.6392,0,55,55,55,1,0.210870248,0.210870248,shape_difference1,1,,TRUE,,intensity,0.1,0.05,0.7,0.3,0.82,20,400,1E-11,3.5,0.01,0.5,0.1,,,,,,,,,,,,,,,,,,,,,,,,,,,,,,,,,,,,,,,,,,,,,,,,,,,,,,,,,,,,,,,,,,,,,,,,,,,,,,,,,
,,,,,772950,001,2025-03-15_00h31.52.114,Utility_discrimination_2024_2cat,2024.2.4,MacIntel,59.52380952,,,,,,,,3,"[0.5,0.5]","[0.383,0.924]",s,"[0.6315084218995708,0.5]","[0.3684915781004292,0.5]",181.6403,184.1195,1,s,1,0.949,,-0.048641657,0.429223711,0.477865368,184.1221,184.1221,0,56,56,56,1,0.131508422,0.131508422,shape_difference0,1,,TRUE,,intensity,0.1,0.05,0.7,0.3,0.82,20,400,1E-11,3.5,0.01,0.5,0.1,,,,,,,,,,,,,,,,,,,,,,,,,,,,,,,,,,,,,,,,,,,,,,,,,,,,,,,,,,,,,,,,,,,,,,,,,,,,,,,,,
,,,,,772950,001,2025-03-15_00h31.52.114,Utility_discrimination_2024_2cat,2024.2.4,MacIntel,59.52380952,,,,,,,,4,"[0.5,0.5]","[0,1]",s,"[0.5543509342649475,0.631123402769743]","[0.4456490657350524,0.368876597230257]",184.1231,186.4361,1,s,1,0.7947,,-0.740475113,-0.170023005,0.570452108,186.4389,186.4389,0,57,57,57,1,0.141908445,0.141908445,shape_difference3,1,,TRUE,,intensity,0.1,0.05,0.7,0.3,0.82,20,400,1E-11,3.5,0.01,0.5,0.1,,,,,,,,,,,,,,,,,,,,,,,,,,,,,,,,,,,,,,,,,,,,,,,,,,,,,,,,,,,,,,,,,,,,,,,,,,,,,,,,,
,,,,,772950,001,2025-03-15_00h31.52.114,Utility_discrimination_2024_2cat,2024.2.4,MacIntel,59.52380952,,,,,,,,2,"[0.5,0.5]","[0.707,0.707]",s,"[0.5,0.08949394097392083]","[0.5,0.9105060590260792]",186.4399,188.9362,1,s,1,0.9708,,-0.043676797,0.393144537,0.436821334,188.9386,188.9386,0,58,58,58,1,-0.410506059,-0.410506059,shape_difference4,1,,TRUE,,intensity,0.1,0.05,0.7,0.3,0.82,20,400,1E-11,3.5,0.01,0.5,0.1,,,,,,,,,,,,,,,,,,,,,,,,,,,,,,,,,,,,,,,,,,,,,,,,,,,,,,,,,,,,,,,,,,,,,,,,,,,,,,,,,
,,,,,772950,001,2025-03-15_00h31.52.114,Utility_discrimination_2024_2cat,2024.2.4,MacIntel,59.52380952,,,,,,,,3,"[0.5,0.5]","[0.383,0.924]",s,"[0.5962645219573612,0.5962645219573612]","[0.4037354780426387,0.4037354780426387]",188.9397,191.4361,0,s,0,0.9659,,-0.060849824,0.379671863,0.440521688,191.4393,191.4394,0,59,59,59,1,0.136159154,0.136159154,shape_difference2,1,,TRUE,,intensity,0.1,0.05,0.7,0.3,0.82,20,400,1E-11,3.5,0.01,0.5,0.1,,,,,,,,,,,,,,,,,,,,,,,,,,,,,,,,,,,,,,,,,,,,,,,,,,,,,,,,,,,,,,,,,,,,,,,,,,,,,,,,,
,,,,,772950,001,2025-03-15_00h31.52.114,Utility_discrimination_2024_2cat,2024.2.4,MacIntel,59.52380952,,,,,,,,0,"[0.5,0.5]","[1,0]",d,"[0.5446820567576925,0.607796920219603]","[0.45531794324230745,0.39220307978039703]",191.4403,193.8862,1,d,1,0.9149,,-0.051946914,0.323885598,0.375832511,193.8894,193.8894,0,60,60,60,1,0.116663334,0.116663334,shape_difference3,1,,TRUE,,intensity,0.1,0.05,0.7,0.3,0.82,20,400,1E-11,3.5,0.01,0.5,0.1,,,,,,,,,,,,,,,,,,,,,,,,,,,,,,,,,,,,,,,,,,,,,,,,,,,,,,,,,,,,,,,,,,,,,,,,,,,,,,,,,
,,,,,772950,001,2025-03-15_00h31.52.114,Utility_discrimination_2024_2cat,2024.2.4,MacIntel,59.52380952,,,,,,,,1,"[0.5,0.5]","[0.924,0.383]",d,"[0.6102865240705497,0.5]","[0.3897134759294502,0.5]",193.8905,196.5196,0,s,0,1.0996,,0.008413486,0.480251324,0.471837838,196.5228,196.5228,0,61,61,61,1,0.110286524,0.110286524,shape_difference0,1,,TRUE,,intensity,0.1,0.05,0.7,0.3,0.82,20,400,1E-11,3.5,0.01,0.5,0.1,,,,,,,,,,,,,,,,,,,,,,,,,,,,,,,,,,,,,,,,,,,,,,,,,,,,,,,,,,,,,,,,,,,,,,,,,,,,,,,,,
,,,,,772950,001,2025-03-15_00h31.52.114,Utility_discrimination_2024_2cat,2024.2.4,MacIntel,59.52380952,,,,,,,,4,"[0.5,0.5]","[0,1]",d,"[0.6681184413995718,0.5696854578528529]","[0.3318815586004282,0.43031454214714715]",196.5239,199.2518,1,d,1,1.1994,,-0.763304889,-0.210959736,0.552345154,199.254,199.2541,0,62,62,62,1,0.181946365,0.181946365,shape_difference1,1,,TRUE,,intensity,0.1,0.05,0.7,0.3,0.82,20,400,1E-11,3.5,0.01,0.5,0.1,,,,,,,,,,,,,,,,,,,,,,,,,,,,,,,,,,,,,,,,,,,,,,,,,,,,,,,,,,,,,,,,,,,,,,,,,,,,,,,,,
,,,,,772950,001,2025-03-15_00h31.52.114,Utility_discrimination_2024_2cat,2024.2.4,MacIntel,59.52380952,,,,,,,,2,"[0.5,0.5]","[0.707,0.707]",d,"[0.5,0.05999979575992709]","[0.5,0.9400002042400729]",199.2551,201.7195,1,s,1,0.9333,,0.012292737,0.481981574,0.469688837,201.723,201.723,0,63,63,63,1,-0.440000204,-0.440000204,shape_difference4,1,,TRUE,,intensity,0.1,0.05,0.7,0.3,0.82,20,400,1E-11,3.5,0.01,0.5,0.1,,,,,,,,,,,,,,,,,,,,,,,,,,,,,,,,,,,,,,,,,,,,,,,,,,,,,,,,,,,,,,,,,,,,,,,,,,,,,,,,,
,,,,,772950,001,2025-03-15_00h31.52.114,Utility_discrimination_2024_2cat,2024.2.4,MacIntel,59.52380952,,,,,,,,4,"[0.5,0.5]","[0,1]",s,"[0.6316355713052701,0.6316355713052701]","[0.36836442869472985,0.36836442869472985]",201.7239,204.1363,1,s,1,0.883,,-0.779061589,-0.241211791,0.537849798,204.1391,204.1391,0,64,64,64,1,0.186188927,0.186188927,shape_difference2,1,,TRUE,,intensity,0.1,0.05,0.7,0.3,0.82,20,400,1E-11,3.5,0.01,0.5,0.1,,,,,,,,,,,,,,,,,,,,,,,,,,,,,,,,,,,,,,,,,,,,,,,,,,,,,,,,,,,,,,,,,,,,,,,,,,,,,,,,,
,,,,,772950,001,2025-03-15_00h31.52.114,Utility_discrimination_2024_2cat,2024.2.4,MacIntel,59.52380952,,,,,,,,2,"[0.5,0.5]","[0.707,0.707]",s,"[0.5,0.0335558258797376]","[0.5,0.9664441741202624]",204.1401,206.4862,1,s,1,0.8173,,0.00881185,0.424946183,0.416134333,206.4899,206.4899,0,65,65,65,1,-0.466444174,-0.466444174,shape_difference4,1,,TRUE,,intensity,0.1,0.05,0.7,0.3,0.82,20,400,1E-11,3.5,0.01,0.5,0.1,,,,,,,,,,,,,,,,,,,,,,,,,,,,,,,,,,,,,,,,,,,,,,,,,,,,,,,,,,,,,,,,,,,,,,,,,,,,,,,,,
,,,,,772950,001,2025-03-15_00h31.52.114,Utility_discrimination_2024_2cat,2024.2.4,MacIntel,59.52380952,,,,,,,,0,"[0.5,0.5]","[1,0]",s,"[0.6179030697922965,0.6179030697922965]","[0.38209693020770347,0.38209693020770347]",206.4909,208.8192,1,s,1,0.799,,0.00833908,0.403772815,0.395433736,208.8227,208.8227,0,66,66,66,1,0.166765304,0.166765304,shape_difference2,1,,TRUE,,intensity,0.1,0.05,0.7,0.3,0.82,20,400,1E-11,3.5,0.01,0.5,0.1,,,,,,,,,,,,,,,,,,,,,,,,,,,,,,,,,,,,,,,,,,,,,,,,,,,,,,,,,,,,,,,,,,,,,,,,,,,,,,,,,
,,,,,772950,001,2025-03-15_00h31.52.114,Utility_discrimination_2024_2cat,2024.2.4,MacIntel,59.52380952,,,,,,,,1,"[0.5,0.5]","[0.924,0.383]",s,"[0.6618505732405339,0.5]","[0.33814942675946613,0.5]",208.8237,211.3019,0,s,0,0.9483,,0.005107105,0.420781648,0.415674543,211.305,211.305,0,67,67,67,1,0.161850573,0.161850573,shape_difference0,1,,TRUE,,intensity,0.1,0.05,0.7,0.3,0.82,20,400,1E-11,3.5,0.01,0.5,0.1,,,,,,,,,,,,,,,,,,,,,,,,,,,,,,,,,,,,,,,,,,,,,,,,,,,,,,,,,,,,,,,,,,,,,,,,,,,,,,,,,
,,,,,772950,001,2025-03-15_00h31.52.114,Utility_discrimination_2024_2cat,2024.2.4,MacIntel,59.52380952,,,,,,,,3,"[0.5,0.5]","[0.383,0.924]",d,"[0.6493747636469706,0.5619161628536685]","[0.35062523635302945,0.4380838371463315]",211.3059,213.7195,1,s,1,0.895,,-0.069380305,0.33045256,0.399832864,213.7225,213.7225,0,68,68,68,1,0.161661,0.161661,shape_difference1,1,,TRUE,,intensity,0.1,0.05,0.7,0.3,0.82,20,400,1E-11,3.5,0.01,0.5,0.1,,,,,,,,,,,,,,,,,,,,,,,,,,,,,,,,,,,,,,,,,,,,,,,,,,,,,,,,,,,,,,,,,,,,,,,,,,,,,,,,,
,,,,,772950,001,2025-03-15_00h31.52.114,Utility_discrimination_2024_2cat,2024.2.4,MacIntel,59.52380952,,,,,,,,0,"[0.5,0.5]","[1,0]",s,"[0.5360785392796826,0.5870406535102527]","[0.46392146072031737,0.4129593464897473]",213.7234,216.4018,0,s,0,1.1497,,0.050562603,0.542670305,0.492107703,216.405,216.4051,0,69,69,69,1,0.094199841,0.094199841,shape_difference3,1,,TRUE,,intensity,0.1,0.05,0.7,0.3,0.82,20,400,1E-11,3.5,0.01,0.5,0.1,,,,,,,,,,,,,,,,,,,,,,,,,,,,,,,,,,,,,,,,,,,,,,,,,,,,,,,,,,,,,,,,,,,,,,,,,,,,,,,,,
,,,,,772950,001,2025-03-15_00h31.52.114,Utility_discrimination_2024_2cat,2024.2.4,MacIntel,59.52380952,,,,,,,,4,"[0.5,0.5]","[0,1]",d,"[0.7463783035849119,0.5]","[0.25362169641508814,0.5]",216.406,219.2196,1,s,1,1.2823,,-0.797573468,-0.278899126,0.518674342,219.2227,219.2227,0,70,70,70,1,0.246378304,0.246378304,shape_difference0,1,,TRUE,,intensity,0.1,0.05,0.7,0.3,0.82,20,400,1E-11,3.5,0.01,0.5,0.1,,,,,,,,,,,,,,,,,,,,,,,,,,,,,,,,,,,,,,,,,,,,,,,,,,,,,,,,,,,,,,,,,,,,,,,,,,,,,,,,,
,,,,,772950,001,2025-03-15_00h31.52.114,Utility_discrimination_2024_2cat,2024.2.4,MacIntel,59.52380952,,,,,,,,1,"[0.5,0.5]","[0.924,0.383]",s,"[0.5,0.0017110158371279605]","[0.5,0.998288984162872]",219.2236,221.8688,1,d,1,1.1278,,0.002628629,0.370149291,0.367520662,221.8718,221.8718,0,71,71,71,1,-0.498288984,-0.498288984,shape_difference4,1,,TRUE,,intensity,0.1,0.05,0.7,0.3,0.82,20,400,1E-11,3.5,0.01,0.5,0.1,,,,,,,,,,,,,,,,,,,,,,,,,,,,,,,,,,,,,,,,,,,,,,,,,,,,,,,,,,,,,,,,,,,,,,,,,,,,,,,,,
,,,,,772950,001,2025-03-15_00h31.52.114,Utility_discrimination_2024_2cat,2024.2.4,MacIntel,59.52380952,,,,,,,,3,"[0.5,0.5]","[0.383,0.924]",d,"[0.6332904002931001,0.5552491594288499]","[0.36670959970689987,0.44475084057115005]",221.8727,224.486,1,s,1,1.0885,,0.003993739,0.432446026,0.428452288,224.4886,224.4886,0,72,72,72,1,0.14425368,0.14425368,shape_difference1,1,,TRUE,,intensity,0.1,0.05,0.7,0.3,0.82,20,400,1E-11,3.5,0.01,0.5,0.1,,,,,,,,,,,,,,,,,,,,,,,,,,,,,,,,,,,,,,,,,,,,,,,,,,,,,,,,,,,,,,,,,,,,,,,,,,,,,,,,,
,,,,,772950,001,2025-03-15_00h31.52.114,Utility_discrimination_2024_2cat,2024.2.4,MacIntel,59.52380952,,,,,,,,2,"[0.5,0.5]","[0.707,0.707]",s,"[0.5604513752533753,0.6458409157548793]","[0.4395486247466247,0.35415908424512066]",224.4896,226.885,0,s,0,0.8662,,0.006249244,0.374055383,0.367806139,226.8878,226.8878,0,73,73,73,1,0.157836489,0.157836489,shape_difference3,1,,TRUE,,intensity,0.1,0.05,0.7,0.3,0.82,20,400,1E-11,3.5,0.01,0.5,0.1,,,,,,,,,,,,,,,,,,,,,,,,,,,,,,,,,,,,,,,,,,,,,,,,,,,,,,,,,,,,,,,,,,,,,,,,,,,,,,,,,
,,,,,772950,001,2025-03-15_00h31.52.114,Utility_discrimination_2024_2cat,2024.2.4,MacIntel,59.52380952,,,,,,,,0,"[0.5,0.5]","[1,0]",d,"[0.6062656146077006,0.6062656146077006]","[0.3937343853922994,0.3937343853922994]",226.8888,229.3028,0,s,0,0.883,,0.03857756,0.491168022,0.452590463,229.3066,229.3066,0,74,74,74,1,0.150304971,0.150304971,shape_difference2,1,,TRUE,,intensity,0.1,0.05,0.7,0.3,0.82,20,400,1E-11,3.5,0.01,0.5,0.1,,,,,,,,,,,,,,,,,,,,,,,,,,,,,,,,,,,,,,,,,,,,,,,,,,,,,,,,,,,,,,,,,,,,,,,,,,,,,,,,,
,,,,,772950,001,2025-03-15_00h31.52.114,Utility_discrimination_2024_2cat,2024.2.4,MacIntel,59.52380952,,,,,,,,2,"[0.5,0.5]","[0.707,0.707]",d,"[0.7191227209257989,0.5]","[0.2808772790742011,0.5]",229.3076,231.5528,1,s,1,0.716,,0.04149933,0.501914829,0.460415499,231.5565,231.5566,0,75,75,75,1,0.219122721,0.219122721,shape_difference0,1,,TRUE,,intensity,0.1,0.05,0.7,0.3,0.82,20,400,1E-11,3.5,0.01,0.5,0.1,,,,,,,,,,,,,,,,,,,,,,,,,,,,,,,,,,,,,,,,,,,,,,,,,,,,,,,,,,,,,,,,,,,,,,,,,,,,,,,,,
,,,,,772950,001,2025-03-15_00h31.52.114,Utility_discrimination_2024_2cat,2024.2.4,MacIntel,59.52380952,,,,,,,,1,"[0.5,0.5]","[0.924,0.383]",s,"[0.6607865649672306,0.6607865649672306]","[0.3392134350327693,0.3392134350327693]",231.5575,233.835,1,s,1,0.7507,,-0.003694452,0.329686661,0.333381113,233.8375,233.8376,0,76,76,76,1,0.227420884,0.227420884,shape_difference2,1,,TRUE,,intensity,0.1,0.05,0.7,0.3,0.82,20,400,1E-11,3.5,0.01,0.5,0.1,,,,,,,,,,,,,,,,,,,,,,,,,,,,,,,,,,,,,,,,,,,,,,,,,,,,,,,,,,,,,,,,,,,,,,,,,,,,,,,,,
,,,,,772950,001,2025-03-15_00h31.52.114,Utility_discrimination_2024_2cat,2024.2.4,MacIntel,59.52380952,,,,,,,,4,"[0.5,0.5]","[0,1]",s,"[0.6177977029970938,0.5488274028656784]","[0.38220229700290625,0.4511725971343215]",233.8385,236.2193,1,s,1,0.8499,,-0.825856923,-0.311772,0.514084923,236.2221,236.2221,0,77,77,77,1,0.127486692,0.127486692,shape_difference1,1,,TRUE,,intensity,0.1,0.05,0.7,0.3,0.82,20,400,1E-11,3.5,0.01,0.5,0.1,,,,,,,,,,,,,,,,,,,,,,,,,,,,,,,,,,,,,,,,,,,,,,,,,,,,,,,,,,,,,,,,,,,,,,,,,,,,,,,,,
,,,,,772950,001,2025-03-15_00h31.52.114,Utility_discrimination_2024_2cat,2024.2.4,MacIntel,59.52380952,,,,,,,,3,"[0.5,0.5]","[0.383,0.924]",s,"[0.5,-0.026430620101685176]","[0.5,1.026430620101685]",236.2238,238.619,1,s,1,0.8779,,0.045681839,0.571681045,0.525999206,238.6218,238.6218,0,78,78,78,1,-0.52643062,-0.52643062,shape_difference4,1,,TRUE,,intensity,0.1,0.05,0.7,0.3,0.82,20,400,1E-11,3.5,0.01,0.5,0.1,,,,,,,,,,,,,,,,,,,,,,,,,,,,,,,,,,,,,,,,,,,,,,,,,,,,,,,,,,,,,,,,,,,,,,,,,,,,,,,,,
,,,,,772950,001,2025-03-15_00h31.52.114,Utility_discrimination_2024_2cat,2024.2.4,MacIntel,59.52380952,,,,,,,,0,"[0.5,0.5]","[1,0]",s,"[0.5985959169914118,0.7378658676241892]","[0.40140408300858826,0.26213413237581085]",238.6228,241.0016,1,s,1,0.8488,,0.030281022,0.448214464,0.417933442,241.005,241.005,0,79,79,79,1,0.257430593,0.257430593,shape_difference3,1,,TRUE,,intensity,0.1,0.05,0.7,0.3,0.82,20,400,1E-11,3.5,0.01,0.5,0.1,,,,,,,,,,,,,,,,,,,,,,,,,,,,,,,,,,,,,,,,,,,,,,,,,,,,,,,,,,,,,,,,,,,,,,,,,,,,,,,,,
,,,,,772950,001,2025-03-15_00h31.52.114,Utility_discrimination_2024_2cat,2024.2.4,MacIntel,59.52380952,,,,,,,,4,"[0.5,0.5]","[0,1]",s,"[0.6946139261439086,0.5]","[0.3053860738560914,0.5]",241.0062,243.7026,1,d,1,1.1664,,-0.848016174,-0.337659314,0.51035686,243.706,243.706,0,80,80,80,1,0.194613926,0.194613926,shape_difference0,1,,TRUE,,intensity,0.1,0.05,0.7,0.3,0.82,20,400,1E-11,3.5,0.01,0.5,0.1,,,,,,,,,,,,,,,,,,,,,,,,,,,,,,,,,,,,,,,,,,,,,,,,,,,,,,,,,,,,,,,,,,,,,,,,,,,,,,,,,
,,,,,772950,001,2025-03-15_00h31.52.114,Utility_discrimination_2024_2cat,2024.2.4,MacIntel,59.52380952,,,,,,,,3,"[0.5,0.5]","[0.383,0.924]",d,"[0.5,-0.05098213323522749]","[0.5,1.0509821332352276]",243.707,246.1518,1,s,1,0.9166,,0.037553003,0.505509189,0.467956187,246.1541,246.1543,0,81,81,81,1,-0.550982133,-0.550982133,shape_difference4,1,,TRUE,,intensity,0.1,0.05,0.7,0.3,0.82,20,400,1E-11,3.5,0.01,0.5,0.1,,,,,,,,,,,,,,,,,,,,,,,,,,,,,,,,,,,,,,,,,,,,,,,,,,,,,,,,,,,,,,,,,,,,,,,,,,,,,,,,,
,,,,,772950,001,2025-03-15_00h31.52.114,Utility_discrimination_2024_2cat,2024.2.4,MacIntel,59.52380952,,,,,,,,2,"[0.5,0.5]","[0.707,0.707]",s,"[0.5876383239407891,0.7114303167657678]","[0.4123616760592109,0.2885696832342321]",246.1552,248.6526,1,d,1,0.9672,,0.032297927,0.462175392,0.429877465,248.6564,248.6564,0,82,82,82,1,0.228820689,0.228820689,shape_difference3,1,,TRUE,,intensity,0.1,0.05,0.7,0.3,0.82,20,400,1E-11,3.5,0.01,0.5,0.1,,,,,,,,,,,,,,,,,,,,,,,,,,,,,,,,,,,,,,,,,,,,,,,,,,,,,,,,,,,,,,,,,,,,,,,,,,,,,,,,,
,,,,,772950,001,2025-03-15_00h31.52.114,Utility_discrimination_2024_2cat,2024.2.4,MacIntel,59.52380952,,,,,,,,1,"[0.5,0.5]","[0.924,0.383]",d,"[0.6409038402238494,0.6409038402238494]","[0.3590961597761506,0.3590961597761506]",248.6574,251.3193,0,s,0,1.1331,,-0.024897116,0.292079762,0.316976877,251.3212,251.3212,0,83,83,83,1,0.199298218,0.199298218,shape_difference2,1,,TRUE,,intensity,0.1,0.05,0.7,0.3,0.82,20,400,1E-11,3.5,0.01,0.5,0.1,,,,,,,,,,,,,,,,,,,,,,,,,,,,,,,,,,,,,,,,,,,,,,,,,,,,,,,,,,,,,,,,,,,,,,,,,,,,,,,,,
,,,,,772950,001,2025-03-15_00h31.52.114,Utility_discrimination_2024_2cat,2024.2.4,MacIntel,59.52380952,,,,,,,,2,"[0.5,0.5]","[0.707,0.707]",d,"[0.6010193843215674,0.5418727534579657]","[0.3989806156784326,0.4581272465420343]",251.3222,253.7192,1,s,1,0.8776,,0.104890195,0.557407012,0.452516818,253.7219,253.722,0,84,84,84,1,0.109328338,0.109328338,shape_difference1,1,,TRUE,,intensity,0.1,0.05,0.7,0.3,0.82,20,400,1E-11,3.5,0.01,0.5,0.1,,,,,,,,,,,,,,,,,,,,,,,,,,,,,,,,,,,,,,,,,,,,,,,,,,,,,,,,,,,,,,,,,,,,,,,,,,,,,,,,,
,,,,,772950,001,2025-03-15_00h31.52.114,Utility_discrimination_2024_2cat,2024.2.4,MacIntel,59.52380952,,,,,,,,4,"[0.5,0.5]","[0,1]",s,"[0.690031408724244,0.690031408724244]","[0.30996859127575604,0.30996859127575604]",253.723,256.035,1,s,1,0.7873,,-0.873461133,-0.368757096,0.504704037,256.0374,256.0375,0,85,85,85,1,0.268785585,0.268785585,shape_difference2,1,,TRUE,,intensity,0.1,0.05,0.7,0.3,0.82,20,400,1E-11,3.5,0.01,0.5,0.1,,,,,,,,,,,,,,,,,,,,,,,,,,,,,,,,,,,,,,,,,,,,,,,,,,,,,,,,,,,,,,,,,,,,,,,,,,,,,,,,,
,,,,,772950,001,2025-03-15_00h31.52.114,Utility_discrimination_2024_2cat,2024.2.4,MacIntel,59.52380952,,,,,,,,3,"[0.5,0.5]","[0.383,0.924]",s,"[0.5,-0.07834298263666717]","[0.5,1.0783429826366673]",256.0386,258.6693,1,d,1,1.0994,,0.029112203,0.464825682,0.435713479,258.6723,258.6723,0,86,86,86,1,-0.578342983,-0.578342983,shape_difference4,1,,TRUE,,intensity,0.1,0.05,0.7,0.3,0.82,20,400,1E-11,3.5,0.01,0.5,0.1,,,,,,,,,,,,,,,,,,,,,,,,,,,,,,,,,,,,,,,,,,,,,,,,,,,,,,,,,,,,,,,,,,,,,,,,,,,,,,,,,
,,,,,772950,001,2025-03-15_00h31.52.114,Utility_discrimination_2024_2cat,2024.2.4,MacIntel,59.52380952,,,,,,,,0,"[0.5,0.5]","[1,0]",d,"[0.5764741415503116,0.684496362382475]","[0.4235258584496884,0.315503637617525]",258.6734,261.1693,1,d,1,0.966,,0.024386232,0.394615979,0.370229747,261.1723,261.1723,0,87,87,87,1,0.199671388,0.199671388,shape_difference3,1,,TRUE,,intensity,0.1,0.05,0.7,0.3,0.82,20,400,1E-11,3.5,0.01,0.5,0.1,,,,,,,,,,,,,,,,,,,,,,,,,,,,,,,,,,,,,,,,,,,,,,,,,,,,,,,,,,,,,,,,,,,,,,,,,,,,,,,,,
,,,,,772950,001,2025-03-15_00h31.52.114,Utility_discrimination_2024_2cat,2024.2.4,MacIntel,59.52380952,,,,,,,,1,"[0.5,0.5]","[0.924,0.383]",d,"[0.6811050419186018,0.5]","[0.3188949580813982,0.5]",261.1734,263.7525,0,s,0,1.0609,,-0.040266621,0.270857967,0.311124587,263.7555,263.7555,0,88,88,88,1,0.181105042,0.181105042,shape_difference0,1,,TRUE,,intensity,0.1,0.05,0.7,0.3,0.82,20,400,1E-11,3.5,0.01,0.5,0.1,,,,,,,,,,,,,,,,,,,,,,,,,,,,,,,,,,,,,,,,,,,,,,,,,,,,,,,,,,,,,,,,,,,,,,,,,,,,,,,,,
,,,,,772950,001,2025-03-15_00h31.52.114,Utility_discrimination_2024_2cat,2024.2.4,MacIntel,59.52380952,,,,,,,,2,"[0.5,0.5]","[0.707,0.707]",d,"[0.5870515692901103,0.5360830638940608]","[0.41294843070988974,0.46391693610593915]",263.7565,266.0191,0,s,0,0.7346,,0.102234818,0.495174155,0.392939338,266.0214,266.0214,0,89,89,89,1,0.094211655,0.094211655,shape_difference1,1,,TRUE,,intensity,0.1,0.05,0.7,0.3,0.82,20,400,1E-11,3.5,0.01,0.5,0.1,,,,,,,,,,,,,,,,,,,,,,,,,,,,,,,,,,,,,,,,,,,,,,,,,,,,,,,,,,,,,,,,,,,,,,,,,,,,,,,,,
,,,,,772950,001,2025-03-15_00h31.52.114,Utility_discrimination_2024_2cat,2024.2.4,MacIntel,59.52380952,,,,,,,,3,"[0.5,0.5]","[0.383,0.924]",d,"[0.6751349198122324,0.6751349198122324]","[0.3248650801877676,0.3248650801877676]",266.0225,268.369,1,d,1,0.8166,,0.023174153,0.41028489,0.387110738,268.3725,268.3725,0,90,90,90,1,0.247715587,0.247715587,shape_difference2,1,,TRUE,,intensity,0.1,0.05,0.7,0.3,0.82,20,400,1E-11,3.5,0.01,0.5,0.1,,,,,,,,,,,,,,,,,,,,,,,,,,,,,,,,,,,,,,,,,,,,,,,,,,,,,,,,,,,,,,,,,,,,,,,,,,,,,,,,,
,,,,,772950,001,2025-03-15_00h31.52.114,Utility_discrimination_2024_2cat,2024.2.4,MacIntel,59.52380952,,,,,,,,0,"[0.5,0.5]","[1,0]",d,"[0.5705941382256504,0.6703106624556162]","[0.42940586177434953,0.3296893375443838]",268.3735,270.7027,1,d,1,0.7997,,0.100199025,0.496543619,0.396344594,270.7055,270.7055,0,91,91,91,1,0.184318899,0.184318899,shape_difference3,1,,TRUE,,intensity,0.1,0.05,0.7,0.3,0.82,20,400,1E-11,3.5,0.01,0.5,0.1,,,,,,,,,,,,,,,,,,,,,,,,,,,,,,,,,,,,,,,,,,,,,,,,,,,,,,,,,,,,,,,,,,,,,,,,,,,,,,,,,
,,,,,772950,001,2025-03-15_00h31.52.114,Utility_discrimination_2024_2cat,2024.2.4,MacIntel,59.52380952,,,,,,,,4,"[0.5,0.5]","[0,1]",d,"[0.7422639442676513,0.5]","[0.2577360557323487,0.5]",270.7065,272.9193,1,s,1,0.684,,-0.890526426,-0.404878559,0.485647867,272.9224,272.9224,0,92,92,92,1,0.242263944,0.242263944,shape_difference0,1,,TRUE,,intensity,0.1,0.05,0.7,0.3,0.82,20,400,1E-11,3.5,0.01,0.5,0.1,,,,,,,,,,,,,,,,,,,,,,,,,,,,,,,,,,,,,,,,,,,,,,,,,,,,,,,,,,,,,,,,,,,,,,,,,,,,,,,,,
,,,,,772950,001,2025-03-15_00h31.52.114,Utility_discrimination_2024_2cat,2024.2.4,MacIntel,59.52380952,,,,,,,,1,"[0.5,0.5]","[0.924,0.383]",s,"[0.5,-0.10833449655479521]","[0.5,1.1083344965547952]",272.9234,275.5015,0,d,0,1.0605,,0.007453728,0.332360782,0.324907053,275.5038,275.5038,0,93,93,93,1,-0.608334497,-0.608334497,shape_difference4,1,,TRUE,,intensity,0.1,0.05,0.7,0.3,0.82,20,400,1E-11,3.5,0.01,0.5,0.1,,,,,,,,,,,,,,,,,,,,,,,,,,,,,,,,,,,,,,,,,,,,,,,,,,,,,,,,,,,,,,,,,,,,,,,,,,,,,,,,,
,,,,,772950,001,2025-03-15_00h31.52.114,Utility_discrimination_2024_2cat,2024.2.4,MacIntel,59.52380952,,,,,,,,2,"[0.5,0.5]","[0.707,0.707]",s,"[0.6294504795408805,0.5536575039655381]","[0.3705495204591195,0.44634249603446186]",275.5048,277.9526,1,s,1,0.9163,,0.092274166,0.461935337,0.369661172,277.9556,277.9557,0,94,94,94,1,0.140097922,0.140097922,shape_difference1,1,,TRUE,,intensity,0.1,0.05,0.7,0.3,0.82,20,400,1E-11,3.5,0.01,0.5,0.1,,,,,,,,,,,,,,,,,,,,,,,,,,,,,,,,,,,,,,,,,,,,,,,,,,,,,,,,,,,,,,,,,,,,,,,,,,,,,,,,,
,,,,,772950,001,2025-03-15_00h31.52.114,Utility_discrimination_2024_2cat,2024.2.4,MacIntel,59.52380952,,,,,,,,3,"[0.5,0.5]","[0.383,0.924]",s,"[0.6614124029882581,0.6614124029882581]","[0.3385875970117419,0.3385875970117419]",277.9566,280.4183,1,s,1,0.9328,,0.018884896,0.374410747,0.35552585,280.4211,280.4211,0,95,95,95,1,0.228306086,0.228306086,shape_difference2,1,,TRUE,,intensity,0.1,0.05,0.7,0.3,0.82,20,400,1E-11,3.5,0.01,0.5,0.1,,,,,,,,,,,,,,,,,,,,,,,,,,,,,,,,,,,,,,,,,,,,,,,,,,,,,,,,,,,,,,,,,,,,,,,,,,,,,,,,,
,,,,,772950,001,2025-03-15_00h31.52.114,Utility_discrimination_2024_2cat,2024.2.4,MacIntel,59.52380952,,,,,,,,1,"[0.5,0.5]","[0.924,0.383]",s,"[0.5658152056741039,0.6587813317046266]","[0.4341847943258961,0.3412186682953734]",280.4223,282.6693,1,s,1,0.716,,0.005368624,0.294969577,0.289600952,282.6724,282.6724,0,96,96,96,1,0.171841268,0.171841268,shape_difference3,1,,TRUE,,intensity,0.1,0.05,0.7,0.3,0.82,20,400,1E-11,3.5,0.01,0.5,0.1,,,,,,,,,,,,,,,,,,,,,,,,,,,,,,,,,,,,,,,,,,,,,,,,,,,,,,,,,,,,,,,,,,,,,,,,,,,,,,,,,
,,,,,772950,001,2025-03-15_00h31.52.114,Utility_discrimination_2024_2cat,2024.2.4,MacIntel,59.52380952,,,,,,,,0,"[0.5,0.5]","[1,0]",s,"[0.61635833890444,0.5482307833337668]","[0.38364166109555997,0.45176921666623315]",282.6734,284.9525,0,s,0,0.7612,,0.077838237,0.461578565,0.383740328,284.9547,284.9547,0,97,97,97,1,0.125928938,0.125928938,shape_difference1,1,,TRUE,,intensity,0.1,0.05,0.7,0.3,0.82,20,400,1E-11,3.5,0.01,0.5,0.1,,,,,,,,,,,,,,,,,,,,,,,,,,,,,,,,,,,,,,,,,,,,,,,,,,,,,,,,,,,,,,,,,,,,,,,,,,,,,,,,,
,,,,,772950,001,2025-03-15_00h31.52.114,Utility_discrimination_2024_2cat,2024.2.4,MacIntel,59.52380952,,,,,,,,4,"[0.5,0.5]","[0,1]",d,"[0.721141485715016,0.5]","[0.278858514284984,0.5]",284.9558,287.2689,1,s,1,0.7929,,-0.710617741,-0.32839546,0.382222281,287.2703,287.2704,0,98,98,98,1,0.221141486,0.221141486,shape_difference0,1,,TRUE,,intensity,0.1,0.05,0.7,0.3,0.82,20,400,1E-11,3.5,0.01,0.5,0.1,,,,,,,,,,,,,,,,,,,,,,,,,,,,,,,,,,,,,,,,,,,,,,,,,,,,,,,,,,,,,,,,,,,,,,,,,,,,,,,,,
,,,,,772950,001,2025-03-15_00h31.52.114,Utility_discrimination_2024_2cat,2024.2.4,MacIntel,59.52380952,,,,,,,,3,"[0.5,0.5]","[0.383,0.924]",s,"[0.5,-0.025250375345479026]","[0.5,1.025250375345479]",287.2716,289.5849,1,s,1,0.7864,,0.015705361,0.335678926,0.319973565,289.5884,289.5884,0,99,99,99,1,-0.525250375,-0.525250375,shape_difference4,1,,TRUE,,intensity,0.1,0.05,0.7,0.3,0.82,20,400,1E-11,3.5,0.01,0.5,0.1,,,,,,,,,,,,,,,,,,,,,,,,,,,,,,,,,,,,,,,,,,,,,,,,,,,,,,,,,,,,,,,,,,,,,,,,,,,,,,,,,
,,,,,772950,001,2025-03-15_00h31.52.114,Utility_discrimination_2024_2cat,2024.2.4,MacIntel,59.52380952,,,,,,,,0,"[0.5,0.5]","[1,0]",s,"[0.5617664826550927,0.6490136552827823]","[0.4382335173449073,0.3509863447172176]",289.5893,292.069,1,s,1,0.9609,,0.0610488,0.412886065,0.351837264,292.0709,292.0709,0,100,100,100,1,0.16127019,0.16127019,shape_difference3,1,,TRUE,,intensity,0.1,0.05,0.7,0.3,0.82,20,400,1E-11,3.5,0.01,0.5,0.1,,,,,,,,,,,,,,,,,,,,,,,,,,,,,,,,,,,,,,,,,,,,,,,,,,,,,,,,,,,,,,,,,,,,,,,,,,,,,,,,,
,,,,,772950,001,2025-03-15_00h31.52.114,Utility_discrimination_2024_2cat,2024.2.4,MacIntel,59.52380952,,,,,,,,4,"[0.5,0.5]","[0,1]",s,"[0.6991385010420288,0.5]","[0.3008614989579712,0.5]",292.0719,294.3859,1,s,1,0.7829,,-0.728690314,-0.356681044,0.37200927,294.3891,294.3891,0,101,101,101,1,0.199138501,0.199138501,shape_difference0,1,,TRUE,,intensity,0.1,0.05,0.7,0.3,0.82,20,400,1E-11,3.5,0.01,0.5,0.1,,,,,,,,,,,,,,,,,,,,,,,,,,,,,,,,,,,,,,,,,,,,,,,,,,,,,,,,,,,,,,,,,,,,,,,,,,,,,,,,,
,,,,,772950,001,2025-03-15_00h31.52.114,Utility_discrimination_2024_2cat,2024.2.4,MacIntel,59.52380952,,,,,,,,2,"[0.5,0.5]","[0.707,0.707]",s,"[0.5,-0.0416174465872986]","[0.5,1.0416174465872987]",294.3903,296.6858,1,d,1,0.7771,,0.071836512,0.415946059,0.344109547,296.6875,296.6875,0,102,102,102,1,-0.541617447,-0.541617447,shape_difference4,1,,TRUE,,intensity,0.1,0.05,0.7,0.3,0.82,20,400,1E-11,3.5,0.01,0.5,0.1,,,,,,,,,,,,,,,,,,,,,,,,,,,,,,,,,,,,,,,,,,,,,,,,,,,,,,,,,,,,,,,,,,,,,,,,,,,,,,,,,
,,,,,772950,001,2025-03-15_00h31.52.114,Utility_discrimination_2024_2cat,2024.2.4,MacIntel,59.52380952,,,,,,,,1,"[0.5,0.5]","[0.924,0.383]",d,"[0.6467546269688416,0.6467546269688416]","[0.3532453730311584,0.3532453730311584]",296.6886,299.0015,1,s,1,0.7861,,0.013891738,0.365811697,0.351919959,299.0041,299.0041,0,103,103,103,1,0.20757373,0.20757373,shape_difference2,1,,TRUE,,intensity,0.1,0.05,0.7,0.3,0.82,20,400,1E-11,3.5,0.01,0.5,0.1,,,,,,,,,,,,,,,,,,,,,,,,,,,,,,,,,,,,,,,,,,,,,,,,,,,,,,,,,,,,,,,,,,,,,,,,,,,,,,,,,
,,,,,772950,001,2025-03-15_00h31.52.114,Utility_discrimination_2024_2cat,2024.2.4,MacIntel,59.52380952,,,,,,,,1,"[0.5,0.5]","[0.924,0.383]",s,"[0.6473063787053404,0.5610588128183391]","[0.35269362129465964,0.43894118718166086]",299.0051,301.2691,0,s,0,0.7448,,0.052050251,0.482707606,0.430657355,301.2713,301.2713,0,104,104,104,1,0.159422488,0.159422488,shape_difference1,1,,TRUE,,intensity,0.1,0.05,0.7,0.3,0.82,20,400,1E-11,3.5,0.01,0.5,0.1,,,,,,,,,,,,,,,,,,,,,,,,,,,,,,,,,,,,,,,,,,,,,,,,,,,,,,,,,,,,,,,,,,,,,,,,,,,,,,,,,
,,,,,772950,001,2025-03-15_00h31.52.114,Utility_discrimination_2024_2cat,2024.2.4,MacIntel,59.52380952,,,,,,,,0,"[0.5,0.5]","[1,0]",d,"[0.703320528609363,0.5842767991963053]","[0.296679471390637,0.41572320080369474]",301.2723,303.2692,1,s,1,0.4779,,0.048937101,0.381158502,0.332221401,303.2713,303.2713,0,105,105,105,1,0.220043862,0.220043862,shape_difference1,1,,TRUE,,intensity,0.1,0.05,0.7,0.3,0.82,20,400,1E-11,3.5,0.01,0.5,0.1,,,,,,,,,,,,,,,,,,,,,,,,,,,,,,,,,,,,,,,,,,,,,,,,,,,,,,,,,,,,,,,,,,,,,,,,,,,,,,,,,
,,,,,772950,001,2025-03-15_00h31.52.114,Utility_discrimination_2024_2cat,2024.2.4,MacIntel,59.52380952,,,,,,,,3,"[0.5,0.5]","[0.383,0.924]",s,"[0.6881374373233229,0.5]","[0.3118625626766771,0.5]",303.2728,305.2693,0,s,0,0.467,,0.013289358,0.296153792,0.282864434,305.2723,305.2724,0,106,106,106,1,0.188137437,0.188137437,shape_difference0,1,,TRUE,,intensity,0.1,0.05,0.7,0.3,0.82,20,400,1E-11,3.5,0.01,0.5,0.1,,,,,,,,,,,,,,,,,,,,,,,,,,,,,,,,,,,,,,,,,,,,,,,,,,,,,,,,,,,,,,,,,,,,,,,,,,,,,,,,,
,,,,,772950,001,2025-03-15_00h31.52.114,Utility_discrimination_2024_2cat,2024.2.4,MacIntel,59.52380952,,,,,,,,2,"[0.5,0.5]","[0.707,0.707]",d,"[0.5581783162133962,0.6403570866349297]","[0.4418216837866038,0.3596429133650703]",305.2735,307.3858,1,s,1,0.5831,,0.0571489,0.384145196,0.326996296,307.3888,307.3888,0,107,107,107,1,0.151901609,0.151901609,shape_difference3,1,,TRUE,,intensity,0.1,0.05,0.7,0.3,0.82,20,400,1E-11,3.5,0.01,0.5,0.1,,,,,,,,,,,,,,,,,,,,,,,,,,,,,,,,,,,,,,,,,,,,,,,,,,,,,,,,,,,,,,,,,,,,,,,,,,,,,,,,,
,,,,,772950,001,2025-03-15_00h31.52.114,Utility_discrimination_2024_2cat,2024.2.4,MacIntel,59.52380952,,,,,,,,4,"[0.5,0.5]","[0,1]",s,"[0.6361597453780365,0.6361597453780365]","[0.3638402546219635,0.3638402546219635]",307.3899,309.5525,1,s,1,0.6337,,-0.741858407,-0.396541351,0.345317057,309.5548,309.5556,0,108,108,108,1,0.192588042,0.192588042,shape_difference2,1,,TRUE,,intensity,0.1,0.05,0.7,0.3,0.82,20,400,1E-11,3.5,0.01,0.5,0.1,,,,,,,,,,,,,,,,,,,,,,,,,,,,,,,,,,,,,,,,,,,,,,,,,,,,,,,,,,,,,,,,,,,,,,,,,,,,,,,,,
,,,,,772950,001,2025-03-15_00h31.52.114,Utility_discrimination_2024_2cat,2024.2.4,MacIntel,59.52380952,,,,,,,,4,"[0.5,0.5]","[0,1]",s,"[0.5,-0.05651805060796855]","[0.5,1.0565180506079686]",309.5566,311.7524,1,d,1,0.6663,,-0.757331733,-0.410152205,0.347179528,311.7555,311.7555,0,109,109,109,1,-0.556518051,-0.556518051,shape_difference4,1,,TRUE,,intensity,0.1,0.05,0.7,0.3,0.82,20,400,1E-11,3.5,0.01,0.5,0.1,,,,,,,,,,,,,,,,,,,,,,,,,,,,,,,,,,,,,,,,,,,,,,,,,,,,,,,,,,,,,,,,,,,,,,,,,,,,,,,,,
,,,,,772950,001,2025-03-15_00h31.52.114,Utility_discrimination_2024_2cat,2024.2.4,MacIntel,59.52380952,,,,,,,,3,"[0.5,0.5]","[0.383,0.924]",d,"[0.5,-0.07266370806351008]","[0.5,1.07266370806351]",311.7565,314.0025,1,d,1,0.7162,,0.011410446,0.282176879,0.270766433,314.0054,314.0055,0,110,110,110,1,-0.572663708,-0.572663708,shape_difference4,1,,TRUE,,intensity,0.1,0.05,0.7,0.3,0.82,20,400,1E-11,3.5,0.01,0.5,0.1,,,,,,,,,,,,,,,,,,,,,,,,,,,,,,,,,,,,,,,,,,,,,,,,,,,,,,,,,,,,,,,,,,,,,,,,,,,,,,,,,
,,,,,772950,001,2025-03-15_00h31.52.114,Utility_discrimination_2024_2cat,2024.2.4,MacIntel,59.52380952,,,,,,,,1,"[0.5,0.5]","[0.924,0.383]",d,"[0.554848403548233,0.6323235636516116]","[0.44515159645176705,0.3676764363483884]",314.0065,316.219,0,s,0,0.6827,,0.040943508,0.438396796,0.397453288,316.2215,316.2216,0,111,111,111,1,0.14320732,0.14320732,shape_difference3,1,,TRUE,,intensity,0.1,0.05,0.7,0.3,0.82,20,400,1E-11,3.5,0.01,0.5,0.1,,,,,,,,,,,,,,,,,,,,,,,,,,,,,,,,,,,,,,,,,,,,,,,,,,,,,,,,,,,,,,,,,,,,,,,,,,,,,,,,,
,,,,,772950,001,2025-03-15_00h31.52.114,Utility_discrimination_2024_2cat,2024.2.4,MacIntel,59.52380952,,,,,,,,2,"[0.5,0.5]","[0.707,0.707]",d,"[0.6816576569997553,0.5752974920247904]","[0.31834234300024467,0.42470250797520964]",316.2226,318.3692,1,s,1,0.6168,,0.046359196,0.357543548,0.311184352,318.3725,318.3725,0,112,112,112,1,0.196599196,0.196599196,shape_difference1,1,,TRUE,,intensity,0.1,0.05,0.7,0.3,0.82,20,400,1E-11,3.5,0.01,0.5,0.1,,,,,,,,,,,,,,,,,,,,,,,,,,,,,,,,,,,,,,,,,,,,,,,,,,,,,,,,,,,,,,,,,,,,,,,,,,,,,,,,,
,,,,,772950,001,2025-03-15_00h31.52.114,Utility_discrimination_2024_2cat,2024.2.4,MacIntel,59.52380952,,,,,,,,0,"[0.5,0.5]","[1,0]",s,"[0.6295588027474595,0.6295588027474595]","[0.3704411972525405,0.3704411972525405]",318.3736,320.8525,1,d,1,0.9498,,0.105932927,0.46461144,0.358678513,320.8549,320.8549,0,113,113,113,1,0.183251489,0.183251489,shape_difference2,1,,TRUE,,intensity,0.1,0.05,0.7,0.3,0.82,20,400,1E-11,3.5,0.01,0.5,0.1,,,,,,,,,,,,,,,,,,,,,,,,,,,,,,,,,,,,,,,,,,,,,,,,,,,,,,,,,,,,,,,,,,,,,,,,,,,,,,,,,
,,,,,772950,001,2025-03-15_00h31.52.114,Utility_discrimination_2024_2cat,2024.2.4,MacIntel,59.52380952,,,,,,,,1,"[0.5,0.5]","[0.924,0.383]",d,"[0.7369997608176163,0.5]","[0.2630002391823837,0.5]",320.856,323.1357,1,s,1,0.7527,,0.033011138,0.390692691,0.357681553,323.1388,323.1388,0,114,114,114,1,0.236999761,0.236999761,shape_difference0,1,,TRUE,,intensity,0.1,0.05,0.7,0.3,0.82,20,400,1E-11,3.5,0.01,0.5,0.1,,,,,,,,,,,,,,,,,,,,,,,,,,,,,,,,,,,,,,,,,,,,,,,,,,,,,,,,,,,,,,,,,,,,,,,,,,,,,,,,,
,,,,,772950,001,2025-03-15_00h31.52.114,Utility_discrimination_2024_2cat,2024.2.4,MacIntel,59.52380952,,,,,,,,4,"[0.5,0.5]","[0,1]",s,"[0.6704283707837742,0.5706429285824518]","[0.3295716292162259,0.4293570714175482]",323.1405,325.3191,1,s,1,0.6494,,-0.768492505,-0.423893964,0.344598542,325.3227,325.3228,0,115,115,115,1,0.184446289,0.184446289,shape_difference1,1,,TRUE,,intensity,0.1,0.05,0.7,0.3,0.82,20,400,1E-11,3.5,0.01,0.5,0.1,,,,,,,,,,,,,,,,,,,,,,,,,,,,,,,,,,,,,,,,,,,,,,,,,,,,,,,,,,,,,,,,,,,,,,,,,,,,,,,,,
,,,,,772950,001,2025-03-15_00h31.52.114,Utility_discrimination_2024_2cat,2024.2.4,MacIntel,59.52380952,,,,,,,,0,"[0.5,0.5]","[1,0]",s,"[0.5,-0.09089849399262573]","[0.5,1.0908984939926256]",325.3238,327.6357,1,d,1,0.7831,,0.103816125,0.421947369,0.318131244,327.638,327.638,0,116,116,116,1,-0.590898494,-0.590898494,shape_difference4,1,,TRUE,,intensity,0.1,0.05,0.7,0.3,0.82,20,400,1E-11,3.5,0.01,0.5,0.1,,,,,,,,,,,,,,,,,,,,,,,,,,,,,,,,,,,,,,,,,,,,,,,,,,,,,,,,,,,,,,,,,,,,,,,,,,,,,,,,,
,,,,,772950,001,2025-03-15_00h31.52.114,Utility_discrimination_2024_2cat,2024.2.4,MacIntel,59.52380952,,,,,,,,3,"[0.5,0.5]","[0.383,0.924]",d,"[0.7194338267393519,0.5]","[0.2805661732606481,0.5]",327.6392,329.9681,1,s,1,0.7997,,0.019999565,0.305234768,0.285235203,329.9718,329.9718,0,117,117,117,1,0.219433827,0.219433827,shape_difference0,1,,TRUE,,intensity,0.1,0.05,0.7,0.3,0.82,20,400,1E-11,3.5,0.01,0.5,0.1,,,,,,,,,,,,,,,,,,,,,,,,,,,,,,,,,,,,,,,,,,,,,,,,,,,,,,,,,,,,,,,,,,,,,,,,,,,,,,,,,
,,,,,772950,001,2025-03-15_00h31.52.114,Utility_discrimination_2024_2cat,2024.2.4,MacIntel,59.52380952,,,,,,,,2,"[0.5,0.5]","[0.707,0.707]",s,"[0.5625423760495877,0.6508855234198929]","[0.4374576239504123,0.3491144765801071]",329.9728,332.4357,1,d,1,0.9335,,0.038266041,0.323252611,0.28498657,332.4384,332.4384,0,118,118,118,1,0.163296021,0.163296021,shape_difference3,1,,TRUE,,intensity,0.1,0.05,0.7,0.3,0.82,20,400,1E-11,3.5,0.01,0.5,0.1,,,,,,,,,,,,,,,,,,,,,,,,,,,,,,,,,,,,,,,,,,,,,,,,,,,,,,,,,,,,,,,,,,,,,,,,,,,,,,,,,
,,,,,772950,001,2025-03-15_00h31.52.114,Utility_discrimination_2024_2cat,2024.2.4,MacIntel,59.52380952,,,,,,,,0,"[0.5,0.5]","[1,0]",d,"[0.6241883813084819,0.6241883813084819]","[0.37581161869151813,0.37581161869151813]",332.4395,334.8858,1,d,1,0.9176,,0.101898249,0.388230421,0.286332172,334.8889,334.889,0,119,119,119,1,0.175655419,0.175655419,shape_difference2,1,,TRUE,,intensity,0.1,0.05,0.7,0.3,0.82,20,400,1E-11,3.5,0.01,0.5,0.1,,,,,,,,,,,,,,,,,,,,,,,,,,,,,,,,,,,,,,,,,,,,,,,,,,,,,,,,,,,,,,,,,,,,,,,,,,,,,,,,,
,,,,,772950,001,2025-03-15_00h31.52.114,Utility_discrimination_2024_2cat,2024.2.4,MacIntel,59.52380952,,,,,,,,2,"[0.5,0.5]","[0.707,0.707]",d,"[0.7003914548655161,0.5]","[0.29960854513448393,0.5]",334.89,337.1351,1,s,1,0.7167,,0.03207682,0.296045291,0.263968471,337.1376,337.1376,0,120,120,120,1,0.200391455,0.200391455,shape_difference0,1,,TRUE,,intensity,0.1,0.05,0.7,0.3,0.82,20,400,1E-11,3.5,0.01,0.5,0.1,,,,,,,,,,,,,,,,,,,,,,,,,,,,,,,,,,,,,,,,,,,,,,,,,,,,,,,,,,,,,,,,,,,,,,,,,,,,,,,,,
,,,,,772950,001,2025-03-15_00h31.52.114,Utility_discrimination_2024_2cat,2024.2.4,MacIntel,59.52380952,,,,,,,,3,"[0.5,0.5]","[0.383,0.924]",s,"[0.6196922146359661,0.6196922146359661]","[0.38030778536403387,0.38030778536403387]",337.1388,339.5359,0,s,0,0.8706,,0.017156645,0.289677271,0.272520626,339.5391,339.5392,0,121,121,121,1,0.169295919,0.169295919,shape_difference2,1,,TRUE,,intensity,0.1,0.05,0.7,0.3,0.82,20,400,1E-11,3.5,0.01,0.5,0.1,,,,,,,,,,,,,,,,,,,,,,,,,,,,,,,,,,,,,,,,,,,,,,,,,,,,,,,,,,,,,,,,,,,,,,,,,,,,,,,,,
,,,,,772950,001,2025-03-15_00h31.52.114,Utility_discrimination_2024_2cat,2024.2.4,MacIntel,59.52380952,,,,,,,,4,"[0.5,0.5]","[0,1]",d,"[0.5597193973174843,0.6440749950949232]","[0.4402806026825156,0.3559250049050769]",339.5401,342.686,1,d,1,1.628,,-0.776717551,-0.441657943,0.335059607,342.6882,342.6882,0,122,122,122,1,0.155925319,0.155925319,shape_difference3,1,,TRUE,,intensity,0.1,0.05,0.7,0.3,0.82,20,400,1E-11,3.5,0.01,0.5,0.1,,,,,,,,,,,,,,,,,,,,,,,,,,,,,,,,,,,,,,,,,,,,,,,,,,,,,,,,,,,,,,,,,,,,,,,,,,,,,,,,,
,,,,,772950,001,2025-03-15_00h31.52.114,Utility_discrimination_2024_2cat,2024.2.4,MacIntel,59.52380952,,,,,,,,1,"[0.5,0.5]","[0.924,0.383]",d,"[0.5,-0.10753001948144325]","[0.5,1.1075300194814433]",342.689,344.9688,1,s,1,0.7506,,0.027206625,0.359786515,0.33257989,344.972,344.972,0,123,123,123,1,-0.607530019,-0.607530019,shape_difference4,1,,TRUE,,intensity,0.1,0.05,0.7,0.3,0.82,20,400,1E-11,3.5,0.01,0.5,0.1,,,,,,,,,,,,,,,,,,,,,,,,,,,,,,,,,,,,,,,,,,,,,,,,,,,,,,,,,,,,,,,,,,,,,,,,,,,,,,,,,
,,,,,772950,001,2025-03-15_00h31.52.114,Utility_discrimination_2024_2cat,2024.2.4,MacIntel,59.52380952,,,,,,,,2,"[0.5,0.5]","[0.707,0.707]",s,"[0.6613677826671585,0.5668872951964521]","[0.33863221733284155,0.43311270480354797]",344.973,347.0857,0,s,0,0.5826,,0.101359082,0.368261003,0.26690192,347.0889,347.0889,0,124,124,124,1,0.174640457,0.174640457,shape_difference1,1,,TRUE,,intensity,0.1,0.05,0.7,0.3,0.82,20,400,1E-11,3.5,0.01,0.5,0.1,,,,,,,,,,,,,,,,,,,,,,,,,,,,,,,,,,,,,,,,,,,,,,,,,,,,,,,,,,,,,,,,,,,,,,,,,,,,,,,,,
,,,,,772950,001,2025-03-15_00h31.52.114,Utility_discrimination_2024_2cat,2024.2.4,MacIntel,59.52380952,,,,,,,,1,"[0.5,0.5]","[0.924,0.383]",d,"[0.6375131800238145,0.6375131800238145]","[0.3624868199761854,0.3624868199761854]",347.0899,349.4024,1,d,1,0.7829,,0.100526235,0.449323315,0.34879708,349.405,349.405,0,125,125,125,1,0.194502376,0.194502376,shape_difference2,1,,TRUE,,intensity,0.1,0.05,0.7,0.3,0.82,20,400,1E-11,3.5,0.01,0.5,0.1,,,,,,,,,,,,,,,,,,,,,,,,,,,,,,,,,,,,,,,,,,,,,,,,,,,,,,,,,,,,,,,,,,,,,,,,,,,,,,,,,
,,,,,772950,001,2025-03-15_00h31.52.114,Utility_discrimination_2024_2cat,2024.2.4,MacIntel,59.52380952,,,,,,,,3,"[0.5,0.5]","[0.383,0.924]",d,"[0.7030766863675936,0.5841757260592947]","[0.2969233136324064,0.41582427394070526]",349.4061,351.819,0,s,0,0.8876,,0.014929345,0.277269621,0.262340276,351.8218,351.8218,0,126,126,126,1,0.219779964,0.219779964,shape_difference1,1,,TRUE,,intensity,0.1,0.05,0.7,0.3,0.82,20,400,1E-11,3.5,0.01,0.5,0.1,,,,,,,,,,,,,,,,,,,,,,,,,,,,,,,,,,,,,,,,,,,,,,,,,,,,,,,,,,,,,,,,,,,,,,,,,,,,,,,,,
,,,,,772950,001,2025-03-15_00h31.52.114,Utility_discrimination_2024_2cat,2024.2.4,MacIntel,59.52380952,,,,,,,,0,"[0.5,0.5]","[1,0]",d,"[0.5571079419037206,0.6377747736789501]","[0.44289205809627935,0.3622252263210499]",351.8227,354.1856,1,s,1,0.8331,,0.100074645,0.364856693,0.264782047,354.1888,354.1888,0,127,127,127,1,0.149106898,0.149106898,shape_difference3,1,,TRUE,,intensity,0.1,0.05,0.7,0.3,0.82,20,400,1E-11,3.5,0.01,0.5,0.1,,,,,,,,,,,,,,,,,,,,,,,,,,,,,,,,,,,,,,,,,,,,,,,,,,,,,,,,,,,,,,,,,,,,,,,,,,,,,,,,,
,,,,,772950,001,2025-03-15_00h31.52.114,Utility_discrimination_2024_2cat,2024.2.4,MacIntel,59.52380952,,,,,,,,4,"[0.5,0.5]","[0,1]",s,"[0.6906773846703359,0.5]","[0.3093226153296641,0.5]",354.1898,356.569,0,s,0,0.8537,,-0.782916498,-0.465392396,0.317524102,356.5713,356.5713,0,128,128,128,1,0.190677385,0.190677385,shape_difference0,1,,TRUE,,intensity,0.1,0.05,0.7,0.3,0.82,20,400,1E-11,3.5,0.01,0.5,0.1,,,,,,,,,,,,,,,,,,,,,,,,,,,,,,,,,,,,,,,,,,,,,,,,,,,,,,,,,,,,,,,,,,,,,,,,,,,,,,,,,
,,,,,772950,001,2025-03-15_00h31.52.114,Utility_discrimination_2024_2cat,2024.2.4,MacIntel,59.52380952,,,,,,,,2,"[0.5,0.5]","[0.707,0.707]",d,"[0.5,-0.11945279554097121]","[0.5,1.1194527955409712]",356.5723,358.8356,1,s,1,0.7329,,0.095763841,0.341388624,0.245624782,358.8384,358.8392,0,129,129,129,1,-0.619452796,-0.619452796,shape_difference4,1,,TRUE,,intensity,0.1,0.05,0.7,0.3,0.82,20,400,1E-11,3.5,0.01,0.5,0.1,,,,,,,,,,,,,,,,,,,,,,,,,,,,,,,,,,,,,,,,,,,,,,,,,,,,,,,,,,,,,,,,,,,,,,,,,,,,,,,,,
,,,,,772950,001,2025-03-15_00h31.52.114,Utility_discrimination_2024_2cat,2024.2.4,MacIntel,59.52380952,,,,,,,,0,"[0.5,0.5]","[1,0]",s,"[0.6317570464716812,0.6317570464716812]","[0.3682429535283188,0.3682429535283188]",358.8401,361.119,1,d,1,0.7495,,0.108382341,0.424102383,0.315720042,361.1228,361.1228,0,130,130,130,1,0.186360745,0.186360745,shape_difference2,1,,TRUE,,intensity,0.1,0.05,0.7,0.3,0.82,20,400,1E-11,3.5,0.01,0.5,0.1,,,,,,,,,,,,,,,,,,,,,,,,,,,,,,,,,,,,,,,,,,,,,,,,,,,,,,,,,,,,,,,,,,,,,,,,,,,,,,,,,
,,,,,772950,001,2025-03-15_00h31.52.114,Utility_discrimination_2024_2cat,2024.2.4,MacIntel,59.52380952,,,,,,,,1,"[0.5,0.5]","[0.924,0.383]",d,"[0.7322259940803477,0.5]","[0.2677740059196523,0.5]",361.1237,363.3858,0,d,0,0.7324,,0.11195859,0.524783409,0.412824818,363.3883,363.3883,0,131,131,131,1,0.232225994,0.232225994,shape_difference0,1,,TRUE,,intensity,0.1,0.05,0.7,0.3,0.82,20,400,1E-11,3.5,0.01,0.5,0.1,,,,,,,,,,,,,,,,,,,,,,,,,,,,,,,,,,,,,,,,,,,,,,,,,,,,,,,,,,,,,,,,,,,,,,,,,,,,,,,,,
,,,,,772950,001,2025-03-15_00h31.52.114,Utility_discrimination_2024_2cat,2024.2.4,MacIntel,59.52380952,,,,,,,,3,"[0.5,0.5]","[0.383,0.924]",s,"[0.7460600513079639,0.6019924238646647]","[0.25393994869203607,0.3980075761353353]",363.3893,365.7024,1,s,1,0.7829,,0.012835519,0.265630084,0.252794564,365.7051,365.7057,0,132,132,132,1,0.266298757,0.266298757,shape_difference1,1,,TRUE,,intensity,0.1,0.05,0.7,0.3,0.82,20,400,1E-11,3.5,0.01,0.5,0.1,,,,,,,,,,,,,,,,,,,,,,,,,,,,,,,,,,,,,,,,,,,,,,,,,,,,,,,,,,,,,,,,,,,,,,,,,,,,,,,,,
,,,,,772950,001,2025-03-15_00h31.52.114,Utility_discrimination_2024_2cat,2024.2.4,MacIntel,59.52380952,,,,,,,,4,"[0.5,0.5]","[0,1]",s,"[0.5543916010686648,0.6312215127609564]","[0.4456083989313352,0.3687784872390436]",365.7066,368.0188,1,s,1,0.7953,,-0.787697932,-0.497980757,0.289717175,368.0216,368.0216,0,133,133,133,1,0.142014624,0.142014624,shape_difference3,1,,TRUE,,intensity,0.1,0.05,0.7,0.3,0.82,20,400,1E-11,3.5,0.01,0.5,0.1,,,,,,,,,,,,,,,,,,,,,,,,,,,,,,,,,,,,,,,,,,,,,,,,,,,,,,,,,,,,,,,,,,,,,,,,,,,,,,,,,
,,,,,772950,001,2025-03-15_00h31.52.114,Utility_discrimination_2024_2cat,2024.2.4,MacIntel,59.52380952,,,,,,,,1,"[0.5,0.5]","[0.924,0.383]",s,"[0.5,-0.12972347198464151]","[0.5,1.1297234719846414]",368.0225,370.3512,1,d,1,0.8042,,0.109684427,0.475536946,0.365852519,370.3538,370.3538,0,134,134,134,1,-0.629723472,-0.629723472,shape_difference4,1,,TRUE,,intensity,0.1,0.05,0.7,0.3,0.82,20,400,1E-11,3.5,0.01,0.5,0.1,,,,,,,,,,,,,,,,,,,,,,,,,,,,,,,,,,,,,,,,,,,,,,,,,,,,,,,,,,,,,,,,,,,,,,,,,,,,,,,,,
,,,,,772950,001,2025-03-15_00h31.52.114,Utility_discrimination_2024_2cat,2024.2.4,MacIntel,59.52380952,,,,,,,,3,"[0.5,0.5]","[0.383,0.924]",d,"[0.7306946648225459,0.5956234379080466]","[0.2693053351774541,0.4043765620919534]",370.3548,372.6178,1,s,1,0.7328,,0.011138035,0.251415221,0.240277186,372.6213,372.6213,0,135,135,135,1,0.249669551,0.249669551,shape_difference1,1,,TRUE,,intensity,0.1,0.05,0.7,0.3,0.82,20,400,1E-11,3.5,0.01,0.5,0.1,,,,,,,,,,,,,,,,,,,,,,,,,,,,,,,,,,,,,,,,,,,,,,,,,,,,,,,,,,,,,,,,,,,,,,,,,,,,,,,,,
,,,,,772950,001,2025-03-15_00h31.52.114,Utility_discrimination_2024_2cat,2024.2.4,MacIntel,59.52380952,,,,,,,,0,"[0.5,0.5]","[1,0]",s,"[0.5514284755560405,0.6240728757539983]","[0.4485715244439596,0.37592712424600166]",372.6223,374.5691,1,s,1,0.4163,,0.115494149,0.488866235,0.373372086,374.5727,374.5728,0,136,136,136,1,0.134278004,0.134278004,shape_difference3,1,,TRUE,,intensity,0.1,0.05,0.7,0.3,0.82,20,400,1E-11,3.5,0.01,0.5,0.1,,,,,,,,,,,,,,,,,,,,,,,,,,,,,,,,,,,,,,,,,,,,,,,,,,,,,,,,,,,,,,,,,,,,,,,,,,,,,,,,,
,,,,,772950,001,2025-03-15_00h31.52.114,Utility_discrimination_2024_2cat,2024.2.4,MacIntel,59.52380952,,,,,,,,2,"[0.5,0.5]","[0.707,0.707]",s,"[0.7655007706907042,0.5]","[0.23449922930929573,0.5]",374.5738,376.8524,1,s,1,0.7502,,0.07838789,0.306728281,0.228340391,376.8551,376.8552,0,137,137,137,1,0.265500771,0.265500771,shape_difference0,1,,TRUE,,intensity,0.1,0.05,0.7,0.3,0.82,20,400,1E-11,3.5,0.01,0.5,0.1,,,,,,,,,,,,,,,,,,,,,,,,,,,,,,,,,,,,,,,,,,,,,,,,,,,,,,,,,,,,,,,,,,,,,,,,,,,,,,,,,
,,,,,772950,001,2025-03-15_00h31.52.114,Utility_discrimination_2024_2cat,2024.2.4,MacIntel,59.52380952,,,,,,,,4,"[0.5,0.5]","[0,1]",s,"[0.6271354348644117,0.6271354348644117]","[0.3728645651355883,0.3728645651355883]",376.8561,379.3512,1,s,1,0.9664,,-0.791474381,-0.507497366,0.283977015,379.3546,379.3546,0,138,138,138,1,0.179823812,0.179823812,shape_difference2,1,,TRUE,,intensity,0.1,0.05,0.7,0.3,0.82,20,400,1E-11,3.5,0.01,0.5,0.1,,,,,,,,,,,,,,,,,,,,,,,,,,,,,,,,,,,,,,,,,,,,,,,,,,,,,,,,,,,,,,,,,,,,,,,,,,,,,,,,,
,,,,,772950,001,2025-03-15_00h31.52.114,Utility_discrimination_2024_2cat,2024.2.4,MacIntel,59.52380952,,,,,,,,2,"[0.5,0.5]","[0.707,0.707]",s,"[0.5,-0.1388758587165967]","[0.5,1.1388758587165966]",379.3556,381.9679,1,d,1,1.0861,,0.064996858,0.294197737,0.229200878,381.9705,381.9705,0,139,139,139,1,-0.638875859,-0.638875859,shape_difference4,1,,TRUE,,intensity,0.1,0.05,0.7,0.3,0.82,20,400,1E-11,3.5,0.01,0.5,0.1,,,,,,,,,,,,,,,,,,,,,,,,,,,,,,,,,,,,,,,,,,,,,,,,,,,,,,,,,,,,,,,,,,,,,,,,,,,,,,,,,
,,,,,772950,001,2025-03-15_00h31.52.114,Utility_discrimination_2024_2cat,2024.2.4,MacIntel,59.52380952,,,,,,,,0,"[0.5,0.5]","[1,0]",d,"[0.6233549538359133,0.6233549538359133]","[0.3766450461640867,0.3766450461640867]",381.9714,384.3522,1,s,1,0.8534,,0.11315111,0.449298283,0.336147172,384.3552,384.3552,0,140,140,140,1,0.174476597,0.174476597,shape_difference2,1,,TRUE,,intensity,0.1,0.05,0.7,0.3,0.82,20,400,1E-11,3.5,0.01,0.5,0.1,,,,,,,,,,,,,,,,,,,,,,,,,,,,,,,,,,,,,,,,,,,,,,,,,,,,,,,,,,,,,,,,,,,,,,,,,,,,,,,,,
,,,,,772950,001,2025-03-15_00h31.52.114,Utility_discrimination_2024_2cat,2024.2.4,MacIntel,59.52380952,,,,,,,,1,"[0.5,0.5]","[0.924,0.383]",s,"[0.7528187852500097,0.5]","[0.24718121474999033,0.5]",384.3562,386.6856,1,s,1,0.8032,,0.107586524,0.439708119,0.332121595,386.6881,386.6881,0,141,141,141,1,0.252818785,0.252818785,shape_difference0,1,,TRUE,,intensity,0.1,0.05,0.7,0.3,0.82,20,400,1E-11,3.5,0.01,0.5,0.1,,,,,,,,,,,,,,,,,,,,,,,,,,,,,,,,,,,,,,,,,,,,,,,,,,,,,,,,,,,,,,,,,,,,,,,,,,,,,,,,,
,,,,,772950,001,2025-03-15_00h31.52.114,Utility_discrimination_2024_2cat,2024.2.4,MacIntel,59.52380952,,,,,,,,3,"[0.5,0.5]","[0.383,0.924]",s,"[0.7166991040464759,0.589822247672944]","[0.2833008959535242,0.410177752327056]",386.6891,389.0023,1,s,1,0.7831,,0.009743487,0.233658438,0.223914952,389.006,389.006,0,142,142,142,1,0.23452284,0.23452284,shape_difference1,1,,TRUE,,intensity,0.1,0.05,0.7,0.3,0.82,20,400,1E-11,3.5,0.01,0.5,0.1,,,,,,,,,,,,,,,,,,,,,,,,,,,,,,,,,,,,,,,,,,,,,,,,,,,,,,,,,,,,,,,,,,,,,,,,,,,,,,,,,
,,,,,772950,001,2025-03-15_00h31.52.114,Utility_discrimination_2024_2cat,2024.2.4,MacIntel,59.52380952,,,,,,,,4,"[0.5,0.5]","[0,1]",s,"[0.5481198182374586,0.6160906319880203]","[0.4518801817625414,0.3839093680119797]",389.0069,391.3512,1,d,1,0.8189,,-0.794529283,-0.516209176,0.278320107,391.354,391.354,0,143,143,143,1,0.125639212,0.125639212,shape_difference3,1,,TRUE,,intensity,0.1,0.05,0.7,0.3,0.82,20,400,1E-11,3.5,0.01,0.5,0.1,,,,,,,,,,,,,,,,,,,,,,,,,,,,,,,,,,,,,,,,,,,,,,,,,,,,,,,,,,,,,,,,,,,,,,,,,,,,,,,,,
,,,,,772950,001,2025-03-15_00h31.52.114,Utility_discrimination_2024_2cat,2024.2.4,MacIntel,59.52380952,,,,,,,,0,"[0.5,0.5]","[1,0]",d,"[0.5,-0.14733463763650156]","[0.5,1.1473346376365017]",391.3551,393.7351,1,s,1,0.8493,,0.111399051,0.398728737,0.287329686,393.7383,393.7384,0,144,144,144,1,-0.647334638,-0.647334638,shape_difference4,1,,TRUE,,intensity,0.1,0.05,0.7,0.3,0.82,20,400,1E-11,3.5,0.01,0.5,0.1,,,,,,,,,,,,,,,,,,,,,,,,,,,,,,,,,,,,,,,,,,,,,,,,,,,,,,,,,,,,,,,,,,,,,,,,,,,,,,,,,
,,,,,772950,001,2025-03-15_00h31.52.114,Utility_discrimination_2024_2cat,2024.2.4,MacIntel,59.52380952,,,,,,,,1,"[0.5,0.5]","[0.924,0.383]",s,"[0.7414130922851513,0.5]","[0.2585869077148487,0.5]",393.7394,396.3023,1,s,1,1.0327,,0.105822534,0.397101199,0.291278665,396.3048,396.3049,0,145,145,145,1,0.241413092,0.241413092,shape_difference0,1,,TRUE,,intensity,0.1,0.05,0.7,0.3,0.82,20,400,1E-11,3.5,0.01,0.5,0.1,,,,,,,,,,,,,,,,,,,,,,,,,,,,,,,,,,,,,,,,,,,,,,,,,,,,,,,,,,,,,,,,,,,,,,,,,,,,,,,,,
,,,,,772950,001,2025-03-15_00h31.52.114,Utility_discrimination_2024_2cat,2024.2.4,MacIntel,59.52380952,,,,,,,,2,"[0.5,0.5]","[0.707,0.707]",s,"[0.7019423490314493,0.5837055407781873]","[0.29805765096855075,0.41629445922181274]",396.3059,398.7187,1,d,1,0.8941,,0.054512788,0.287036351,0.232523563,398.7215,398.7215,0,146,146,146,1,0.218552326,0.218552326,shape_difference1,1,,TRUE,,intensity,0.1,0.05,0.7,0.3,0.82,20,400,1E-11,3.5,0.01,0.5,0.1,,,,,,,,,,,,,,,,,,,,,,,,,,,,,,,,,,,,,,,,,,,,,,,,,,,,,,,,,,,,,,,,,,,,,,,,,,,,,,,,,
,,,,,772950,001,2025-03-15_00h31.52.114,Utility_discrimination_2024_2cat,2024.2.4,MacIntel,59.52380952,,,,,,,,3,"[0.5,0.5]","[0.383,0.924]",d,"[0.6201969763136359,0.6201969763136359]","[0.3798030236863641,0.3798030236863641]",398.7225,401.3022,1,d,1,1.0484,,0.008580374,0.21105048,0.202470106,401.3054,401.3054,0,147,147,147,1,0.170009867,0.170009867,shape_difference2,1,,TRUE,,intensity,0.1,0.05,0.7,0.3,0.82,20,400,1E-11,3.5,0.01,0.5,0.1,,,,,,,,,,,,,,,,,,,,,,,,,,,,,,,,,,,,,,,,,,,,,,,,,,,,,,,,,,,,,,,,,,,,,,,,,,,,,,,,,
,,,,,772950,001,2025-03-15_00h31.52.114,Utility_discrimination_2024_2cat,2024.2.4,MacIntel,59.52380952,,,,,,,,4,"[0.5,0.5]","[0,1]",d,"[0.544354918462241,0.6070076884049888]","[0.45564508153775896,0.39299231159501125]",401.3063,403.5855,1,s,1,0.7481,,-0.797060122,-0.526252452,0.27080767,403.5889,403.5889,0,148,148,148,1,0.115809187,0.115809187,shape_difference3,1,,TRUE,,intensity,0.1,0.05,0.7,0.3,0.82,20,400,1E-11,3.5,0.01,0.5,0.1,,,,,,,,,,,,,,,,,,,,,,,,,,,,,,,,,,,,,,,,,,,,,,,,,,,,,,,,,,,,,,,,,,,,,,,,,,,,,,,,,
,,,,,772950,001,2025-03-15_00h31.52.114,Utility_discrimination_2024_2cat,2024.2.4,MacIntel,59.52380952,,,,,,,,0,"[0.5,0.5]","[1,0]",s,"[0.5,-0.15544950592135376]","[0.5,1.1554495059213536]",403.59,406.1355,0,s,0,1.0161,,0.109834852,0.384518027,0.274683175,406.1388,406.1389,0,149,149,149,1,-0.655449506,-0.655449506,shape_difference4,1,,TRUE,,intensity,0.1,0.05,0.7,0.3,0.82,20,400,1E-11,3.5,0.01,0.5,0.1,,,,,,,,,,,,,,,,,,,,,,,,,,,,,,,,,,,,,,,,,,,,,,,,,,,,,,,,,,,,,,,,,,,,,,,,,,,,,,,,,
,,,,,772950,001,2025-03-15_00h31.52.114,Utility_discrimination_2024_2cat,2024.2.4,MacIntel,59.52380952,,,,,,,,1,"[0.5,0.5]","[0.924,0.383]",d,"[0.7298611552796317,0.5]","[0.2701388447203683,0.5]",406.1401,408.5189,0,s,0,0.8486,,0.104274126,0.377875807,0.27360168,408.5224,408.5224,0,150,150,150,1,0.229861155,0.229861155,shape_difference0,1,,TRUE,,intensity,0.1,0.05,0.7,0.3,0.82,20,400,1E-11,3.5,0.01,0.5,0.1,,,,,,,,,,,,,,,,,,,,,,,,,,,,,,,,,,,,,,,,,,,,,,,,,,,,,,,,,,,,,,,,,,,,,,,,,,,,,,,,,
,,,,,772950,001,2025-03-15_00h31.52.114,Utility_discrimination_2024_2cat,2024.2.4,MacIntel,59.52380952,,,,,,,,4,"[0.5,0.5]","[0,1]",d,"[0.6858423291220678,0.5770320476772207]","[0.3141576708779322,0.4229679523227793]",408.5236,410.8011,1,s,1,0.7509,,-0.779854331,-0.51076315,0.269091181,410.8039,410.804,0,151,151,151,1,0.201128062,0.201128062,shape_difference1,1,,TRUE,,intensity,0.1,0.05,0.7,0.3,0.82,20,400,1E-11,3.5,0.01,0.5,0.1,,,,,,,,,,,,,,,,,,,,,,,,,,,,,,,,,,,,,,,,,,,,,,,,,,,,,,,,,,,,,,,,,,,,,,,,,,,,,,,,,
,,,,,772950,001,2025-03-15_00h31.52.114,Utility_discrimination_2024_2cat,2024.2.4,MacIntel,59.52380952,,,,,,,,2,"[0.5,0.5]","[0.707,0.707]",s,"[0.5,-0.13518202615403407]","[0.5,1.135182026154034]",410.8058,413.2022,1,d,1,0.8688,,0.04618725,0.279368204,0.233180954,413.2055,413.2055,0,152,152,152,1,-0.635182026,-0.635182026,shape_difference4,1,,TRUE,,intensity,0.1,0.05,0.7,0.3,0.82,20,400,1E-11,3.5,0.01,0.5,0.1,,,,,,,,,,,,,,,,,,,,,,,,,,,,,,,,,,,,,,,,,,,,,,,,,,,,,,,,,,,,,,,,,,,,,,,,,,,,,,,,,
,,,,,772950,001,2025-03-15_00h31.52.114,Utility_discrimination_2024_2cat,2024.2.4,MacIntel,59.52380952,,,,,,,,3,"[0.5,0.5]","[0.383,0.924]",d,"[0.6174955654307155,0.6174955654307155]","[0.38250443456928457,0.38250443456928457]",413.2065,415.8189,1,d,1,1.0842,,0.007593173,0.198207953,0.19061478,415.8217,415.8219,0,153,153,153,1,0.166188919,0.166188919,shape_difference2,1,,TRUE,,intensity,0.1,0.05,0.7,0.3,0.82,20,400,1E-11,3.5,0.01,0.5,0.1,,,,,,,,,,,,,,,,,,,,,,,,,,,,,,,,,,,,,,,,,,,,,,,,,,,,,,,,,,,,,,,,,,,,,,,,,,,,,,,,,
,,,,,772950,001,2025-03-15_00h31.52.114,Utility_discrimination_2024_2cat,2024.2.4,MacIntel,59.52380952,,,,,,,,0,"[0.5,0.5]","[1,0]",d,"[0.5400069615023613,0.5965181003346782]","[0.4599930384976388,0.4034818996653217]",415.8236,418.1518,1,s,1,0.8101,,0.115615103,0.433227336,0.317612233,418.1537,418.1537,0,154,154,154,1,0.104456819,0.104456819,shape_difference3,1,,TRUE,,intensity,0.1,0.05,0.7,0.3,0.82,20,400,1E-11,3.5,0.01,0.5,0.1,,,,,,,,,,,,,,,,,,,,,,,,,,,,,,,,,,,,,,,,,,,,,,,,,,,,,,,,,,,,,,,,,,,,,,,,,,,,,,,,,
,,,,,772950,001,2025-03-15_00h31.52.114,Utility_discrimination_2024_2cat,2024.2.4,MacIntel,59.52380952,,,,,,,,1,"[0.5,0.5]","[0.924,0.383]",s,"[0.7571163617637922,0.5]","[0.24288363823620784,0.5]",418.1545,420.5021,1,s,1,0.8176,,0.102852758,0.354277344,0.251424586,420.5043,420.5043,0,155,155,155,1,0.257116362,0.257116362,shape_difference0,1,,TRUE,,intensity,0.1,0.05,0.7,0.3,0.82,20,400,1E-11,3.5,0.01,0.5,0.1,,,,,,,,,,,,,,,,,,,,,,,,,,,,,,,,,,,,,,,,,,,,,,,,,,,,,,,,,,,,,,,,,,,,,,,,,,,,,,,,,
,,,,,772950,001,2025-03-15_00h31.52.114,Utility_discrimination_2024_2cat,2024.2.4,MacIntel,59.52380952,,,,,,,,4,"[0.5,0.5]","[0,1]",s,"[0.6770189832554242,0.5733747517173458]","[0.3229810167445758,0.42662524828265425]",420.5053,422.6021,1,s,1,0.578,,-0.783125907,-0.518560704,0.264565203,422.6046,422.6047,0,156,156,156,1,0.191578986,0.191578986,shape_difference1,1,,TRUE,,intensity,0.1,0.05,0.7,0.3,0.82,20,400,1E-11,3.5,0.01,0.5,0.1,,,,,,,,,,,,,,,,,,,,,,,,,,,,,,,,,,,,,,,,,,,,,,,,,,,,,,,,,,,,,,,,,,,,,,,,,,,,,,,,,
,,,,,772950,001,2025-03-15_00h31.52.114,Utility_discrimination_2024_2cat,2024.2.4,MacIntel,59.52380952,,,,,,,,3,"[0.5,0.5]","[0.383,0.924]",s,"[0.5,-0.14177398036319044]","[0.5,1.1417739803631903]",422.6056,424.9854,1,s,1,0.8485,,0.006738066,0.195177007,0.188438941,424.9878,424.9878,0,157,157,157,1,-0.64177398,-0.64177398,shape_difference4,1,,TRUE,,intensity,0.1,0.05,0.7,0.3,0.82,20,400,1E-11,3.5,0.01,0.5,0.1,,,,,,,,,,,,,,,,,,,,,,,,,,,,,,,,,,,,,,,,,,,,,,,,,,,,,,,,,,,,,,,,,,,,,,,,,,,,,,,,,
,,,,,772950,001,2025-03-15_00h31.52.114,Utility_discrimination_2024_2cat,2024.2.4,MacIntel,59.52380952,,,,,,,,2,"[0.5,0.5]","[0.707,0.707]",s,"[0.5363898742619653,0.5877917593160729]","[0.46361012573803473,0.4122082406839272]",424.989,427.2689,1,s,1,0.7523,,0.03949184,0.270858959,0.231367119,427.2724,427.2724,0,158,158,158,1,0.095012727,0.095012727,shape_difference3,1,,TRUE,,intensity,0.1,0.05,0.7,0.3,0.82,20,400,1E-11,3.5,0.01,0.5,0.1,,,,,,,,,,,,,,,,,,,,,,,,,,,,,,,,,,,,,,,,,,,,,,,,,,,,,,,,,,,,,,,,,,,,,,,,,,,,,,,,,
,,,,,772950,001,2025-03-15_00h31.52.114,Utility_discrimination_2024_2cat,2024.2.4,MacIntel,59.52380952,,,,,,,,1,"[0.5,0.5]","[0.924,0.383]",s,"[0.6151220772725193,0.6151220772725193]","[0.3848779227274807,0.3848779227274807]",427.2735,429.6189,1,s,1,0.8177,,0.10148971,0.324363359,0.222873649,429.6217,429.6217,0,159,159,159,1,0.162831792,0.162831792,shape_difference2,1,,TRUE,,intensity,0.1,0.05,0.7,0.3,0.82,20,400,1E-11,3.5,0.01,0.5,0.1,,,,,,,,,,,,,,,,,,,,,,,,,,,,,,,,,,,,,,,,,,,,,,,,,,,,,,,,,,,,,,,,,,,,,,,,,,,,,,,,,
,,,,,772950,001,2025-03-15_00h31.52.114,Utility_discrimination_2024_2cat,2024.2.4,MacIntel,59.52380952,,,,,,,,0,"[0.5,0.5]","[1,0]",s,"[0.6704016683143114,0.570631860351062]","[0.32959833168568864,0.42936813964893805]",429.6227,433.7022,1,d,1,2.5493,,0.113564891,0.394487036,0.280922145,433.705,433.705,0,160,160,160,1,0.18441739,0.18441739,shape_difference1,1,,TRUE,,intensity,0.1,0.05,0.7,0.3,0.82,20,400,1E-11,3.5,0.01,0.5,0.1,,,,,,,,,,,,,,,,,,,,,,,,,,,,,,,,,,,,,,,,,,,,,,,,,,,,,,,,,,,,,,,,,,,,,,,,,,,,,,,,,
,,,,,772950,001,2025-03-15_00h31.52.114,Utility_discrimination_2024_2cat,2024.2.4,MacIntel,59.52380952,,,,,,,,2,"[0.5,0.5]","[0.707,0.707]",d,"[0.7477100167039012,0.5]","[0.25228998329609875,0.5]",433.7062,436.0355,1,s,1,0.7997,,0.034047262,0.261120187,0.227072925,436.039,436.0391,0,161,161,161,1,0.247710017,0.247710017,shape_difference0,1,,TRUE,,intensity,0.1,0.05,0.7,0.3,0.82,20,400,1E-11,3.5,0.01,0.5,0.1,,,,,,,,,,,,,,,,,,,,,,,,,,,,,,,,,,,,,,,,,,,,,,,,,,,,,,,,,,,,,,,,,,,,,,,,,,,,,,,,,
,,,,,772950,001,2025-03-15_00h31.52.114,Utility_discrimination_2024_2cat,2024.2.4,MacIntel,59.52380952,,,,,,,,4,"[0.5,0.5]","[0,1]",s,"[0.6129742918820926,0.6129742918820926]","[0.38702570811790743,0.38702570811790743]",436.0401,438.2841,1,s,1,0.7252,,-0.785751469,-0.527546142,0.258205327,438.2854,438.2854,0,162,162,162,1,0.159793906,0.159793906,shape_difference2,1,,TRUE,,intensity,0.1,0.05,0.7,0.3,0.82,20,400,1E-11,3.5,0.01,0.5,0.1,,,,,,,,,,,,,,,,,,,,,,,,,,,,,,,,,,,,,,,,,,,,,,,,,,,,,,,,,,,,,,,,,,,,,,,,,,,,,,,,,
,,,,,772950,001,2025-03-15_00h31.52.114,Utility_discrimination_2024_2cat,2024.2.4,MacIntel,59.52380952,,,,,,,,3,"[0.5,0.5]","[0.383,0.924]",s,"[0.5,-0.1479746002430048]","[0.5,1.1479746002430047]",438.2861,440.5521,1,s,1,0.7328,,0.005979822,0.192068609,0.186088787,440.5554,440.5554,0,163,163,163,1,-0.6479746,-0.6479746,shape_difference4,1,,TRUE,,intensity,0.1,0.05,0.7,0.3,0.82,20,400,1E-11,3.5,0.01,0.5,0.1,,,,,,,,,,,,,,,,,,,,,,,,,,,,,,,,,,,,,,,,,,,,,,,,,,,,,,,,,,,,,,,,,,,,,,,,,,,,,,,,,
,,,,,772950,001,2025-03-15_00h31.52.114,Utility_discrimination_2024_2cat,2024.2.4,MacIntel,59.52380952,,,,,,,,2,"[0.5,0.5]","[0.707,0.707]",s,"[0.5338800116454352,0.5817366338391179]","[0.46611998835456475,0.4182633661608821]",440.5564,442.7521,1,s,1,0.6653,,0.029576783,0.249684287,0.220107505,442.7549,442.7549,0,164,164,164,1,0.08845956,0.08845956,shape_difference3,1,,TRUE,,intensity,0.1,0.05,0.7,0.3,0.82,20,400,1E-11,3.5,0.01,0.5,0.1,,,,,,,,,,,,,,,,,,,,,,,,,,,,,,,,,,,,,,,,,,,,,,,,,,,,,,,,,,,,,,,,,,,,,,,,,,,,,,,,,
,,,,,772950,001,2025-03-15_00h31.52.114,Utility_discrimination_2024_2cat,2024.2.4,MacIntel,59.52380952,,,,,,,,4,"[0.5,0.5]","[0,1]",s,"[0.6109686304254478,0.6109686304254478]","[0.38903136957455214,0.38903136957455214]",442.7561,445.0186,1,s,1,0.7451,,-0.787889916,-0.538252044,0.249637872,445.0212,445.0212,0,165,165,165,1,0.156957044,0.156957044,shape_difference2,1,,TRUE,,intensity,0.1,0.05,0.7,0.3,0.82,20,400,1E-11,3.5,0.01,0.5,0.1,,,,,,,,,,,,,,,,,,,,,,,,,,,,,,,,,,,,,,,,,,,,,,,,,,,,,,,,,,,,,,,,,,,,,,,,,,,,,,,,,
,,,,,772950,001,2025-03-15_00h31.52.114,Utility_discrimination_2024_2cat,2024.2.4,MacIntel,59.52380952,,,,,,,,3,"[0.5,0.5]","[0.383,0.924]",s,"[0.5,-0.15400925252718733]","[0.5,1.1540092525271874]",445.0222,447.8521,1,d,1,1.2985,,0.005289504,0.188783942,0.183494438,447.8548,447.8549,0,166,166,166,1,-0.654009253,-0.654009253,shape_difference4,1,,TRUE,,intensity,0.1,0.05,0.7,0.3,0.82,20,400,1E-11,3.5,0.01,0.5,0.1,,,,,,,,,,,,,,,,,,,,,,,,,,,,,,,,,,,,,,,,,,,,,,,,,,,,,,,,,,,,,,,,,,,,,,,,,,,,,,,,,
,,,,,772950,001,2025-03-15_00h31.52.114,Utility_discrimination_2024_2cat,2024.2.4,MacIntel,59.52380952,,,,,,,,1,"[0.5,0.5]","[0.924,0.383]",d,"[0.5318180011239477,0.5767619661580357]","[0.46818199887605233,0.42323803384196435]",447.8564,450.251,1,d,1,0.8652,,0.100129221,0.297752451,0.19762323,450.254,450.254,0,167,167,167,1,0.083075721,0.083075721,shape_difference3,1,,TRUE,,intensity,0.1,0.05,0.7,0.3,0.82,20,400,1E-11,3.5,0.01,0.5,0.1,,,,,,,,,,,,,,,,,,,,,,,,,,,,,,,,,,,,,,,,,,,,,,,,,,,,,,,,,,,,,,,,,,,,,,,,,,,,,,,,,
,,,,,772950,001,2025-03-15_00h31.52.114,Utility_discrimination_2024_2cat,2024.2.4,MacIntel,59.52380952,,,,,,,,0,"[0.5,0.5]","[1,0]",d,"[0.6650804628350581,0.5684262091621507]","[0.33491953716494194,0.4315737908378493]",450.2551,452.6519,1,s,1,0.8776,,0.111765989,0.381865293,0.270099305,452.6541,452.6541,0,168,168,168,1,0.17865851,0.17865851,shape_difference1,1,,TRUE,,intensity,0.1,0.05,0.7,0.3,0.82,20,400,1E-11,3.5,0.01,0.5,0.1,,,,,,,,,,,,,,,,,,,,,,,,,,,,,,,,,,,,,,,,,,,,,,,,,,,,,,,,,,,,,,,,,,,,,,,,,,,,,,,,,
,,,,,772950,001,2025-03-15_00h31.52.114,Utility_discrimination_2024_2cat,2024.2.4,MacIntel,59.52380952,,,,,,,,0,"[0.5,0.5]","[1,0]",s,"[0.7383757976656398,0.5]","[0.26162420233436023,0.5]",452.6552,456.4519,0,s,0,2.279,,0.118296575,0.415183046,0.296886471,456.454,456.4541,0,169,169,169,1,0.238375798,0.238375798,shape_difference0,1,,TRUE,,intensity,0.1,0.05,0.7,0.3,0.82,20,400,1E-11,3.5,0.01,0.5,0.1,,,,,,,,,,,,,,,,,,,,,,,,,,,,,,,,,,,,,,,,,,,,,,,,,,,,,,,,,,,,,,,,,,,,,,,,,,,,,,,,,
,,,,,772950,001,2025-03-15_00h31.52.114,Utility_discrimination_2024_2cat,2024.2.4,MacIntel,59.52380952,,,,,,,,2,"[0.5,0.5]","[0.707,0.707]",d,"[0.7602067813676883,0.5]","[0.23979321863231173,0.5]",456.4552,458.8688,1,s,1,0.8956,,0.025875277,0.235972746,0.210097468,458.8715,458.8715,0,170,170,170,1,0.260206781,0.260206781,shape_difference0,1,,TRUE,,intensity,0.1,0.05,0.7,0.3,0.82,20,400,1E-11,3.5,0.01,0.5,0.1,,,,,,,,,,,,,,,,,,,,,,,,,,,,,,,,,,,,,,,,,,,,,,,,,,,,,,,,,,,,,,,,,,,,,,,,,,,,,,,,,
,,,,,772950,001,2025-03-15_00h31.52.114,Utility_discrimination_2024_2cat,2024.2.4,MacIntel,59.52380952,,,,,,,,4,"[0.5,0.5]","[0,1]",s,"[0.6090344842661721,0.6090344842661721]","[0.3909655157338279,0.3909655157338279]",458.8725,461.3517,0,s,0,0.9506,,-0.790255522,-0.54969514,0.240560382,461.3542,461.3542,0,171,171,171,1,0.154221336,0.154221336,shape_difference2,1,,TRUE,,intensity,0.1,0.05,0.7,0.3,0.82,20,400,1E-11,3.5,0.01,0.5,0.1,,,,,,,,,,,,,,,,,,,,,,,,,,,,,,,,,,,,,,,,,,,,,,,,,,,,,,,,,,,,,,,,,,,,,,,,,,,,,,,,,
,,,,,772950,001,2025-03-15_00h31.52.114,Utility_discrimination_2024_2cat,2024.2.4,MacIntel,59.52380952,,,,,,,,1,"[0.5,0.5]","[0.924,0.383]",d,"[0.5,-0.16087104770248717]","[0.5,1.160871047702487]",461.3552,464.0178,1,s,1,1.133,,0.084518029,0.291138957,0.206620927,464.0196,464.0196,0,172,172,172,1,-0.660871048,-0.660871048,shape_difference4,1,,TRUE,,intensity,0.1,0.05,0.7,0.3,0.82,20,400,1E-11,3.5,0.01,0.5,0.1,,,,,,,,,,,,,,,,,,,,,,,,,,,,,,,,,,,,,,,,,,,,,,,,,,,,,,,,,,,,,,,,,,,,,,,,,,,,,,,,,
,,,,,772950,001,2025-03-15_00h31.52.114,Utility_discrimination_2024_2cat,2024.2.4,MacIntel,59.52380952,,,,,,,,3,"[0.5,0.5]","[0.383,0.924]",s,"[0.6607315604534095,0.5666235797117487]","[0.3392684395465905,0.43337642028825124]",464.0204,466.352,1,d,1,0.8009,,0.004642741,0.185216542,0.180573801,466.3544,466.3544,0,173,173,173,1,0.173951905,0.173951905,shape_difference1,1,,TRUE,,intensity,0.1,0.05,0.7,0.3,0.82,20,400,1E-11,3.5,0.01,0.5,0.1,,,,,,,,,,,,,,,,,,,,,,,,,,,,,,,,,,,,,,,,,,,,,,,,,,,,,,,,,,,,,,,,,,,,,,,,,,,,,,,,,
,,,,,772950,001,2025-03-15_00h31.52.114,Utility_discrimination_2024_2cat,2024.2.4,MacIntel,59.52380952,,,,,,,,0,"[0.5,0.5]","[1,0]",d,"[0.5301154466622174,0.5726544979527126]","[0.46988455333778256,0.4273455020472874]",466.3558,468.8842,0,d,0,1.0097,,0.115855082,0.390529757,0.274674675,468.8867,468.8867,0,174,174,174,1,0.078630409,0.078630409,shape_difference3,1,,TRUE,,intensity,0.1,0.05,0.7,0.3,0.82,20,400,1E-11,3.5,0.01,0.5,0.1,,,,,,,,,,,,,,,,,,,,,,,,,,,,,,,,,,,,,,,,,,,,,,,,,,,,,,,,,,,,,,,,,,,,,,,,,,,,,,,,,
,,,,,772950,001,2025-03-15_00h31.52.114,Utility_discrimination_2024_2cat,2024.2.4,MacIntel,59.52380952,,,,,,,,3,"[0.5,0.5]","[0.383,0.924]",s,"[0.752380718030048,0.5]","[0.24761928196995198,0.5]",468.8877,471.2187,1,s,1,0.7996,,0.00750536,0.193832565,0.186327206,471.2214,471.2215,0,175,175,175,1,0.252380718,0.252380718,shape_difference0,1,,TRUE,,intensity,0.1,0.05,0.7,0.3,0.82,20,400,1E-11,3.5,0.01,0.5,0.1,,,,,,,,,,,,,,,,,,,,,,,,,,,,,,,,,,,,,,,,,,,,,,,,,,,,,,,,,,,,,,,,,,,,,,,,,,,,,,,,,
,,,,,772950,001,2025-03-15_00h31.52.114,Utility_discrimination_2024_2cat,2024.2.4,MacIntel,59.52380952,,,,,,,,2,"[0.5,0.5]","[0.707,0.707]",s,"[0.5365963380052101,0.5882898598350238]","[0.46340366199478994,0.4117101401649762]",471.2225,473.6019,1,d,1,0.8509,,0.081383139,0.272270119,0.19088698,473.6053,473.6053,0,176,176,176,1,0.095551796,0.095551796,shape_difference3,1,,TRUE,,intensity,0.1,0.05,0.7,0.3,0.82,20,400,1E-11,3.5,0.01,0.5,0.1,,,,,,,,,,,,,,,,,,,,,,,,,,,,,,,,,,,,,,,,,,,,,,,,,,,,,,,,,,,,,,,,,,,,,,,,,,,,,,,,,
,,,,,772950,001,2025-03-15_00h31.52.114,Utility_discrimination_2024_2cat,2024.2.4,MacIntel,59.52380952,,,,,,,,4,"[0.5,0.5]","[0,1]",d,"[0.6178585586771591,0.6178585586771591]","[0.3821414413228409,0.3821414413228409]",473.6064,475.9343,1,s,1,0.8016,,-0.79232373,-0.564230992,0.228092738,475.9366,475.9367,0,177,177,177,1,0.166702346,0.166702346,shape_difference2,1,,TRUE,,intensity,0.1,0.05,0.7,0.3,0.82,20,400,1E-11,3.5,0.01,0.5,0.1,,,,,,,,,,,,,,,,,,,,,,,,,,,,,,,,,,,,,,,,,,,,,,,,,,,,,,,,,,,,,,,,,,,,,,,,,,,,,,,,,
,,,,,772950,001,2025-03-15_00h31.52.114,Utility_discrimination_2024_2cat,2024.2.4,MacIntel,59.52380952,,,,,,,,1,"[0.5,0.5]","[0.924,0.383]",s,"[0.5,-0.16856746289356583]","[0.5,1.1685674628935658]",475.9377,478.6345,1,d,1,1.1654,,0.070882932,0.284240851,0.213357919,478.6367,478.6367,0,178,178,178,1,-0.668567463,-0.668567463,shape_difference4,1,,TRUE,,intensity,0.1,0.05,0.7,0.3,0.82,20,400,1E-11,3.5,0.01,0.5,0.1,,,,,,,,,,,,,,,,,,,,,,,,,,,,,,,,,,,,,,,,,,,,,,,,,,,,,,,,,,,,,,,,,,,,,,,,,,,,,,,,,
,,,,,772950,001,2025-03-15_00h31.52.114,Utility_discrimination_2024_2cat,2024.2.4,MacIntel,59.52380952,,,,,,,,1,"[0.5,0.5]","[0.924,0.383]",d,"[0.6571122073412177,0.5651233500126476]","[0.3428877926587824,0.4348766499873524]",478.6378,481.2353,1,d,1,1.066,,0.059987249,0.276781036,0.216793788,481.2381,481.2381,0,179,179,179,1,0.170034856,0.170034856,shape_difference1,1,,TRUE,,intensity,0.1,0.05,0.7,0.3,0.82,20,400,1E-11,3.5,0.01,0.5,0.1,,,,,,,,,,,,,,,,,,,,,,,,,,,,,,,,,,,,,,,,,,,,,,,,,,,,,,,,,,,,,,,,,,,,,,,,,,,,,,,,,
,,,,,772950,001,2025-03-15_00h31.52.114,Utility_discrimination_2024_2cat,2024.2.4,MacIntel,59.52380952,,,,,,,,0,"[0.5,0.5]","[1,0]",d,"[0.6540372807895971,0.5638487863013157]","[0.3459627192104029,0.4361512136986843]",481.2392,483.5352,1,s,1,0.7694,,0.113952143,0.37625209,0.262299946,483.5376,483.5376,0,180,180,180,1,0.166707014,0.166707014,shape_difference1,1,,TRUE,,intensity,0.1,0.05,0.7,0.3,0.82,20,400,1E-11,3.5,0.01,0.5,0.1,,,,,,,,,,,,,,,,,,,,,,,,,,,,,,,,,,,,,,,,,,,,,,,,,,,,,,,,,,,,,,,,,,,,,,,,,,,,,,,,,
,,,,,772950,001,2025-03-15_00h31.52.114,Utility_discrimination_2024_2cat,2024.2.4,MacIntel,59.52380952,,,,,,,,4,"[0.5,0.5]","[0,1]",s,"[0.7450788732975994,0.5]","[0.25492112670240064,0.5]",483.5387,485.9351,1,d,1,0.8703,,-0.79418497,-0.582978221,0.211206749,485.9381,485.9381,0,181,181,181,1,0.245078873,0.245078873,shape_difference0,1,,TRUE,,intensity,0.1,0.05,0.7,0.3,0.82,20,400,1E-11,3.5,0.01,0.5,0.1,,,,,,,,,,,,,,,,,,,,,,,,,,,,,,,,,,,,,,,,,,,,,,,,,,,,,,,,,,,,,,,,,,,,,,,,,,,,,,,,,
,,,,,772950,001,2025-03-15_00h31.52.114,Utility_discrimination_2024_2cat,2024.2.4,MacIntel,59.52380952,,,,,,,,2,"[0.5,0.5]","[0.707,0.707]",d,"[0.5,-0.17737286854731027]","[0.5,1.1773728685473102]",485.9401,488.502,1,s,1,1.0334,,0.069365362,0.26411392,0.194748558,488.5044,488.5044,0,182,182,182,1,-0.677372869,-0.677372869,shape_difference4,1,,TRUE,,intensity,0.1,0.05,0.7,0.3,0.82,20,400,1E-11,3.5,0.01,0.5,0.1,,,,,,,,,,,,,,,,,,,,,,,,,,,,,,,,,,,,,,,,,,,,,,,,,,,,,,,,,,,,,,,,,,,,,,,,,,,,,,,,,
,,,,,772950,001,2025-03-15_00h31.52.114,Utility_discrimination_2024_2cat,2024.2.4,MacIntel,59.52380952,,,,,,,,3,"[0.5,0.5]","[0.383,0.924]",s,"[0.6161481339554141,0.6161481339554141]","[0.38385186604458593,0.38385186604458593]",488.5054,491.0176,1,d,1,0.982,,0.006864758,0.191027092,0.184162335,491.0211,491.0212,0,183,183,183,1,0.164283075,0.164283075,shape_difference2,1,,TRUE,,intensity,0.1,0.05,0.7,0.3,0.82,20,400,1E-11,3.5,0.01,0.5,0.1,,,,,,,,,,,,,,,,,,,,,,,,,,,,,,,,,,,,,,,,,,,,,,,,,,,,,,,,,,,,,,,,,,,,,,,,,,,,,,,,,
,,,,,772950,001,2025-03-15_00h31.52.114,Utility_discrimination_2024_2cat,2024.2.4,MacIntel,59.52380952,,,,,,,,0,"[0.5,0.5]","[1,0]",d,"[0.5341160567386661,0.5823061003303591]","[0.4658839432613338,0.4176938996696409]",491.0221,493.3687,1,s,1,0.8162,,0.112211288,0.362813846,0.250602558,493.3716,493.3717,0,184,184,184,1,0.089075866,0.089075866,shape_difference3,1,,TRUE,,intensity,0.1,0.05,0.7,0.3,0.82,20,400,1E-11,3.5,0.01,0.5,0.1,,,,,,,,,,,,,,,,,,,,,,,,,,,,,,,,,,,,,,,,,,,,,,,,,,,,,,,,,,,,,,,,,,,,,,,,,,,,,,,,,
,,,,,772950,001,2025-03-15_00h31.52.114,Utility_discrimination_2024_2cat,2024.2.4,MacIntel,59.52380952,,,,,,,,1,"[0.5,0.5]","[0.924,0.383]",s,"[0.7373032751436611,0.5]","[0.2626967248563389,0.5]",493.3727,495.8187,0,s,0,0.917,,0.051177808,0.2684504,0.217272592,495.8222,495.8223,0,185,185,185,1,0.237303275,0.237303275,shape_difference0,1,,TRUE,,intensity,0.1,0.05,0.7,0.3,0.82,20,400,1E-11,3.5,0.01,0.5,0.1,,,,,,,,,,,,,,,,,,,,,,,,,,,,,,,,,,,,,,,,,,,,,,,,,,,,,,,,,,,,,,,,,,,,,,,,,,,,,,,,,
,,,,,772950,001,2025-03-15_00h31.52.114,Utility_discrimination_2024_2cat,2024.2.4,MacIntel,59.52380952,,,,,,,,3,"[0.5,0.5]","[0.383,0.924]",d,"[0.6513628568615816,0.5627402317943568]","[0.3486371431384184,0.43725976820564316]",495.8233,498.1684,1,d,1,0.8177,,0.006307855,0.188025859,0.181718004,498.1704,498.1705,0,186,186,186,1,0.163812616,0.163812616,shape_difference1,1,,TRUE,,intensity,0.1,0.05,0.7,0.3,0.82,20,400,1E-11,3.5,0.01,0.5,0.1,,,,,,,,,,,,,,,,,,,,,,,,,,,,,,,,,,,,,,,,,,,,,,,,,,,,,,,,,,,,,,,,,,,,,,,,,,,,,,,,,
,,,,,772950,001,2025-03-15_00h31.52.114,Utility_discrimination_2024_2cat,2024.2.4,MacIntel,59.52380952,,,,,,,,2,"[0.5,0.5]","[0.707,0.707]",d,"[0.5320776152665561,0.5773882937501249]","[0.46792238473344394,0.42261170624987515]",498.1715,500.5018,1,s,1,0.8002,,0.059486252,0.25465446,0.195168208,500.5048,500.5049,0,187,187,187,1,0.083753565,0.083753565,shape_difference3,1,,TRUE,,intensity,0.1,0.05,0.7,0.3,0.82,20,400,1E-11,3.5,0.01,0.5,0.1,,,,,,,,,,,,,,,,,,,,,,,,,,,,,,,,,,,,,,,,,,,,,,,,,,,,,,,,,,,,,,,,,,,,,,,,,,,,,,,,,
,,,,,772950,001,2025-03-15_00h31.52.114,Utility_discrimination_2024_2cat,2024.2.4,MacIntel,59.52380952,,,,,,,,4,"[0.5,0.5]","[0,1]",s,"[0.6146357543621683,0.6146357543621683]","[0.3853642456378317,0.3853642456378317]",500.5058,503.0675,1,s,1,1.0319,,-0.795913615,-0.600785557,0.195128057,503.0699,503.0699,0,188,188,188,1,0.162143924,0.162143924,shape_difference2,1,,TRUE,,intensity,0.1,0.05,0.7,0.3,0.82,20,400,1E-11,3.5,0.01,0.5,0.1,,,,,,,,,,,,,,,,,,,,,,,,,,,,,,,,,,,,,,,,,,,,,,,,,,,,,,,,,,,,,,,,,,,,,,,,,,,,,,,,,
,,,,,772950,001,2025-03-15_00h31.52.114,Utility_discrimination_2024_2cat,2024.2.4,MacIntel,59.52380952,,,,,,,,2,"[0.5,0.5]","[0.707,0.707]",s,"[0.5,-0.18761164194000923]","[0.5,1.1876116419400091]",503.0709,505.3512,1,d,1,0.7496,,0.051300688,0.243492931,0.192192243,505.3542,505.3543,0,189,189,189,1,-0.687611642,-0.687611642,shape_difference4,1,,TRUE,,intensity,0.1,0.05,0.7,0.3,0.82,20,400,1E-11,3.5,0.01,0.5,0.1,,,,,,,,,,,,,,,,,,,,,,,,,,,,,,,,,,,,,,,,,,,,,,,,,,,,,,,,,,,,,,,,,,,,,,,,,,,,,,,,,
,,,,,772950,001,2025-03-15_00h31.52.114,Utility_discrimination_2024_2cat,2024.2.4,MacIntel,59.52380952,,,,,,,,3,"[0.5,0.5]","[0.383,0.924]",d,"[0.6132640643089085,0.6132640643089085]","[0.38673593569109155,0.38673593569109155]",505.3553,507.6353,0,s,0,0.7486,,0.005813824,0.184734068,0.178920244,507.6379,507.6379,0,190,190,190,1,0.160203768,0.160203768,shape_difference2,1,,TRUE,,intensity,0.1,0.05,0.7,0.3,0.82,20,400,1E-11,3.5,0.01,0.5,0.1,,,,,,,,,,,,,,,,,,,,,,,,,,,,,,,,,,,,,,,,,,,,,,,,,,,,,,,,,,,,,,,,,,,,,,,,,,,,,,,,,
