Consent.started,Consent.stopped,key_resp.keys,key_resp.rt,key_resp.duration,participant,session,date,expName,psychopyVersion,OS,frameRate,SetupExperiment.started,SetupExperiment.stopped,DiscrimInstructions_Pre.started,DiscrimInstructions_Pre.stopped,KeyboardResponse.keys,KeyboardResponse.rt,KeyboardResponse.duration,feature_index,feature_center,feature_vector,correct_answer,coord1,coord2,DiscriminationTrial.started,DiscriminationTrial.stopped,PreTest.response,Resp_s_or_d.keys,Resp_s_or_d.corr,Resp_s_or_d.rt,Resp_s_or_d.duration,PreTest.CI_lower,PreTest.CI_upper,PreTest.CI_width,CrashPretest_2.started,CrashPretest_2.stopped,PreTest.thisRepN,PreTest.thisTrialN,PreTest.thisN,PreTest.thisIndex,PreTest.ran,PreTest.intensity,intensity,PreTest.label,PreTest.nReps,PreTest.method,PreTest.autoLog,PreTest.seed,PreTest.varName,PreTest.startVal,PreTest.minVal,PreTest.maxVal,PreTest.startValSd,PreTest.pThreshold,PreTest.nTrials,PreTest.maxTrials,PreTest.stopInterval,PreTest.beta,PreTest.delta,PreTest.gamma,PreTest.grain,WelcomeToCategorizationTask.started,WelcomeToCategorizationTask.stopped,PressAnyKey3.keys,PressAnyKey3.rt,PressAnyKey3.duration,shape_coordinates,category_center,category_sigma,subspace_center,subspace_vector1,subspace_vector2,CategorizationTrial.started,CategorizationTrial.stopped,Respond_1or2.keys,Respond_1or2.rt,Respond_1or2.duration,Feedback.started,Feedback.stopped,xcoord,ycoord,shape_coord,numeric_response_minus1,correctness,truecategory,mixture_index,respAifA,respBifA,respAifB,respBifB,trial_number,D,muAx,muAy,muBx,muBy,sigmaA,sigmaB,priorA,priorB,TrialLoop.thisRepN,TrialLoop.thisTrialN,TrialLoop.thisN,TrialLoop.thisIndex,TrialLoop.ran,DiscriminationInstructions_Post.started,DiscriminationInstructions_Post.stopped,key_resp_2.keys,key_resp_2.rt,key_resp_2.duration,PostTest.response,PostTest.CI_lower,PostTest.CI_upper,PostTest.CI_width,CrashPosttest.started,CrashPosttest.stopped,PostTest.thisRepN,PostTest.thisTrialN,PostTest.thisN,PostTest.thisIndex,PostTest.ran,PostTest.intensity,PostTest.label,PostTest.nReps,PostTest.method,PostTest.autoLog,PostTest.seed,PostTest.varName,PostTest.startVal,PostTest.minVal,PostTest.maxVal,PostTest.startValSd,PostTest.pThreshold,PostTest.nTrials,PostTest.maxTrials,PostTest.stopInterval,PostTest.beta,PostTest.delta,PostTest.gamma,PostTest.grain,Thanks.started,Thanks.stopped
0.0002,53.953,y,53.9154,,775537,001,2025-03-17_14h12.46.286,Utility_discrimination_2024_2cat,2024.2.4,MacIntel,29.94011976,,,,,,,,,,,,,,,,,,,,,,,,,,,,,,,,,,,,,,,,,,,,,,,,,,,,,,,,,,,,,,,,,,,,,,,,,,,,,,,,,,,,,,,,,,,,,,,,,,,,,,,,,,,,,,,,,,,,,,,,,,,,,,,,,,,
,,,,,775537,001,2025-03-17_14h12.46.286,Utility_discrimination_2024_2cat,2024.2.4,MacIntel,29.94011976,53.9534,53.9536,,,,,,,,,,,,,,,,,,,,,,,,,,,,,,,,,,,,,,,,,,,,,,,,,,,,,,,,,,,,,,,,,,,,,,,,,,,,,,,,,,,,,,,,,,,,,,,,,,,,,,,,,,,,,,,,,,,,,,,,,,,,,,,,,
,,,,,775537,001,2025-03-17_14h12.46.286,Utility_discrimination_2024_2cat,2024.2.4,MacIntel,29.94011976,,,53.9538,81.486,space,27.4989,,,,,,,,,,,,,,,,,,,,,,,,,,,,,,,,,,,,,,,,,,,,,,,,,,,,,,,,,,,,,,,,,,,,,,,,,,,,,,,,,,,,,,,,,,,,,,,,,,,,,,,,,,,,,,,,,,,,,,,,,,,,,
,,,,,775537,001,2025-03-17_14h12.46.286,Utility_discrimination_2024_2cat,2024.2.4,MacIntel,29.94011976,,,,,,,,4,"[0.5,0.5]","[0,1]",,"[0.6185239449756466,0.5]","[0.3814760550243534,0.5]",81.5222,84.3858,1,s,1,1.3126,,-0.447967632,0.547967632,0.995935263,84.3898,84.3899,0,0,0,0,1,0.118523945,0.118523945,shape_difference0,1,,TRUE,,intensity,0.1,0.05,0.7,0.3,0.82,20,400,1E-11,3.5,0.01,0.5,0.1,,,,,,,,,,,,,,,,,,,,,,,,,,,,,,,,,,,,,,,,,,,,,,,,,,,,,,,,,,,,,,,,,,,,,,,,,,,,,,,,,
,,,,,775537,001,2025-03-17_14h12.46.286,Utility_discrimination_2024_2cat,2024.2.4,MacIntel,29.94011976,,,,,,,,3,"[0.5,0.5]","[0.383,0.924]",s,"[0.5,0.6185239449756466]","[0.5,0.3814760550243534]",84.3942,87.0188,0,s,0,1.0785,,-0.447967632,0.547967632,0.995935263,87.0211,87.0211,0,1,1,1,1,0.118523945,0.118523945,shape_difference4,1,,TRUE,,intensity,0.1,0.05,0.7,0.3,0.82,20,400,1E-11,3.5,0.01,0.5,0.1,,,,,,,,,,,,,,,,,,,,,,,,,,,,,,,,,,,,,,,,,,,,,,,,,,,,,,,,,,,,,,,,,,,,,,,,,,,,,,,,,
,,,,,775537,001,2025-03-17_14h12.46.286,Utility_discrimination_2024_2cat,2024.2.4,MacIntel,29.94011976,,,,,,,,2,"[0.5,0.5]","[0.707,0.707]",d,"[0.5453946709256726,0.6095161251574974]","[0.4546053290743273,0.3904838748425025]",87.0224,89.7186,1,s,1,1.1518,,-0.447967632,0.547967632,0.995935263,89.7215,89.7216,0,2,2,2,1,0.118523945,0.118523945,shape_difference3,1,,TRUE,,intensity,0.1,0.05,0.7,0.3,0.82,20,400,1E-11,3.5,0.01,0.5,0.1,,,,,,,,,,,,,,,,,,,,,,,,,,,,,,,,,,,,,,,,,,,,,,,,,,,,,,,,,,,,,,,,,,,,,,,,,,,,,,,,,
,,,,,775537,001,2025-03-17_14h12.46.286,Utility_discrimination_2024_2cat,2024.2.4,MacIntel,29.94011976,,,,,,,,1,"[0.5,0.5]","[0.924,0.383]",s,"[0.5837964290977822,0.5837964290977822]","[0.4162035709022178,0.4162035709022178]",89.7226,92.2852,1,s,1,1.0151,,-0.447967632,0.547967632,0.995935263,92.2873,92.2873,0,3,3,3,1,0.118523945,0.118523945,shape_difference2,1,,TRUE,,intensity,0.1,0.05,0.7,0.3,0.82,20,400,1E-11,3.5,0.01,0.5,0.1,,,,,,,,,,,,,,,,,,,,,,,,,,,,,,,,,,,,,,,,,,,,,,,,,,,,,,,,,,,,,,,,,,,,,,,,,,,,,,,,,
,,,,,775537,001,2025-03-17_14h12.46.286,Utility_discrimination_2024_2cat,2024.2.4,MacIntel,29.94011976,,,,,,,,2,"[0.5,0.5]","[0.707,0.707]",s,"[0.6095161251574974,0.5453946709256726]","[0.3904838748425025,0.4546053290743273]",92.2889,94.9854,0,s,0,1.1361,,-0.479157219,0.478510979,0.957668197,94.9886,94.9887,0,4,4,4,1,0.118523945,0.118523945,shape_difference1,1,,TRUE,,intensity,0.1,0.05,0.7,0.3,0.82,20,400,1E-11,3.5,0.01,0.5,0.1,,,,,,,,,,,,,,,,,,,,,,,,,,,,,,,,,,,,,,,,,,,,,,,,,,,,,,,,,,,,,,,,,,,,,,,,,,,,,,,,,
,,,,,775537,001,2025-03-17_14h12.46.286,Utility_discrimination_2024_2cat,2024.2.4,MacIntel,29.94011976,,,,,,,,4,"[0.5,0.5]","[0,1]",d,"[0.5261601218135545,0.5261601218135545]","[0.4738398781864455,0.4738398781864455]",94.9897,97.3854,1,s,1,0.8334,,0.008797352,0.664308158,0.655510806,97.3891,97.3891,0,5,5,5,1,0.037001587,0.037001587,shape_difference2,1,,TRUE,,intensity,0.1,0.05,0.7,0.3,0.82,20,400,1E-11,3.5,0.01,0.5,0.1,,,,,,,,,,,,,,,,,,,,,,,,,,,,,,,,,,,,,,,,,,,,,,,,,,,,,,,,,,,,,,,,,,,,,,,,,,,,,,,,,
,,,,,775537,001,2025-03-17_14h12.46.286,Utility_discrimination_2024_2cat,2024.2.4,MacIntel,29.94011976,,,,,,,,1,"[0.5,0.5]","[0.924,0.383]",s,"[0.5,0.8247185585179694]","[0.5,0.17528144148203062]",97.39,99.9854,1,s,1,1.0501,,0.008797352,0.664308158,0.655510806,99.9878,99.9878,0,6,6,6,1,0.324718559,0.324718559,shape_difference4,1,,TRUE,,intensity,0.1,0.05,0.7,0.3,0.82,20,400,1E-11,3.5,0.01,0.5,0.1,,,,,,,,,,,,,,,,,,,,,,,,,,,,,,,,,,,,,,,,,,,,,,,,,,,,,,,,,,,,,,,,,,,,,,,,,,,,,,,,,
,,,,,775537,001,2025-03-17_14h12.46.286,Utility_discrimination_2024_2cat,2024.2.4,MacIntel,29.94011976,,,,,,,,3,"[0.5,0.5]","[0.383,0.924]",s,"[0.8000399480706037,0.6243672079123823]","[0.19996005192939625,0.37563279208761774]",99.9888,102.6186,1,d,1,1.0808,,-0.479157219,0.478510979,0.957668197,102.6215,102.6215,0,7,7,7,1,0.324718559,0.324718559,shape_difference1,1,,TRUE,,intensity,0.1,0.05,0.7,0.3,0.82,20,400,1E-11,3.5,0.01,0.5,0.1,,,,,,,,,,,,,,,,,,,,,,,,,,,,,,,,,,,,,,,,,,,,,,,,,,,,,,,,,,,,,,,,,,,,,,,,,,,,,,,,,
,,,,,775537,001,2025-03-17_14h12.46.286,Utility_discrimination_2024_2cat,2024.2.4,MacIntel,29.94011976,,,,,,,,0,"[0.5,0.5]","[1,0]",d,"[0.5141716077151222,0.5341894661325662]","[0.48582839228487784,0.46581053386743376]",102.6224,105.1187,0,s,0,0.9327,,-0.479157219,0.478510979,0.957668197,105.122,105.122,0,8,8,8,1,0.037001587,0.037001587,shape_difference3,1,,TRUE,,intensity,0.1,0.05,0.7,0.3,0.82,20,400,1E-11,3.5,0.01,0.5,0.1,,,,,,,,,,,,,,,,,,,,,,,,,,,,,,,,,,,,,,,,,,,,,,,,,,,,,,,,,,,,,,,,,,,,,,,,,,,,,,,,,
,,,,,775537,001,2025-03-17_14h12.46.286,Utility_discrimination_2024_2cat,2024.2.4,MacIntel,29.94011976,,,,,,,,0,"[0.5,0.5]","[1,0]",d,"[0.5370015867235566,0.5]","[0.4629984132764434,0.5]",105.1229,107.752,1,s,1,1.081,,-0.510435314,0.404710629,0.915145943,107.7563,107.7564,0,9,9,9,1,0.037001587,0.037001587,shape_difference0,1,,TRUE,,intensity,0.1,0.05,0.7,0.3,0.82,20,400,1E-11,3.5,0.01,0.5,0.1,,,,,,,,,,,,,,,,,,,,,,,,,,,,,,,,,,,,,,,,,,,,,,,,,,,,,,,,,,,,,,,,,,,,,,,,,,,,,,,,,
,,,,,775537,001,2025-03-17_14h12.46.286,Utility_discrimination_2024_2cat,2024.2.4,MacIntel,29.94011976,,,,,,,,3,"[0.5,0.5]","[0.383,0.924]",s,"[0.4627317496680746,0.5]","[0.5372682503319254,0.5]",107.7573,110.352,0,s,0,1.0331,,-0.090065158,0.591798206,0.681863364,110.3558,110.3559,0,10,10,10,1,-0.03726825,-0.03726825,shape_difference0,1,,TRUE,,intensity,0.1,0.05,0.7,0.3,0.82,20,400,1E-11,3.5,0.01,0.5,0.1,,,,,,,,,,,,,,,,,,,,,,,,,,,,,,,,,,,,,,,,,,,,,,,,,,,,,,,,,,,,,,,,,,,,,,,,,,,,,,,,,
,,,,,775537,001,2025-03-17_14h12.46.286,Utility_discrimination_2024_2cat,2024.2.4,MacIntel,29.94011976,,,,,,,,4,"[0.5,0.5]","[0,1]",d,"[0.586428612097727,0.7085118474629236]","[0.413571387902273,0.2914881525370764]",110.3568,112.8519,1,s,1,0.9483,,-0.003741292,0.604569979,0.608311271,112.8549,112.8549,0,11,11,11,1,0.225662173,0.225662173,shape_difference3,1,,TRUE,,intensity,0.1,0.05,0.7,0.3,0.82,20,400,1E-11,3.5,0.01,0.5,0.1,,,,,,,,,,,,,,,,,,,,,,,,,,,,,,,,,,,,,,,,,,,,,,,,,,,,,,,,,,,,,,,,,,,,,,,,,,,,,,,,,
,,,,,775537,001,2025-03-17_14h12.46.286,Utility_discrimination_2024_2cat,2024.2.4,MacIntel,29.94011976,,,,,,,,1,"[0.5,0.5]","[0.924,0.383]",s,"[0.5,0.7748173464265704]","[0.5,0.22518265357342954]",112.8558,115.2519,1,d,1,0.8337,,-0.003741292,0.604569979,0.608311271,115.2551,115.2551,0,12,12,12,1,0.274817346,0.274817346,shape_difference4,1,,TRUE,,intensity,0.1,0.05,0.7,0.3,0.82,20,400,1E-11,3.5,0.01,0.5,0.1,,,,,,,,,,,,,,,,,,,,,,,,,,,,,,,,,,,,,,,,,,,,,,,,,,,,,,,,,,,,,,,,,,,,,,,,,,,,,,,,,
,,,,,775537,001,2025-03-17_14h12.46.286,Utility_discrimination_2024_2cat,2024.2.4,MacIntel,29.94011976,,,,,,,,2,"[0.5,0.5]","[0.707,0.707]",d,"[0.7539312280981512,0.6052550436813765]","[0.2460687719018489,0.3947449563186235]",115.256,117.6518,1,d,1,0.8428,,-0.510435314,0.404710629,0.915145943,117.6543,117.6543,0,13,13,13,1,0.274817346,0.274817346,shape_difference1,1,,TRUE,,intensity,0.1,0.05,0.7,0.3,0.82,20,400,1E-11,3.5,0.01,0.5,0.1,,,,,,,,,,,,,,,,,,,,,,,,,,,,,,,,,,,,,,,,,,,,,,,,,,,,,,,,,,,,,,,,,,,,,,,,,,,,,,,,,
,,,,,775537,001,2025-03-17_14h12.46.286,Utility_discrimination_2024_2cat,2024.2.4,MacIntel,29.94011976,,,,,,,,3,"[0.5,0.5]","[0.383,0.924]",d,"[0.47365134701532874,0.47365134701532874]","[0.5263486529846713,0.5263486529846713]",117.6551,120.2185,0,s,0,1.0144,,-0.09936101,0.537490534,0.636851544,120.2217,120.2217,0,14,14,14,1,-0.03726825,-0.03726825,shape_difference2,1,,TRUE,,intensity,0.1,0.05,0.7,0.3,0.82,20,400,1E-11,3.5,0.01,0.5,0.1,,,,,,,,,,,,,,,,,,,,,,,,,,,,,,,,,,,,,,,,,,,,,,,,,,,,,,,,,,,,,,,,,,,,,,,,,,,,,,,,,
,,,,,775537,001,2025-03-17_14h12.46.286,Utility_discrimination_2024_2cat,2024.2.4,MacIntel,29.94011976,,,,,,,,4,"[0.5,0.5]","[0,1]",d,"[0.5657699535565752,0.658672159494192]","[0.4342300464434248,0.341327840505808]",120.2226,122.6185,1,d,1,0.8494,,-0.026700702,0.552121039,0.578821741,122.6207,122.6207,0,15,15,15,1,0.171723116,0.171723116,shape_difference3,1,,TRUE,,intensity,0.1,0.05,0.7,0.3,0.82,20,400,1E-11,3.5,0.01,0.5,0.1,,,,,,,,,,,,,,,,,,,,,,,,,,,,,,,,,,,,,,,,,,,,,,,,,,,,,,,,,,,,,,,,,,,,,,,,,,,,,,,,,
,,,,,775537,001,2025-03-17_14h12.46.286,Utility_discrimination_2024_2cat,2024.2.4,MacIntel,29.94011976,,,,,,,,2,"[0.5,0.5]","[0.707,0.707]",d,"[0.5,0.7361666255365733]","[0.5,0.26383337446342664]",122.6216,124.9851,1,s,1,0.8231,,-0.118157943,0.566731222,0.684889165,124.9881,124.9881,0,16,16,16,1,0.236166626,0.236166626,shape_difference4,1,,TRUE,,intensity,0.1,0.05,0.7,0.3,0.82,20,400,1E-11,3.5,0.01,0.5,0.1,,,,,,,,,,,,,,,,,,,,,,,,,,,,,,,,,,,,,,,,,,,,,,,,,,,,,,,,,,,,,,,,,,,,,,,,,,,,,,,,,
,,,,,775537,001,2025-03-17_14h12.46.286,Utility_discrimination_2024_2cat,2024.2.4,MacIntel,29.94011976,,,,,,,,1,"[0.5,0.5]","[0.924,0.383]",s,"[0.630420181502283,0.630420181502283]","[0.369579818497717,0.369579818497717]",124.989,127.2518,1,d,1,0.7213,,-0.026700702,0.552121039,0.578821741,127.2539,127.2539,0,17,17,17,1,0.184469847,0.184469847,shape_difference2,1,,TRUE,,intensity,0.1,0.05,0.7,0.3,0.82,20,400,1E-11,3.5,0.01,0.5,0.1,,,,,,,,,,,,,,,,,,,,,,,,,,,,,,,,,,,,,,,,,,,,,,,,,,,,,,,,,,,,,,,,,,,,,,,,,,,,,,,,,
,,,,,775537,001,2025-03-17_14h12.46.286,Utility_discrimination_2024_2cat,2024.2.4,MacIntel,29.94011976,,,,,,,,0,"[0.5,0.5]","[1,0]",d,"[0.7182179619957938,0.5904518175805076]","[0.2817820380042062,0.4095481824194924]",127.2548,129.552,1,d,1,0.7328,,-0.118157943,0.566731222,0.684889165,129.5557,129.5557,0,18,18,18,1,0.236166626,0.236166626,shape_difference1,1,,TRUE,,intensity,0.1,0.05,0.7,0.3,0.82,20,400,1E-11,3.5,0.01,0.5,0.1,,,,,,,,,,,,,,,,,,,,,,,,,,,,,,,,,,,,,,,,,,,,,,,,,,,,,,,,,,,,,,,,,,,,,,,,,,,,,,,,,
,,,,,775537,001,2025-03-17_14h12.46.286,Utility_discrimination_2024_2cat,2024.2.4,MacIntel,29.94011976,,,,,,,,4,"[0.5,0.5]","[0,1]",d,"[0.6844698465378827,0.5]","[0.3155301534621173,0.5]",129.5566,131.785,1,s,1,0.6925,,-0.050981617,0.494068035,0.545049652,131.7872,131.7872,0,19,19,19,1,0.184469847,0.184469847,shape_difference0,1,,TRUE,,intensity,0.1,0.05,0.7,0.3,0.82,20,400,1E-11,3.5,0.01,0.5,0.1,,,,,,,,,,,,,,,,,,,,,,,,,,,,,,,,,,,,,,,,,,,,,,,,,,,,,,,,,,,,,,,,,,,,,,,,,,,,,,,,,
,,,,,775537,001,2025-03-17_14h12.46.286,Utility_discrimination_2024_2cat,2024.2.4,MacIntel,29.94011976,,,,,,,,1,"[0.5,0.5]","[0.924,0.383]",s,"[0.5,0.69671503713367]","[0.5,0.30328496286633]",131.788,134.1851,1,d,1,0.848,,-0.050981617,0.494068035,0.545049652,134.1879,134.1879,0,20,20,20,1,0.196715037,0.196715037,shape_difference4,1,,TRUE,,intensity,0.1,0.05,0.7,0.3,0.82,20,400,1E-11,3.5,0.01,0.5,0.1,,,,,,,,,,,,,,,,,,,,,,,,,,,,,,,,,,,,,,,,,,,,,,,,,,,,,,,,,,,,,,,,,,,,,,,,,,,,,,,,,
,,,,,775537,001,2025-03-17_14h12.46.286,Utility_discrimination_2024_2cat,2024.2.4,MacIntel,29.94011976,,,,,,,,2,"[0.5,0.5]","[0.707,0.707]",d,"[0.6817646943115111,0.5753418592221956]","[0.3182353056884889,0.4246581407778044]",134.1887,136.7852,1,s,1,1.0337,,-0.138426098,0.496127593,0.634553691,136.7898,136.7899,0,21,21,21,1,0.196715037,0.196715037,shape_difference1,1,,TRUE,,intensity,0.1,0.05,0.7,0.3,0.82,20,400,1E-11,3.5,0.01,0.5,0.1,,,,,,,,,,,,,,,,,,,,,,,,,,,,,,,,,,,,,,,,,,,,,,,,,,,,,,,,,,,,,,,,,,,,,,,,,,,,,,,,,
,,,,,775537,001,2025-03-17_14h12.46.286,Utility_discrimination_2024_2cat,2024.2.4,MacIntel,29.94011976,,,,,,,,0,"[0.5,0.5]","[1,0]",s,"[0.5959456051886609,0.5959456051886609]","[0.4040543948113391,0.4040543948113391]",136.7909,139.052,1,d,1,0.7021,,-0.138426098,0.496127593,0.634553691,139.0554,139.0554,0,22,22,22,1,0.13570807,0.13570807,shape_difference2,1,,TRUE,,intensity,0.1,0.05,0.7,0.3,0.82,20,400,1E-11,3.5,0.01,0.5,0.1,,,,,,,,,,,,,,,,,,,,,,,,,,,,,,,,,,,,,,,,,,,,,,,,,,,,,,,,,,,,,,,,,,,,,,,,,,,,,,,,,
,,,,,775537,001,2025-03-17_14h12.46.286,Utility_discrimination_2024_2cat,2024.2.4,MacIntel,29.94011976,,,,,,,,3,"[0.5,0.5]","[0.383,0.924]",d,"[0.6357080695737778,0.5]","[0.36429193042622215,0.5]",139.0564,141.2518,1,d,1,0.65,,-0.120490743,0.470685176,0.591175919,141.2552,141.2552,0,23,23,23,1,0.13570807,0.13570807,shape_difference0,1,,TRUE,,intensity,0.1,0.05,0.7,0.3,0.82,20,400,1E-11,3.5,0.01,0.5,0.1,,,,,,,,,,,,,,,,,,,,,,,,,,,,,,,,,,,,,,,,,,,,,,,,,,,,,,,,,,,,,,,,,,,,,,,,,,,,,,,,,
,,,,,775537,001,2025-03-17_14h12.46.286,Utility_discrimination_2024_2cat,2024.2.4,MacIntel,29.94011976,,,,,,,,0,"[0.5,0.5]","[1,0]",d,"[0.550024248918245,0.6206851331604658]","[0.44997575108175497,0.3793148668395342]",141.2564,143.6186,1,d,1,0.8141,,-0.158612068,0.441238695,0.599850764,143.6211,143.6212,0,24,24,24,1,0.130611616,0.130611616,shape_difference3,1,,TRUE,,intensity,0.1,0.05,0.7,0.3,0.82,20,400,1E-11,3.5,0.01,0.5,0.1,,,,,,,,,,,,,,,,,,,,,,,,,,,,,,,,,,,,,,,,,,,,,,,,,,,,,,,,,,,,,,,,,,,,,,,,,,,,,,,,,
,,,,,775537,001,2025-03-17_14h12.46.286,Utility_discrimination_2024_2cat,2024.2.4,MacIntel,29.94011976,,,,,,,,1,"[0.5,0.5]","[0.924,0.383]",d,"[0.5906809440250769,0.5]","[0.4093190559749232,0.5]",143.6222,145.9185,0,s,0,0.7507,,-0.067097964,0.445046575,0.512144539,145.9221,145.9222,0,25,25,25,1,0.090680944,0.090680944,shape_difference0,1,,TRUE,,intensity,0.1,0.05,0.7,0.3,0.82,20,400,1E-11,3.5,0.01,0.5,0.1,,,,,,,,,,,,,,,,,,,,,,,,,,,,,,,,,,,,,,,,,,,,,,,,,,,,,,,,,,,,,,,,,,,,,,,,,,,,,,,,,
,,,,,775537,001,2025-03-17_14h12.46.286,Utility_discrimination_2024_2cat,2024.2.4,MacIntel,29.94011976,,,,,,,,4,"[0.5,0.5]","[0,1]",d,"[0.657167979377494,0.5651464676424028]","[0.34283202062250595,0.43485353235759716]",145.9232,148.2184,1,s,1,0.7461,,-0.067097964,0.445046575,0.512144539,148.2213,148.2213,0,26,26,26,1,0.170095216,0.170095216,shape_difference1,1,,TRUE,,intensity,0.1,0.05,0.7,0.3,0.82,20,400,1E-11,3.5,0.01,0.5,0.1,,,,,,,,,,,,,,,,,,,,,,,,,,,,,,,,,,,,,,,,,,,,,,,,,,,,,,,,,,,,,,,,,,,,,,,,,,,,,,,,,
,,,,,775537,001,2025-03-17_14h12.46.286,Utility_discrimination_2024_2cat,2024.2.4,MacIntel,29.94011976,,,,,,,,3,"[0.5,0.5]","[0.383,0.924]",s,"[0.5,0.6700952157765088]","[0.5,0.3299047842234913]",148.2224,150.4518,1,d,1,0.6809,,-0.144584963,0.406347617,0.550932581,150.4553,150.4553,0,27,27,27,1,0.170095216,0.170095216,shape_difference4,1,,TRUE,,intensity,0.1,0.05,0.7,0.3,0.82,20,400,1E-11,3.5,0.01,0.5,0.1,,,,,,,,,,,,,,,,,,,,,,,,,,,,,,,,,,,,,,,,,,,,,,,,,,,,,,,,,,,,,,,,,,,,,,,,,,,,,,,,,
,,,,,775537,001,2025-03-17_14h12.46.286,Utility_discrimination_2024_2cat,2024.2.4,MacIntel,29.94011976,,,,,,,,2,"[0.5,0.5]","[0.707,0.707]",d,"[0.5351372241639378,0.5847697000717454]","[0.4648627758360622,0.41523029992825455]",150.4563,152.8186,1,d,1,0.8145,,-0.158612068,0.441238695,0.599850764,152.8221,152.8221,0,28,28,28,1,0.0917421,0.0917421,shape_difference3,1,,TRUE,,intensity,0.1,0.05,0.7,0.3,0.82,20,400,1E-11,3.5,0.01,0.5,0.1,,,,,,,,,,,,,,,,,,,,,,,,,,,,,,,,,,,,,,,,,,,,,,,,,,,,,,,,,,,,,,,,,,,,,,,,,,,,,,,,,
,,,,,775537,001,2025-03-17_14h12.46.286,Utility_discrimination_2024_2cat,2024.2.4,MacIntel,29.94011976,,,,,,,,0,"[0.5,0.5]","[1,0]",d,"[0.5641114274257293,0.5641114274257293]","[0.4358885725742707,0.4358885725742707]",152.823,155.0858,1,d,1,0.7279,,-0.023918249,0.566353461,0.59027171,155.088,155.088,0,29,29,29,1,0.090680944,0.090680944,shape_difference2,1,,TRUE,,intensity,0.1,0.05,0.7,0.3,0.82,20,400,1E-11,3.5,0.01,0.5,0.1,,,,,,,,,,,,,,,,,,,,,,,,,,,,,,,,,,,,,,,,,,,,,,,,,,,,,,,,,,,,,,,,,,,,,,,,,,,,,,,,,
,,,,,775537,001,2025-03-17_14h12.46.286,Utility_discrimination_2024_2cat,2024.2.4,MacIntel,29.94011976,,,,,,,,4,"[0.5,0.5]","[0,1]",d,"[0.7172035985389855,0.5]","[0.28279640146101453,0.5]",155.0899,157.3518,1,d,1,0.7173,,-0.078138993,0.387434732,0.465573725,157.3548,157.3548,0,30,30,30,1,0.217203599,0.217203599,shape_difference0,1,,TRUE,,intensity,0.1,0.05,0.7,0.3,0.82,20,400,1E-11,3.5,0.01,0.5,0.1,,,,,,,,,,,,,,,,,,,,,,,,,,,,,,,,,,,,,,,,,,,,,,,,,,,,,,,,,,,,,,,,,,,,,,,,,,,,,,,,,
,,,,,775537,001,2025-03-17_14h12.46.286,Utility_discrimination_2024_2cat,2024.2.4,MacIntel,29.94011976,,,,,,,,2,"[0.5,0.5]","[0.707,0.707]",d,"[0.5,0.6474032266493467]","[0.5,0.3525967733506533]",157.3558,159.5849,0,d,0,0.6878,,-0.171834932,0.374013296,0.545848228,159.5881,159.5882,0,31,31,31,1,0.147403227,0.147403227,shape_difference4,1,,TRUE,,intensity,0.1,0.05,0.7,0.3,0.82,20,400,1E-11,3.5,0.01,0.5,0.1,,,,,,,,,,,,,,,,,,,,,,,,,,,,,,,,,,,,,,,,,,,,,,,,,,,,,,,,,,,,,,,,,,,,,,,,,,,,,,,,,
,,,,,775537,001,2025-03-17_14h12.46.286,Utility_discrimination_2024_2cat,2024.2.4,MacIntel,29.94011976,,,,,,,,3,"[0.5,0.5]","[0.383,0.924]",s,"[0.5432750910224168,0.5432750910224168]","[0.4567249089775832,0.4567249089775832]",159.5892,162.052,1,s,1,0.9002,,-0.160589475,0.350306654,0.510896129,162.0551,162.0551,0,32,32,32,1,0.061209464,0.061209464,shape_difference2,1,,TRUE,,intensity,0.1,0.05,0.7,0.3,0.82,20,400,1E-11,3.5,0.01,0.5,0.1,,,,,,,,,,,,,,,,,,,,,,,,,,,,,,,,,,,,,,,,,,,,,,,,,,,,,,,,,,,,,,,,,,,,,,,,,,,,,,,,,
,,,,,775537,001,2025-03-17_14h12.46.286,Utility_discrimination_2024_2cat,2024.2.4,MacIntel,29.94011976,,,,,,,,1,"[0.5,0.5]","[0.924,0.383]",s,"[0.5253378217319599,0.5611283218807595]","[0.4746621782680402,0.4388716781192405]",162.0563,164.4855,1,s,1,0.8676,,-0.078138993,0.387434732,0.465573725,164.4892,164.4892,0,33,33,33,1,0.066156193,0.066156193,shape_difference3,1,,TRUE,,intensity,0.1,0.05,0.7,0.3,0.82,20,400,1E-11,3.5,0.01,0.5,0.1,,,,,,,,,,,,,,,,,,,,,,,,,,,,,,,,,,,,,,,,,,,,,,,,,,,,,,,,,,,,,,,,,,,,,,,,,,,,,,,,,
,,,,,775537,001,2025-03-17_14h12.46.286,Utility_discrimination_2024_2cat,2024.2.4,MacIntel,29.94011976,,,,,,,,0,"[0.5,0.5]","[1,0]",s,"[0.6362005814239964,0.5564554358066998]","[0.3637994185760036,0.44354456419330024]",164.4901,167.0841,1,s,1,1.0548,,-0.042308962,0.50250489,0.544813852,167.0871,167.0871,0,34,34,34,1,0.147403227,0.147403227,shape_difference1,1,,TRUE,,intensity,0.1,0.05,0.7,0.3,0.82,20,400,1E-11,3.5,0.01,0.5,0.1,,,,,,,,,,,,,,,,,,,,,,,,,,,,,,,,,,,,,,,,,,,,,,,,,,,,,,,,,,,,,,,,,,,,,,,,,,,,,,,,,
,,,,,775537,001,2025-03-17_14h12.46.286,Utility_discrimination_2024_2cat,2024.2.4,MacIntel,29.94011976,,,,,,,,2,"[0.5,0.5]","[0.707,0.707]",s,"[0.6786728434915077,0.5]","[0.3213271565084923,0.5]",167.088,169.3518,1,d,1,0.7251,,-0.180803695,0.29910644,0.479910135,169.3541,169.3541,0,35,35,35,1,0.178672843,0.178672843,shape_difference0,1,,TRUE,,intensity,0.1,0.05,0.7,0.3,0.82,20,400,1E-11,3.5,0.01,0.5,0.1,,,,,,,,,,,,,,,,,,,,,,,,,,,,,,,,,,,,,,,,,,,,,,,,,,,,,,,,,,,,,,,,,,,,,,,,,,,,,,,,,
,,,,,775537,001,2025-03-17_14h12.46.286,Utility_discrimination_2024_2cat,2024.2.4,MacIntel,29.94011976,,,,,,,,4,"[0.5,0.5]","[0,1]",d,"[0.5254779894661591,0.5254779894661591]","[0.47452201053384097,0.47452201053384097]",169.3551,171.7185,1,d,1,0.8126,,0.013911574,0.467109402,0.453197828,171.7208,171.7215,0,36,36,36,1,0.03603676,0.03603676,shape_difference2,1,,TRUE,,intensity,0.1,0.05,0.7,0.3,0.82,20,400,1E-11,3.5,0.01,0.5,0.1,,,,,,,,,,,,,,,,,,,,,,,,,,,,,,,,,,,,,,,,,,,,,,,,,,,,,,,,,,,,,,,,,,,,,,,,,,,,,,,,,
,,,,,775537,001,2025-03-17_14h12.46.286,Utility_discrimination_2024_2cat,2024.2.4,MacIntel,29.94011976,,,,,,,,1,"[0.5,0.5]","[0.924,0.383]",d,"[0.5,0.6974521905519012]","[0.5,0.3025478094480988]",171.7225,173.8851,1,d,1,0.6206,,-0.090658615,0.352456116,0.443114731,173.8882,173.8882,0,37,37,37,1,0.197452191,0.197452191,shape_difference4,1,,TRUE,,intensity,0.1,0.05,0.7,0.3,0.82,20,400,1E-11,3.5,0.01,0.5,0.1,,,,,,,,,,,,,,,,,,,,,,,,,,,,,,,,,,,,,,,,,,,,,,,,,,,,,,,,,,,,,,,,,,,,,,,,,,,,,,,,,
,,,,,775537,001,2025-03-17_14h12.46.286,Utility_discrimination_2024_2cat,2024.2.4,MacIntel,29.94011976,,,,,,,,3,"[0.5,0.5]","[0.383,0.924]",d,"[0.6149010112825593,0.5476267178801084]","[0.3850989887174407,0.45237328211989153]",173.8891,176.0851,1,d,1,0.6551,,-0.171576622,0.286796614,0.458373237,176.0873,176.0874,0,38,38,38,1,0.124351744,0.124351744,shape_difference1,1,,TRUE,,intensity,0.1,0.05,0.7,0.3,0.82,20,400,1E-11,3.5,0.01,0.5,0.1,,,,,,,,,,,,,,,,,,,,,,,,,,,,,,,,,,,,,,,,,,,,,,,,,,,,,,,,,,,,,,,,,,,,,,,,,,,,,,,,,
,,,,,775537,001,2025-03-17_14h12.46.286,Utility_discrimination_2024_2cat,2024.2.4,MacIntel,29.94011976,,,,,,,,2,"[0.5,0.5]","[0.707,0.707]",d,"[0.5169664228199629,0.5409320487875866]","[0.48303357718003714,0.4590679512124134]",176.0885,178.2843,1,d,1,0.6468,,-0.191020122,0.258190175,0.449210298,178.287,178.287,0,39,39,39,1,0.044298754,0.044298754,shape_difference3,1,,TRUE,,intensity,0.1,0.05,0.7,0.3,0.82,20,400,1E-11,3.5,0.01,0.5,0.1,,,,,,,,,,,,,,,,,,,,,,,,,,,,,,,,,,,,,,,,,,,,,,,,,,,,,,,,,,,,,,,,,,,,,,,,,,,,,,,,,
,,,,,775537,001,2025-03-17_14h12.46.286,Utility_discrimination_2024_2cat,2024.2.4,MacIntel,29.94011976,,,,,,,,3,"[0.5,0.5]","[0.383,0.924]",d,"[0.5068644072196966,0.5068644072196966]","[0.49313559278030344,0.49313559278030344]",178.288,180.6186,0,s,0,0.7664,,-0.18394784,0.248316998,0.432264838,180.6225,180.6225,0,40,40,40,1,0.009709204,0.009709204,shape_difference2,1,,TRUE,,intensity,0.1,0.05,0.7,0.3,0.82,20,400,1E-11,3.5,0.01,0.5,0.1,,,,,,,,,,,,,,,,,,,,,,,,,,,,,,,,,,,,,,,,,,,,,,,,,,,,,,,,,,,,,,,,,,,,,,,,,,,,,,,,,
,,,,,775537,001,2025-03-17_14h12.46.286,Utility_discrimination_2024_2cat,2024.2.4,MacIntel,29.94011976,,,,,,,,1,"[0.5,0.5]","[0.924,0.383]",d,"[0.5084307107333221,0.5203393647978842]","[0.49156928926667787,0.4796606352021158]",180.6234,183.0853,1,s,1,0.9001,,-0.099810016,0.302017827,0.401827843,183.089,183.089,0,41,41,41,1,0.0220123,0.0220123,shape_difference3,1,,TRUE,,intensity,0.1,0.05,0.7,0.3,0.82,20,400,1E-11,3.5,0.01,0.5,0.1,,,,,,,,,,,,,,,,,,,,,,,,,,,,,,,,,,,,,,,,,,,,,,,,,,,,,,,,,,,,,,,,,,,,,,,,,,,,,,,,,
,,,,,775537,001,2025-03-17_14h12.46.286,Utility_discrimination_2024_2cat,2024.2.4,MacIntel,29.94011976,,,,,,,,4,"[0.5,0.5]","[0,1]",s,"[0.5913841818646277,0.5378789411841476]","[0.40861581813537234,0.4621210588158524]",183.09,185.2845,1,d,1,0.6341,,0.009152004,0.411928194,0.402776189,185.2879,185.2879,0,42,42,42,1,0.09890063,0.09890063,shape_difference1,1,,TRUE,,intensity,0.1,0.05,0.7,0.3,0.82,20,400,1E-11,3.5,0.01,0.5,0.1,,,,,,,,,,,,,,,,,,,,,,,,,,,,,,,,,,,,,,,,,,,,,,,,,,,,,,,,,,,,,,,,,,,,,,,,,,,,,,,,,
,,,,,775537,001,2025-03-17_14h12.46.286,Utility_discrimination_2024_2cat,2024.2.4,MacIntel,29.94011976,,,,,,,,0,"[0.5,0.5]","[1,0]",d,"[0.5,0.6785578008971512]","[0.5,0.32144219910284877]",185.2896,187.6176,1,d,1,0.7655,,-0.054518098,0.446883636,0.501401734,187.6212,187.6212,0,43,43,43,1,0.178557801,0.178557801,shape_difference4,1,,TRUE,,intensity,0.1,0.05,0.7,0.3,0.82,20,400,1E-11,3.5,0.01,0.5,0.1,,,,,,,,,,,,,,,,,,,,,,,,,,,,,,,,,,,,,,,,,,,,,,,,,,,,,,,,,,,,,,,,,,,,,,,,,,,,,,,,,
,,,,,775537,001,2025-03-17_14h12.46.286,Utility_discrimination_2024_2cat,2024.2.4,MacIntel,29.94011976,,,,,,,,1,"[0.5,0.5]","[0.924,0.383]",d,"[0.651236951866015,0.5]","[0.3487630481339849,0.5]",187.6222,190.0186,1,d,1,0.8333,,-0.147620511,0.278358432,0.425978943,190.0224,190.0225,0,44,44,44,1,0.151236952,0.151236952,shape_difference0,1,,TRUE,,intensity,0.1,0.05,0.7,0.3,0.82,20,400,1E-11,3.5,0.01,0.5,0.1,,,,,,,,,,,,,,,,,,,,,,,,,,,,,,,,,,,,,,,,,,,,,,,,,,,,,,,,,,,,,,,,,,,,,,,,,,,,,,,,,
,,,,,775537,001,2025-03-17_14h12.46.286,Utility_discrimination_2024_2cat,2024.2.4,MacIntel,29.94011976,,,,,,,,2,"[0.5,0.5]","[0.707,0.707]",d,"[0.5753683462442437,0.5312403426531875]","[0.4246316537557563,0.4687596573468124]",190.0235,192.2185,1,d,1,0.6474,,-0.094824441,0.361285663,0.456110104,192.2213,192.2213,0,45,45,45,1,0.081567474,0.081567474,shape_difference1,1,,TRUE,,intensity,0.1,0.05,0.7,0.3,0.82,20,400,1E-11,3.5,0.01,0.5,0.1,,,,,,,,,,,,,,,,,,,,,,,,,,,,,,,,,,,,,,,,,,,,,,,,,,,,,,,,,,,,,,,,,,,,,,,,,,,,,,,,,
,,,,,775537,001,2025-03-17_14h12.46.286,Utility_discrimination_2024_2cat,2024.2.4,MacIntel,29.94011976,,,,,,,,0,"[0.5,0.5]","[1,0]",d,"[0.5529349160873923,0.5529349160873923]","[0.44706508391260774,0.44706508391260774]",192.2224,194.451,1,d,1,0.6705,,-0.062912641,0.382414135,0.445326776,194.4546,194.4546,0,46,46,46,1,0.074872583,0.074872583,shape_difference2,1,,TRUE,,intensity,0.1,0.05,0.7,0.3,0.82,20,400,1E-11,3.5,0.01,0.5,0.1,,,,,,,,,,,,,,,,,,,,,,,,,,,,,,,,,,,,,,,,,,,,,,,,,,,,,,,,,,,,,,,,,,,,,,,,,,,,,,,,,
,,,,,775537,001,2025-03-17_14h12.46.286,Utility_discrimination_2024_2cat,2024.2.4,MacIntel,29.94011976,,,,,,,,4,"[0.5,0.5]","[0,1]",d,"[0.6273205574490774,0.5]","[0.37267944255092256,0.5]",194.4558,196.8185,1,d,1,0.8002,,0.005618082,0.373835136,0.368217054,196.8222,196.8222,0,47,47,47,1,0.127320557,0.127320557,shape_difference0,1,,TRUE,,intensity,0.1,0.05,0.7,0.3,0.82,20,400,1E-11,3.5,0.01,0.5,0.1,,,,,,,,,,,,,,,,,,,,,,,,,,,,,,,,,,,,,,,,,,,,,,,,,,,,,,,,,,,,,,,,,,,,,,,,,,,,,,,,,
,,,,,775537,001,2025-03-17_14h12.46.286,Utility_discrimination_2024_2cat,2024.2.4,MacIntel,29.94011976,,,,,,,,3,"[0.5,0.5]","[0.383,0.924]",d,"[0.5,0.662783366638763]","[0.5,0.337216633361237]",196.8233,199.2841,1,s,1,0.9139,,-0.192940399,0.197833049,0.390773448,199.2864,199.2864,0,48,48,48,1,0.162783367,0.162783367,shape_difference4,1,,TRUE,,intensity,0.1,0.05,0.7,0.3,0.82,20,400,1E-11,3.5,0.01,0.5,0.1,,,,,,,,,,,,,,,,,,,,,,,,,,,,,,,,,,,,,,,,,,,,,,,,,,,,,,,,,,,,,,,,,,,,,,,,,,,,,,,,,
,,,,,775537,001,2025-03-17_14h12.46.286,Utility_discrimination_2024_2cat,2024.2.4,MacIntel,29.94011976,,,,,,,,0,"[0.5,0.5]","[1,0]",s,"[0.49921777300924586,0.49811285185520415]","[0.5007822269907541,0.5018871481447958]",199.2875,201.6176,1,s,1,0.7674,,-0.072169357,0.337690322,0.409859679,201.6212,201.6213,0,49,49,49,1,-0.002042368,-0.002042368,shape_difference3,1,,TRUE,,intensity,0.1,0.05,0.7,0.3,0.82,20,400,1E-11,3.5,0.01,0.5,0.1,,,,,,,,,,,,,,,,,,,,,,,,,,,,,,,,,,,,,,,,,,,,,,,,,,,,,,,,,,,,,,,,,,,,,,,,,,,,,,,,,
,,,,,775537,001,2025-03-17_14h12.46.286,Utility_discrimination_2024_2cat,2024.2.4,MacIntel,29.94011976,,,,,,,,4,"[0.5,0.5]","[0,1]",s,"[0.6018043884689348,0.5]","[0.3981956115310652,0.5]",201.6223,204.0186,1,d,1,0.8349,,0.002895189,0.332546442,0.329651253,204.0227,204.0227,0,50,50,50,1,0.101804388,0.101804388,shape_difference0,1,,TRUE,,intensity,0.1,0.05,0.7,0.3,0.82,20,400,1E-11,3.5,0.01,0.5,0.1,,,,,,,,,,,,,,,,,,,,,,,,,,,,,,,,,,,,,,,,,,,,,,,,,,,,,,,,,,,,,,,,,,,,,,,,,,,,,,,,,
,,,,,775537,001,2025-03-17_14h12.46.286,Utility_discrimination_2024_2cat,2024.2.4,MacIntel,29.94011976,,,,,,,,2,"[0.5,0.5]","[0.707,0.707]",d,"[0.5,0.6489598528761646]","[0.5,0.3510401471238353]",204.0237,206.3844,1,d,1,0.8172,,-0.098059164,0.294439911,0.392499075,206.3869,206.3869,0,51,51,51,1,0.148959853,0.148959853,shape_difference4,1,,TRUE,,intensity,0.1,0.05,0.7,0.3,0.82,20,400,1E-11,3.5,0.01,0.5,0.1,,,,,,,,,,,,,,,,,,,,,,,,,,,,,,,,,,,,,,,,,,,,,,,,,,,,,,,,,,,,,,,,,,,,,,,,,,,,,,,,,
,,,,,775537,001,2025-03-17_14h12.46.286,Utility_discrimination_2024_2cat,2024.2.4,MacIntel,29.94011976,,,,,,,,1,"[0.5,0.5]","[0.924,0.383]",d,"[0.5398752595492107,0.5398752595492107]","[0.4601247404507893,0.4601247404507893]",206.3879,208.8184,1,s,1,0.8821,,-0.182423137,0.248987787,0.431410924,208.8211,208.8212,0,52,52,52,1,0.05640065,0.05640065,shape_difference2,1,,TRUE,,intensity,0.1,0.05,0.7,0.3,0.82,20,400,1E-11,3.5,0.01,0.5,0.1,,,,,,,,,,,,,,,,,,,,,,,,,,,,,,,,,,,,,,,,,,,,,,,,,,,,,,,,,,,,,,,,,,,,,,,,,,,,,,,,,
,,,,,775537,001,2025-03-17_14h12.46.286,Utility_discrimination_2024_2cat,2024.2.4,MacIntel,29.94011976,,,,,,,,3,"[0.5,0.5]","[0.383,0.924]",s,"[0.5617099302226933,0.525578899648584]","[0.43829006977730667,0.47442110035141605]",208.823,211.2517,0,s,0,0.8888,,-0.199712991,0.174544142,0.374257133,211.2549,211.2549,0,53,53,53,1,0.066785639,0.066785639,shape_difference1,1,,TRUE,,intensity,0.1,0.05,0.7,0.3,0.82,20,400,1E-11,3.5,0.01,0.5,0.1,,,,,,,,,,,,,,,,,,,,,,,,,,,,,,,,,,,,,,,,,,,,,,,,,,,,,,,,,,,,,,,,,,,,,,,,,,,,,,,,,
,,,,,775537,001,2025-03-17_14h12.46.286,Utility_discrimination_2024_2cat,2024.2.4,MacIntel,29.94011976,,,,,,,,4,"[0.5,0.5]","[0,1]",d,"[0.49308081865214376,0.48330724917645124]","[0.5069191813478563,0.5166927508235488]",211.2559,213.6851,1,s,1,0.885,,-0.004606817,0.297104218,0.301711036,213.6873,213.6874,0,54,54,54,1,-0.018065748,-0.018065748,shape_difference3,1,,TRUE,,intensity,0.1,0.05,0.7,0.3,0.82,20,400,1E-11,3.5,0.01,0.5,0.1,,,,,,,,,,,,,,,,,,,,,,,,,,,,,,,,,,,,,,,,,,,,,,,,,,,,,,,,,,,,,,,,,,,,,,,,,,,,,,,,,
,,,,,775537,001,2025-03-17_14h12.46.286,Utility_discrimination_2024_2cat,2024.2.4,MacIntel,29.94011976,,,,,,,,2,"[0.5,0.5]","[0.707,0.707]",s,"[0.5,0.6353235114372395]","[0.5,0.3646764885627604]",213.6884,215.9842,1,s,1,0.7589,,-0.104303601,0.249374278,0.353677879,215.9872,215.9874,0,55,55,55,1,0.135323511,0.135323511,shape_difference4,1,,TRUE,,intensity,0.1,0.05,0.7,0.3,0.82,20,400,1E-11,3.5,0.01,0.5,0.1,,,,,,,,,,,,,,,,,,,,,,,,,,,,,,,,,,,,,,,,,,,,,,,,,,,,,,,,,,,,,,,,,,,,,,,,,,,,,,,,,
,,,,,775537,001,2025-03-17_14h12.46.286,Utility_discrimination_2024_2cat,2024.2.4,MacIntel,29.94011976,,,,,,,,3,"[0.5,0.5]","[0.383,0.924]",s,"[0.5284376068322743,0.5284376068322743]","[0.47156239316772575,0.47156239316772575]",215.9884,218.6518,1,d,1,1.1149,,-0.237507959,0.143946064,0.381454023,218.6546,218.6547,0,56,56,56,1,0.040222923,0.040222923,shape_difference2,1,,TRUE,,intensity,0.1,0.05,0.7,0.3,0.82,20,400,1E-11,3.5,0.01,0.5,0.1,,,,,,,,,,,,,,,,,,,,,,,,,,,,,,,,,,,,,,,,,,,,,,,,,,,,,,,,,,,,,,,,,,,,,,,,,,,,,,,,,
,,,,,775537,001,2025-03-17_14h12.46.286,Utility_discrimination_2024_2cat,2024.2.4,MacIntel,29.94011976,,,,,,,,1,"[0.5,0.5]","[0.924,0.383]",d,"[0.4878670518372759,0.4707288665734803]","[0.512132948162724,0.5292711334265198]",218.6555,220.9517,1,s,1,0.7476,,-0.030834103,0.325906026,0.356740129,220.9545,220.9545,0,57,57,57,1,-0.031678716,-0.031678716,shape_difference3,1,,TRUE,,intensity,0.1,0.05,0.7,0.3,0.82,20,400,1E-11,3.5,0.01,0.5,0.1,,,,,,,,,,,,,,,,,,,,,,,,,,,,,,,,,,,,,,,,,,,,,,,,,,,,,,,,,,,,,,,,,,,,,,,,,,,,,,,,,
,,,,,775537,001,2025-03-17_14h12.46.286,Utility_discrimination_2024_2cat,2024.2.4,MacIntel,29.94011976,,,,,,,,0,"[0.5,0.5]","[1,0]",s,"[0.6222928509252381,0.5506906514116517]","[0.3777071490747619,0.44930934858834826]",220.9555,223.3184,1,s,1,0.8212,,-0.078804936,0.290804743,0.36960968,223.3216,223.3216,0,58,58,58,1,0.13235157,0.13235157,shape_difference1,1,,TRUE,,intensity,0.1,0.05,0.7,0.3,0.82,20,400,1E-11,3.5,0.01,0.5,0.1,,,,,,,,,,,,,,,,,,,,,,,,,,,,,,,,,,,,,,,,,,,,,,,,,,,,,,,,,,,,,,,,,,,,,,,,,,,,,,,,,
,,,,,775537,001,2025-03-17_14h12.46.286,Utility_discrimination_2024_2cat,2024.2.4,MacIntel,29.94011976,,,,,,,,3,"[0.5,0.5]","[0.383,0.924]",s,"[0.5861559744157873,0.5]","[0.41384402558421274,0.5]",223.3225,225.7188,1,s,1,0.8378,,-0.266520896,0.102031766,0.368552661,225.7223,225.7223,0,59,59,59,1,0.086155974,0.086155974,shape_difference0,1,,TRUE,,intensity,0.1,0.05,0.7,0.3,0.82,20,400,1E-11,3.5,0.01,0.5,0.1,,,,,,,,,,,,,,,,,,,,,,,,,,,,,,,,,,,,,,,,,,,,,,,,,,,,,,,,,,,,,,,,,,,,,,,,,,,,,,,,,
,,,,,775537,001,2025-03-17_14h12.46.286,Utility_discrimination_2024_2cat,2024.2.4,MacIntel,29.94011976,,,,,,,,2,"[0.5,0.5]","[0.707,0.707]",s,"[0.48324262875387286,0.4595722949571241]","[0.5167573712461271,0.540427705042876]",225.7233,228.1851,1,d,1,0.9202,,-0.127088203,0.201627025,0.328715229,228.1873,228.1873,0,60,60,60,1,-0.043752928,-0.043752928,shape_difference3,1,,TRUE,,intensity,0.1,0.05,0.7,0.3,0.82,20,400,1E-11,3.5,0.01,0.5,0.1,,,,,,,,,,,,,,,,,,,,,,,,,,,,,,,,,,,,,,,,,,,,,,,,,,,,,,,,,,,,,,,,,,,,,,,,,,,,,,,,,
,,,,,775537,001,2025-03-17_14h12.46.286,Utility_discrimination_2024_2cat,2024.2.4,MacIntel,29.94011976,,,,,,,,0,"[0.5,0.5]","[1,0]",d,"[0.516844458106365,0.516844458106365]","[0.48315554189363497,0.48315554189363497]",228.1883,230.6184,1,d,1,0.8921,,-0.083694526,0.261524319,0.345218846,230.6212,230.6212,0,61,61,61,1,0.023825259,0.023825259,shape_difference2,1,,TRUE,,intensity,0.1,0.05,0.7,0.3,0.82,20,400,1E-11,3.5,0.01,0.5,0.1,,,,,,,,,,,,,,,,,,,,,,,,,,,,,,,,,,,,,,,,,,,,,,,,,,,,,,,,,,,,,,,,,,,,,,,,,,,,,,,,,
,,,,,775537,001,2025-03-17_14h12.46.286,Utility_discrimination_2024_2cat,2024.2.4,MacIntel,29.94011976,,,,,,,,4,"[0.5,0.5]","[0,1]",d,"[0.5738971439781337,0.5]","[0.4261028560218662,0.5]",230.6225,233.151,1,s,1,0.9686,,-0.026856274,0.282890696,0.30974697,233.1552,233.1552,0,62,62,62,1,0.073897144,0.073897144,shape_difference0,1,,TRUE,,intensity,0.1,0.05,0.7,0.3,0.82,20,400,1E-11,3.5,0.01,0.5,0.1,,,,,,,,,,,,,,,,,,,,,,,,,,,,,,,,,,,,,,,,,,,,,,,,,,,,,,,,,,,,,,,,,,,,,,,,,,,,,,,,,
,,,,,775537,001,2025-03-17_14h12.46.286,Utility_discrimination_2024_2cat,2024.2.4,MacIntel,29.94011976,,,,,,,,1,"[0.5,0.5]","[0.924,0.383]",s,"[0.5,0.620478817938087]","[0.5,0.379521182061913]",233.1562,235.5851,1,s,1,0.8808,,-0.047088471,0.292394034,0.339482504,235.5879,235.588,0,63,63,63,1,0.120478818,0.120478818,shape_difference4,1,,TRUE,,intensity,0.1,0.05,0.7,0.3,0.82,20,400,1E-11,3.5,0.01,0.5,0.1,,,,,,,,,,,,,,,,,,,,,,,,,,,,,,,,,,,,,,,,,,,,,,,,,,,,,,,,,,,,,,,,,,,,,,,,,,,,,,,,,
,,,,,775537,001,2025-03-17_14h12.46.286,Utility_discrimination_2024_2cat,2024.2.4,MacIntel,29.94011976,,,,,,,,3,"[0.5,0.5]","[0.383,0.924]",s,"[0.60568302887889,0.5438058442214447]","[0.39431697112110997,0.4561941557785553]",235.5891,237.7853,1,d,1,0.6328,,-0.288174246,0.089254994,0.37742924,237.7886,237.7886,0,64,64,64,1,0.114375572,0.114375572,shape_difference1,1,,TRUE,,intensity,0.1,0.05,0.7,0.3,0.82,20,400,1E-11,3.5,0.01,0.5,0.1,,,,,,,,,,,,,,,,,,,,,,,,,,,,,,,,,,,,,,,,,,,,,,,,,,,,,,,,,,,,,,,,,,,,,,,,,,,,,,,,,
,,,,,775537,001,2025-03-17_14h12.46.286,Utility_discrimination_2024_2cat,2024.2.4,MacIntel,29.94011976,,,,,,,,4,"[0.5,0.5]","[0,1]",d,"[0.4789513742884407,0.449219503505272]","[0.5210486257115593,0.5507804964947279]",237.7904,240.1176,1,s,1,0.7658,,-0.0430122,0.265363036,0.308375237,240.1212,240.1212,0,65,65,65,1,-0.054957247,-0.054957247,shape_difference3,1,,TRUE,,intensity,0.1,0.05,0.7,0.3,0.82,20,400,1E-11,3.5,0.01,0.5,0.1,,,,,,,,,,,,,,,,,,,,,,,,,,,,,,,,,,,,,,,,,,,,,,,,,,,,,,,,,,,,,,,,,,,,,,,,,,,,,,,,,
,,,,,775537,001,2025-03-17_14h12.46.286,Utility_discrimination_2024_2cat,2024.2.4,MacIntel,29.94011976,,,,,,,,1,"[0.5,0.5]","[0.924,0.383]",s,"[0.5,0.6037522661111325]","[0.5,0.3962477338888675]",240.1221,242.9843,1,s,1,1.326,,-0.058847401,0.273474928,0.332322328,242.9872,242.9872,0,66,66,66,1,0.103752266,0.103752266,shape_difference4,1,,TRUE,,intensity,0.1,0.05,0.7,0.3,0.82,20,400,1E-11,3.5,0.01,0.5,0.1,,,,,,,,,,,,,,,,,,,,,,,,,,,,,,,,,,,,,,,,,,,,,,,,,,,,,,,,,,,,,,,,,,,,,,,,,,,,,,,,,
,,,,,775537,001,2025-03-17_14h12.46.286,Utility_discrimination_2024_2cat,2024.2.4,MacIntel,29.94011976,,,,,,,,2,"[0.5,0.5]","[0.707,0.707]",s,"[0.5891938467022204,0.5369710425183446]","[0.4108061532977796,0.4630289574816554]",242.988,245.285,1,d,1,0.7471,,-0.143406743,0.182572716,0.32597946,245.2873,245.2873,0,67,67,67,1,0.096530137,0.096530137,shape_difference1,1,,TRUE,,intensity,0.1,0.05,0.7,0.3,0.82,20,400,1E-11,3.5,0.01,0.5,0.1,,,,,,,,,,,,,,,,,,,,,,,,,,,,,,,,,,,,,,,,,,,,,,,,,,,,,,,,,,,,,,,,,,,,,,,,,,,,,,,,,
,,,,,775537,001,2025-03-17_14h12.46.286,Utility_discrimination_2024_2cat,2024.2.4,MacIntel,29.94011976,,,,,,,,0,"[0.5,0.5]","[1,0]",d,"[0.5040480657352411,0.5040480657352411]","[0.495951934264759,0.495951934264759]",245.2882,247.5852,1,s,1,0.7461,,-0.087398141,0.222819178,0.310217319,247.5886,247.5886,0,68,68,68,1,0.005725694,0.005725694,shape_difference2,1,,TRUE,,intensity,0.1,0.05,0.7,0.3,0.82,20,400,1E-11,3.5,0.01,0.5,0.1,,,,,,,,,,,,,,,,,,,,,,,,,,,,,,,,,,,,,,,,,,,,,,,,,,,,,,,,,,,,,,,,,,,,,,,,,,,,,,,,,
,,,,,775537,001,2025-03-17_14h12.46.286,Utility_discrimination_2024_2cat,2024.2.4,MacIntel,29.94011976,,,,,,,,2,"[0.5,0.5]","[0.707,0.707]",s,"[0.563437938496898,0.5]","[0.43656206150310195,0.5]",247.5904,249.9509,1,s,1,0.8127,,-0.155338185,0.160413047,0.315751232,249.9545,249.9545,0,69,69,69,1,0.063437938,0.063437938,shape_difference0,1,,TRUE,,intensity,0.1,0.05,0.7,0.3,0.82,20,400,1E-11,3.5,0.01,0.5,0.1,,,,,,,,,,,,,,,,,,,,,,,,,,,,,,,,,,,,,,,,,,,,,,,,,,,,,,,,,,,,,,,,,,,,,,,,,,,,,,,,,
,,,,,775537,001,2025-03-17_14h12.46.286,Utility_discrimination_2024_2cat,2024.2.4,MacIntel,29.94011976,,,,,,,,0,"[0.5,0.5]","[1,0]",s,"[0.49434668490858347,0.49434668490858347]","[0.5056533150914165,0.5056533150914165]",249.9554,252.1842,0,s,0,0.6851,,-0.090280358,0.193975913,0.284256272,252.1873,252.1873,0,70,70,70,1,-0.007996202,-0.007996202,shape_difference2,1,,TRUE,,intensity,0.1,0.05,0.7,0.3,0.82,20,400,1E-11,3.5,0.01,0.5,0.1,,,,,,,,,,,,,,,,,,,,,,,,,,,,,,,,,,,,,,,,,,,,,,,,,,,,,,,,,,,,,,,,,,,,,,,,,,,,,,,,,
,,,,,775537,001,2025-03-17_14h12.46.286,Utility_discrimination_2024_2cat,2024.2.4,MacIntel,29.94011976,,,,,,,,1,"[0.5,0.5]","[0.924,0.383]",d,"[0.5541257028180055,0.5]","[0.44587429718199445,0.5]",252.1882,254.5852,1,d,1,0.8349,,-0.067536027,0.249396668,0.316932695,254.5891,254.5891,0,71,71,71,1,0.054125703,0.054125703,shape_difference0,1,,TRUE,,intensity,0.1,0.05,0.7,0.3,0.82,20,400,1E-11,3.5,0.01,0.5,0.1,,,,,,,,,,,,,,,,,,,,,,,,,,,,,,,,,,,,,,,,,,,,,,,,,,,,,,,,,,,,,,,,,,,,,,,,,,,,,,,,,
,,,,,775537,001,2025-03-17_14h12.46.286,Utility_discrimination_2024_2cat,2024.2.4,MacIntel,29.94011976,,,,,,,,4,"[0.5,0.5]","[0,1]",d,"[0.5790473270316886,0.5327652881527454]","[0.4209526729683114,0.4672347118472546]",254.5902,256.8852,1,d,1,0.7523,,-0.054962494,0.242963155,0.297925649,256.8879,256.8879,0,72,72,72,1,0.085549055,0.085549055,shape_difference1,1,,TRUE,,intensity,0.1,0.05,0.7,0.3,0.82,20,400,1E-11,3.5,0.01,0.5,0.1,,,,,,,,,,,,,,,,,,,,,,,,,,,,,,,,,,,,,,,,,,,,,,,,,,,,,,,,,,,,,,,,,,,,,,,,,,,,,,,,,
,,,,,775537,001,2025-03-17_14h12.46.286,Utility_discrimination_2024_2cat,2024.2.4,MacIntel,29.94011976,,,,,,,,3,"[0.5,0.5]","[0.383,0.924]",d,"[0.5,0.5914269644565422]","[0.5,0.40857303554345775]",256.889,259.284,1,s,1,0.8484,,-0.33832167,0.07825887,0.41658054,259.2864,259.2864,0,73,73,73,1,0.091426964,0.091426964,shape_difference4,1,,TRUE,,intensity,0.1,0.05,0.7,0.3,0.82,20,400,1E-11,3.5,0.01,0.5,0.1,,,,,,,,,,,,,,,,,,,,,,,,,,,,,,,,,,,,,,,,,,,,,,,,,,,,,,,,,,,,,,,,,,,,,,,,,,,,,,,,,
,,,,,775537,001,2025-03-17_14h12.46.286,Utility_discrimination_2024_2cat,2024.2.4,MacIntel,29.94011976,,,,,,,,1,"[0.5,0.5]","[0.924,0.383]",s,"[0.47398934988023333,0.4372484576745055]","[0.5260106501197667,0.5627515423254945]",259.2883,261.6852,1,s,1,0.8334,,-0.074091365,0.217660519,0.291751885,261.6894,261.6894,0,74,74,74,1,-0.067912925,-0.067912925,shape_difference3,1,,TRUE,,intensity,0.1,0.05,0.7,0.3,0.82,20,400,1E-11,3.5,0.01,0.5,0.1,,,,,,,,,,,,,,,,,,,,,,,,,,,,,,,,,,,,,,,,,,,,,,,,,,,,,,,,,,,,,,,,,,,,,,,,,,,,,,,,,
,,,,,775537,001,2025-03-17_14h12.46.286,Utility_discrimination_2024_2cat,2024.2.4,MacIntel,29.94011976,,,,,,,,0,"[0.5,0.5]","[1,0]",s,"[0.570612430350539,0.5292690052210568]","[0.42938756964946095,0.47073099477894326]",261.6905,264.1183,0,s,0,0.8807,,-0.092582866,0.181859188,0.274442054,264.1206,264.1208,0,75,75,75,1,0.076420379,0.076420379,shape_difference1,1,,TRUE,,intensity,0.1,0.05,0.7,0.3,0.82,20,400,1E-11,3.5,0.01,0.5,0.1,,,,,,,,,,,,,,,,,,,,,,,,,,,,,,,,,,,,,,,,,,,,,,,,,,,,,,,,,,,,,,,,,,,,,,,,,,,,,,,,,
,,,,,775537,001,2025-03-17_14h12.46.286,Utility_discrimination_2024_2cat,2024.2.4,MacIntel,29.94011976,,,,,,,,4,"[0.5,0.5]","[0,1]",d,"[0.545463058133737,0.5]","[0.4545369418662631,0.5]",264.1219,266.485,1,s,1,0.8237,,-0.063964739,0.213467085,0.277431824,266.4872,266.4873,0,76,76,76,1,0.045463058,0.045463058,shape_difference0,1,,TRUE,,intensity,0.1,0.05,0.7,0.3,0.82,20,400,1E-11,3.5,0.01,0.5,0.1,,,,,,,,,,,,,,,,,,,,,,,,,,,,,,,,,,,,,,,,,,,,,,,,,,,,,,,,,,,,,,,,,,,,,,,,,,,,,,,,,
,,,,,775537,001,2025-03-17_14h12.46.286,Utility_discrimination_2024_2cat,2024.2.4,MacIntel,29.94011976,,,,,,,,3,"[0.5,0.5]","[0.383,0.924]",s,"[0.5,0.5823255966451455]","[0.5,0.41767440335485445]",266.4891,269.1842,1,d,1,1.1476,,-0.382976986,0.064182469,0.447159455,269.1871,269.1871,0,77,77,77,1,0.082325597,0.082325597,shape_difference4,1,,TRUE,,intensity,0.1,0.05,0.7,0.3,0.82,20,400,1E-11,3.5,0.01,0.5,0.1,,,,,,,,,,,,,,,,,,,,,,,,,,,,,,,,,,,,,,,,,,,,,,,,,,,,,,,,,,,,,,,,,,,,,,,,,,,,,,,,,
,,,,,775537,001,2025-03-17_14h12.46.286,Utility_discrimination_2024_2cat,2024.2.4,MacIntel,29.94011976,,,,,,,,2,"[0.5,0.5]","[0.707,0.707]",d,"[0.4682272514561108,0.4233472071682674]","[0.5317727485438891,0.5766527928317327]",269.1882,271.5849,1,s,1,0.8525,,-0.093877657,0.207230278,0.301107935,271.5882,271.5882,0,78,78,78,1,-0.082957568,-0.082957568,shape_difference3,1,,TRUE,,intensity,0.1,0.05,0.7,0.3,0.82,20,400,1E-11,3.5,0.01,0.5,0.1,,,,,,,,,,,,,,,,,,,,,,,,,,,,,,,,,,,,,,,,,,,,,,,,,,,,,,,,,,,,,,,,,,,,,,,,,,,,,,,,,
,,,,,775537,001,2025-03-17_14h12.46.286,Utility_discrimination_2024_2cat,2024.2.4,MacIntel,29.94011976,,,,,,,,0,"[0.5,0.5]","[1,0]",s,"[0.5267090744387141,0.5267090744387141]","[0.47329092556128594,0.47329092556128594]",271.5893,274.0517,1,d,1,0.9264,,-0.095436036,0.170287267,0.265723302,274.0537,274.0539,0,79,79,79,1,0.03777804,0.03777804,shape_difference2,1,,TRUE,,intensity,0.1,0.05,0.7,0.3,0.82,20,400,1E-11,3.5,0.01,0.5,0.1,,,,,,,,,,,,,,,,,,,,,,,,,,,,,,,,,,,,,,,,,,,,,,,,,,,,,,,,,,,,,,,,,,,,,,,,,,,,,,,,,
,,,,,775537,001,2025-03-17_14h12.46.286,Utility_discrimination_2024_2cat,2024.2.4,MacIntel,29.94011976,,,,,,,,4,"[0.5,0.5]","[0,1]",d,"[0.5360989725061358,0.5]","[0.46390102749386414,0.5]",274.0549,276.4183,0,s,0,0.814,,-0.070868348,0.196035065,0.266903413,276.4203,276.4203,0,80,80,80,1,0.036098973,0.036098973,shape_difference0,1,,TRUE,,intensity,0.1,0.05,0.7,0.3,0.82,20,400,1E-11,3.5,0.01,0.5,0.1,,,,,,,,,,,,,,,,,,,,,,,,,,,,,,,,,,,,,,,,,,,,,,,,,,,,,,,,,,,,,,,,,,,,,,,,,,,,,,,,,
,,,,,775537,001,2025-03-17_14h12.46.286,Utility_discrimination_2024_2cat,2024.2.4,MacIntel,29.94011976,,,,,,,,3,"[0.5,0.5]","[0.383,0.924]",d,"[0.5,0.574641172363755]","[0.5,0.425358827636245]",276.422,278.6182,0,s,0,0.6584,,-0.42359222,0.045476742,0.469068962,278.6212,278.6212,0,81,81,81,1,0.074641172,0.074641172,shape_difference4,1,,TRUE,,intensity,0.1,0.05,0.7,0.3,0.82,20,400,1E-11,3.5,0.01,0.5,0.1,,,,,,,,,,,,,,,,,,,,,,,,,,,,,,,,,,,,,,,,,,,,,,,,,,,,,,,,,,,,,,,,,,,,,,,,,,,,,,,,,
,,,,,775537,001,2025-03-17_14h12.46.286,Utility_discrimination_2024_2cat,2024.2.4,MacIntel,29.94011976,,,,,,,,2,"[0.5,0.5]","[0.707,0.707]",d,"[0.461372162834707,0.4068090821390843]","[0.5386278371652929,0.5931909178609157]",278.6223,280.8849,1,s,1,0.7232,,-0.096118044,0.187077141,0.283195185,280.8877,280.8878,0,82,82,82,1,-0.100855972,-0.100855972,shape_difference3,1,,TRUE,,intensity,0.1,0.05,0.7,0.3,0.82,20,400,1E-11,3.5,0.01,0.5,0.1,,,,,,,,,,,,,,,,,,,,,,,,,,,,,,,,,,,,,,,,,,,,,,,,,,,,,,,,,,,,,,,,,,,,,,,,,,,,,,,,,
,,,,,775537,001,2025-03-17_14h12.46.286,Utility_discrimination_2024_2cat,2024.2.4,MacIntel,29.94011976,,,,,,,,1,"[0.5,0.5]","[0.924,0.383]",s,"[0.5170370039370175,0.5170370039370175]","[0.48296299606298254,0.48296299606298254]",280.8886,283.2851,1,s,1,0.8522,,0.001459546,0.280411462,0.278951915,283.2871,283.2872,0,83,83,83,1,0.024097601,0.024097601,shape_difference2,1,,TRUE,,intensity,0.1,0.05,0.7,0.3,0.82,20,400,1E-11,3.5,0.01,0.5,0.1,,,,,,,,,,,,,,,,,,,,,,,,,,,,,,,,,,,,,,,,,,,,,,,,,,,,,,,,,,,,,,,,,,,,,,,,,,,,,,,,,
,,,,,775537,001,2025-03-17_14h12.46.286,Utility_discrimination_2024_2cat,2024.2.4,MacIntel,29.94011976,,,,,,,,0,"[0.5,0.5]","[1,0]",s,"[0.6082131496341064,0.5448545847509337]","[0.39178685036589356,0.45514541524906627]",283.2882,285.5185,1,s,1,0.6671,,-0.083258768,0.19122647,0.274485238,285.5217,285.5217,0,84,84,84,1,0.117113798,0.117113798,shape_difference1,1,,TRUE,,intensity,0.1,0.05,0.7,0.3,0.82,20,400,1E-11,3.5,0.01,0.5,0.1,,,,,,,,,,,,,,,,,,,,,,,,,,,,,,,,,,,,,,,,,,,,,,,,,,,,,,,,,,,,,,,,,,,,,,,,,,,,,,,,,
,,,,,775537,001,2025-03-17_14h12.46.286,Utility_discrimination_2024_2cat,2024.2.4,MacIntel,29.94011976,,,,,,,,2,"[0.5,0.5]","[0.707,0.707]",s,"[0.5587340682670117,0.5]","[0.4412659317329883,0.5]",285.5235,287.6518,0,s,0,0.5801,,-0.098178311,0.169180783,0.267359094,287.6551,287.6552,0,85,85,85,1,0.058734068,0.058734068,shape_difference0,1,,TRUE,,intensity,0.1,0.05,0.7,0.3,0.82,20,400,1E-11,3.5,0.01,0.5,0.1,,,,,,,,,,,,,,,,,,,,,,,,,,,,,,,,,,,,,,,,,,,,,,,,,,,,,,,,,,,,,,,,,,,,,,,,,,,,,,,,,
,,,,,775537,001,2025-03-17_14h12.46.286,Utility_discrimination_2024_2cat,2024.2.4,MacIntel,29.94011976,,,,,,,,1,"[0.5,0.5]","[0.924,0.383]",d,"[0.5063739317545463,0.5063739317545463]","[0.4936260682454537,0.4936260682454537]",287.6562,289.7185,1,s,1,0.5023,,-0.007860321,0.261670995,0.269531316,289.7224,289.7224,0,86,86,86,1,0.009015462,0.009015462,shape_difference2,1,,TRUE,,intensity,0.1,0.05,0.7,0.3,0.82,20,400,1E-11,3.5,0.01,0.5,0.1,,,,,,,,,,,,,,,,,,,,,,,,,,,,,,,,,,,,,,,,,,,,,,,,,,,,,,,,,,,,,,,,,,,,,,,,,,,,,,,,,
,,,,,775537,001,2025-03-17_14h12.46.286,Utility_discrimination_2024_2cat,2024.2.4,MacIntel,29.94011976,,,,,,,,3,"[0.5,0.5]","[0.383,0.924]",s,"[0.5929475469829236,0.5385269594095885]","[0.4070524530170764,0.46147304059041155]",289.7235,291.785,1,s,1,0.5175,,-0.46027311,0.019805064,0.480078174,291.7871,291.7871,0,87,87,87,1,0.100592583,0.100592583,shape_difference1,1,,TRUE,,intensity,0.1,0.05,0.7,0.3,0.82,20,400,1E-11,3.5,0.01,0.5,0.1,,,,,,,,,,,,,,,,,,,,,,,,,,,,,,,,,,,,,,,,,,,,,,,,,,,,,,,,,,,,,,,,,,,,,,,,,,,,,,,,,
,,,,,775537,001,2025-03-17_14h12.46.286,Utility_discrimination_2024_2cat,2024.2.4,MacIntel,29.94011976,,,,,,,,4,"[0.5,0.5]","[0,1]",s,"[0.45559670502010857,0.3928756016673116]","[0.5444032949798914,0.6071243983326884]",291.7881,293.985,0,d,0,0.6549,,0.001964705,0.253538758,0.251574053,293.9872,293.9872,0,88,88,88,1,-0.115935496,-0.115935496,shape_difference3,1,,TRUE,,intensity,0.1,0.05,0.7,0.3,0.82,20,400,1E-11,3.5,0.01,0.5,0.1,,,,,,,,,,,,,,,,,,,,,,,,,,,,,,,,,,,,,,,,,,,,,,,,,,,,,,,,,,,,,,,,,,,,,,,,,,,,,,,,,
,,,,,775537,001,2025-03-17_14h12.46.286,Utility_discrimination_2024_2cat,2024.2.4,MacIntel,29.94011976,,,,,,,,0,"[0.5,0.5]","[1,0]",s,"[0.5,0.6077538301446509]","[0.5,0.3922461698553491]",293.989,296.0852,1,d,1,0.5333,,-0.038058549,0.264659547,0.302718096,296.089,296.089,0,89,89,89,1,0.10775383,0.10775383,shape_difference4,1,,TRUE,,intensity,0.1,0.05,0.7,0.3,0.82,20,400,1E-11,3.5,0.01,0.5,0.1,,,,,,,,,,,,,,,,,,,,,,,,,,,,,,,,,,,,,,,,,,,,,,,,,,,,,,,,,,,,,,,,,,,,,,,,,,,,,,,,,
,,,,,775537,001,2025-03-17_14h12.46.286,Utility_discrimination_2024_2cat,2024.2.4,MacIntel,29.94011976,,,,,,,,1,"[0.5,0.5]","[0.924,0.383]",d,"[0.5910979555200655,0.5]","[0.40890204447993456,0.5]",296.0901,298.4184,1,d,1,0.7889,,-0.026055231,0.237876473,0.263931704,298.4215,298.4215,0,90,90,90,1,0.091097956,0.091097956,shape_difference0,1,,TRUE,,intensity,0.1,0.05,0.7,0.3,0.82,20,400,1E-11,3.5,0.01,0.5,0.1,,,,,,,,,,,,,,,,,,,,,,,,,,,,,,,,,,,,,,,,,,,,,,,,,,,,,,,,,,,,,,,,,,,,,,,,,,,,,,,,,
,,,,,775537,001,2025-03-17_14h12.46.286,Utility_discrimination_2024_2cat,2024.2.4,MacIntel,29.94011976,,,,,,,,4,"[0.5,0.5]","[0,1]",d,"[0.5839179765167387,0.53478418290683]","[0.41608202348326123,0.46521581709316995]",298.4226,300.5182,0,d,0,0.5599,,5.24919E-05,0.230600361,0.230547869,300.5204,300.5204,0,91,91,91,1,0.090820321,0.090820321,shape_difference1,1,,TRUE,,intensity,0.1,0.05,0.7,0.3,0.82,20,400,1E-11,3.5,0.01,0.5,0.1,,,,,,,,,,,,,,,,,,,,,,,,,,,,,,,,,,,,,,,,,,,,,,,,,,,,,,,,,,,,,,,,,,,,,,,,,,,,,,,,,
,,,,,775537,001,2025-03-17_14h12.46.286,Utility_discrimination_2024_2cat,2024.2.4,MacIntel,29.94011976,,,,,,,,2,"[0.5,0.5]","[0.707,0.707]",s,"[0.5,0.5952983662159397]","[0.5,0.40470163378406027]",300.5214,302.5185,1,s,1,0.4322,,-0.101750647,0.146891824,0.248642471,302.5208,302.5209,0,92,92,92,1,0.095298366,0.095298366,shape_difference4,1,,TRUE,,intensity,0.1,0.05,0.7,0.3,0.82,20,400,1E-11,3.5,0.01,0.5,0.1,,,,,,,,,,,,,,,,,,,,,,,,,,,,,,,,,,,,,,,,,,,,,,,,,,,,,,,,,,,,,,,,,,,,,,,,,,,,,,,,,
,,,,,775537,001,2025-03-17_14h12.46.286,Utility_discrimination_2024_2cat,2024.2.4,MacIntel,29.94011976,,,,,,,,3,"[0.5,0.5]","[0.383,0.924]",s,"[0.49687521602206725,0.49687521602206725]","[0.5031247839779328,0.5031247839779328]",302.5227,304.585,0,s,0,0.5184,,-0.195631377,0.072595457,0.268226834,304.5872,304.5873,0,93,93,93,1,-0.004419779,-0.004419779,shape_difference2,1,,TRUE,,intensity,0.1,0.05,0.7,0.3,0.82,20,400,1E-11,3.5,0.01,0.5,0.1,,,,,,,,,,,,,,,,,,,,,,,,,,,,,,,,,,,,,,,,,,,,,,,,,,,,,,,,,,,,,,,,,,,,,,,,,,,,,,,,,
,,,,,775537,001,2025-03-17_14h12.46.286,Utility_discrimination_2024_2cat,2024.2.4,MacIntel,29.94011976,,,,,,,,0,"[0.5,0.5]","[1,0]",d,"[0.476326068425905,0.44288586742959857]","[0.5236739315740949,0.5571141325704014]",304.5891,306.8518,0,s,0,0.7032,,-0.049588367,0.235572196,0.285160562,306.8558,306.8558,0,94,94,94,1,-0.061811832,-0.061811832,shape_difference3,1,,TRUE,,intensity,0.1,0.05,0.7,0.3,0.82,20,400,1E-11,3.5,0.01,0.5,0.1,,,,,,,,,,,,,,,,,,,,,,,,,,,,,,,,,,,,,,,,,,,,,,,,,,,,,,,,,,,,,,,,,,,,,,,,,,,,,,,,,
,,,,,775537,001,2025-03-17_14h12.46.286,Utility_discrimination_2024_2cat,2024.2.4,MacIntel,29.94011976,,,,,,,,3,"[0.5,0.5]","[0.383,0.924]",d,"[0.5825933184089294,0.5]","[0.4174066815910706,0.5]",306.8568,309.1516,1,s,1,0.7548,,-0.182751271,0.091289471,0.274040742,309.1535,309.1535,0,95,95,95,1,0.082593318,0.082593318,shape_difference0,1,,TRUE,,intensity,0.1,0.05,0.7,0.3,0.82,20,400,1E-11,3.5,0.01,0.5,0.1,,,,,,,,,,,,,,,,,,,,,,,,,,,,,,,,,,,,,,,,,,,,,,,,,,,,,,,,,,,,,,,,,,,,,,,,,,,,,,,,,
,,,,,775537,001,2025-03-17_14h12.46.286,Utility_discrimination_2024_2cat,2024.2.4,MacIntel,29.94011976,,,,,,,,2,"[0.5,0.5]","[0.707,0.707]",s,"[0.48498512804112537,0.46377613135770185]","[0.5150148719588746,0.5362238686422981]",309.1543,311.2522,0,s,0,0.5614,,-0.091087633,0.188610302,0.279697935,311.2542,311.2542,0,96,96,96,1,-0.039203321,-0.039203321,shape_difference3,1,,TRUE,,intensity,0.1,0.05,0.7,0.3,0.82,20,400,1E-11,3.5,0.01,0.5,0.1,,,,,,,,,,,,,,,,,,,,,,,,,,,,,,,,,,,,,,,,,,,,,,,,,,,,,,,,,,,,,,,,,,,,,,,,,,,,,,,,,
,,,,,775537,001,2025-03-17_14h12.46.286,Utility_discrimination_2024_2cat,2024.2.4,MacIntel,29.94011976,,,,,,,,4,"[0.5,0.5]","[0,1]",d,"[0.5247384527573632,0.5247384527573632]","[0.47526154724263675,0.47526154724263675]",311.2553,313.4516,1,s,1,0.6502,,-0.018557119,0.200613404,0.219170523,313.4539,313.4539,0,97,97,97,1,0.034990739,0.034990739,shape_difference2,1,,TRUE,,intensity,0.1,0.05,0.7,0.3,0.82,20,400,1E-11,3.5,0.01,0.5,0.1,,,,,,,,,,,,,,,,,,,,,,,,,,,,,,,,,,,,,,,,,,,,,,,,,,,,,,,,,,,,,,,,,,,,,,,,,,,,,,,,,
,,,,,775537,001,2025-03-17_14h12.46.286,Utility_discrimination_2024_2cat,2024.2.4,MacIntel,29.94011976,,,,,,,,1,"[0.5,0.5]","[0.924,0.383]",s,"[0.5,0.5872526221690493]","[0.5,0.4127473778309508]",313.4562,315.4516,1,d,1,0.4513,,0.007571525,0.283158456,0.275586932,315.4536,315.4536,0,98,98,98,1,0.087252622,0.087252622,shape_difference4,1,,TRUE,,intensity,0.1,0.05,0.7,0.3,0.82,20,400,1E-11,3.5,0.01,0.5,0.1,,,,,,,,,,,,,,,,,,,,,,,,,,,,,,,,,,,,,,,,,,,,,,,,,,,,,,,,,,,,,,,,,,,,,,,,,,,,,,,,,
,,,,,775537,001,2025-03-17_14h12.46.286,Utility_discrimination_2024_2cat,2024.2.4,MacIntel,29.94011976,,,,,,,,1,"[0.5,0.5]","[0.924,0.383]",d,"[0.6201329953330985,0.5497953865936978]","[0.37986700466690143,0.45020461340630225]",315.4547,317.4847,1,d,1,0.4889,,0.005914016,0.267250492,0.261336477,317.4868,317.4868,0,99,99,99,1,0.130014064,0.130014064,shape_difference1,1,,TRUE,,intensity,0.1,0.05,0.7,0.3,0.82,20,400,1E-11,3.5,0.01,0.5,0.1,,,,,,,,,,,,,,,,,,,,,,,,,,,,,,,,,,,,,,,,,,,,,,,,,,,,,,,,,,,,,,,,,,,,,,,,,,,,,,,,,
,,,,,775537,001,2025-03-17_14h12.46.286,Utility_discrimination_2024_2cat,2024.2.4,MacIntel,29.94011976,,,,,,,,4,"[0.5,0.5]","[0,1]",d,"[0.6081940539421147,0.5448466695452705]","[0.3918059460578853,0.45515333045472955]",317.4885,319.6515,1,d,1,0.6118,,-0.03322772,0.195030801,0.228258522,319.6545,319.6545,0,100,100,100,1,0.117093132,0.117093132,shape_difference1,1,,TRUE,,intensity,0.1,0.05,0.7,0.3,0.82,20,400,1E-11,3.5,0.01,0.5,0.1,,,,,,,,,,,,,,,,,,,,,,,,,,,,,,,,,,,,,,,,,,,,,,,,,,,,,,,,,,,,,,,,,,,,,,,,,,,,,,,,,
,,,,,775537,001,2025-03-17_14h12.46.286,Utility_discrimination_2024_2cat,2024.2.4,MacIntel,29.94011976,,,,,,,,3,"[0.5,0.5]","[0.383,0.924]",d,"[0.5,0.5806221690565394]","[0.5,0.4193778309434606]",319.6555,321.6839,1,d,1,0.492,,-0.134849382,0.156668919,0.291518301,321.6868,321.6868,0,101,101,101,1,0.080622169,0.080622169,shape_difference4,1,,TRUE,,intensity,0.1,0.05,0.7,0.3,0.82,20,400,1E-11,3.5,0.01,0.5,0.1,,,,,,,,,,,,,,,,,,,,,,,,,,,,,,,,,,,,,,,,,,,,,,,,,,,,,,,,,,,,,,,,,,,,,,,,,,,,,,,,,
,,,,,775537,001,2025-03-17_14h12.46.286,Utility_discrimination_2024_2cat,2024.2.4,MacIntel,29.94011976,,,,,,,,2,"[0.5,0.5]","[0.707,0.707]",d,"[0.4976291390234897,0.4942802205161997]","[0.5023708609765103,0.5057197794838003]",321.6879,323.985,0,s,0,0.7533,,-0.092753549,0.17316449,0.265918039,323.9869,323.987,0,102,102,102,1,-0.006190238,-0.006190238,shape_difference3,1,,TRUE,,intensity,0.1,0.05,0.7,0.3,0.82,20,400,1E-11,3.5,0.01,0.5,0.1,,,,,,,,,,,,,,,,,,,,,,,,,,,,,,,,,,,,,,,,,,,,,,,,,,,,,,,,,,,,,,,,,,,,,,,,,,,,,,,,,
,,,,,775537,001,2025-03-17_14h12.46.286,Utility_discrimination_2024_2cat,2024.2.4,MacIntel,29.94011976,,,,,,,,0,"[0.5,0.5]","[1,0]",d,"[0.5162261676727325,0.5162261676727325]","[0.4837738323272674,0.4837738323272674]",323.988,326.2518,1,s,1,0.6997,,-0.058330278,0.19956528,0.257895558,326.2546,326.2546,0,103,103,103,1,0.022950732,0.022950732,shape_difference2,1,,TRUE,,intensity,0.1,0.05,0.7,0.3,0.82,20,400,1E-11,3.5,0.01,0.5,0.1,,,,,,,,,,,,,,,,,,,,,,,,,,,,,,,,,,,,,,,,,,,,,,,,,,,,,,,,,,,,,,,,,,,,,,,,,,,,,,,,,
,,,,,775537,001,2025-03-17_14h12.46.286,Utility_discrimination_2024_2cat,2024.2.4,MacIntel,29.94011976,,,,,,,,3,"[0.5,0.5]","[0.383,0.924]",s,"[0.5756062401926428,0.5]","[0.42439375980735716,0.5]",326.2565,328.3517,1,d,1,0.5449,,-0.092375787,0.196879222,0.289255009,328.3545,328.3554,0,104,104,104,1,0.07560624,0.07560624,shape_difference0,1,,TRUE,,intensity,0.1,0.05,0.7,0.3,0.82,20,400,1E-11,3.5,0.01,0.5,0.1,,,,,,,,,,,,,,,,,,,,,,,,,,,,,,,,,,,,,,,,,,,,,,,,,,,,,,,,,,,,,,,,,,,,,,,,,,,,,,,,,
,,,,,775537,001,2025-03-17_14h12.46.286,Utility_discrimination_2024_2cat,2024.2.4,MacIntel,29.94011976,,,,,,,,1,"[0.5,0.5]","[0.924,0.383]",d,"[0.5140249492788284,0.533835647868505]","[0.48597505072117164,0.466164352131495]",328.3564,330.3518,1,d,1,0.4446,,0.004427944,0.247468404,0.24304046,330.3553,330.3553,0,105,105,105,1,0.036618667,0.036618667,shape_difference3,1,,TRUE,,intensity,0.1,0.05,0.7,0.3,0.82,20,400,1E-11,3.5,0.01,0.5,0.1,,,,,,,,,,,,,,,,,,,,,,,,,,,,,,,,,,,,,,,,,,,,,,,,,,,,,,,,,,,,,,,,,,,,,,,,,,,,,,,,,
,,,,,775537,001,2025-03-17_14h12.46.286,Utility_discrimination_2024_2cat,2024.2.4,MacIntel,29.94011976,,,,,,,,0,"[0.5,0.5]","[1,0]",d,"[0.5947889740361116,0.5392902349089077]","[0.4052110259638884,0.4607097650910923]",330.3563,332.4517,1,s,1,0.5477,,-0.065075169,0.192009722,0.257084892,332.4551,332.4551,0,106,106,106,1,0.10258547,0.10258547,shape_difference1,1,,TRUE,,intensity,0.1,0.05,0.7,0.3,0.82,20,400,1E-11,3.5,0.01,0.5,0.1,,,,,,,,,,,,,,,,,,,,,,,,,,,,,,,,,,,,,,,,,,,,,,,,,,,,,,,,,,,,,,,,,,,,,,,,,,,,,,,,,
,,,,,775537,001,2025-03-17_14h12.46.286,Utility_discrimination_2024_2cat,2024.2.4,MacIntel,29.94011976,,,,,,,,2,"[0.5,0.5]","[0.707,0.707]",s,"[0.5697143808400128,0.5]","[0.4302856191599872,0.5]",332.4561,334.7182,1,s,1,0.7243,,-0.094201433,0.154272075,0.248473508,334.7203,334.7203,0,107,107,107,1,0.069714381,0.069714381,shape_difference0,1,,TRUE,,intensity,0.1,0.05,0.7,0.3,0.82,20,400,1E-11,3.5,0.01,0.5,0.1,,,,,,,,,,,,,,,,,,,,,,,,,,,,,,,,,,,,,,,,,,,,,,,,,,,,,,,,,,,,,,,,,,,,,,,,,,,,,,,,,
,,,,,775537,001,2025-03-17_14h12.46.286,Utility_discrimination_2024_2cat,2024.2.4,MacIntel,29.94011976,,,,,,,,4,"[0.5,0.5]","[0,1]",s,"[0.5067754622761359,0.5067754622761359]","[0.4932245377238641,0.4932245377238641]",334.7213,336.5845,0,s,0,0.3127,,-0.044620199,0.189779591,0.23439979,336.5876,336.5876,0,108,108,108,1,0.009583398,0.009583398,shape_difference2,1,,TRUE,,intensity,0.1,0.05,0.7,0.3,0.82,20,400,1E-11,3.5,0.01,0.5,0.1,,,,,,,,,,,,,,,,,,,,,,,,,,,,,,,,,,,,,,,,,,,,,,,,,,,,,,,,,,,,,,,,,,,,,,,,,,,,,,,,,
,,,,,775537,001,2025-03-17_14h12.46.286,Utility_discrimination_2024_2cat,2024.2.4,MacIntel,29.94011976,,,,,,,,2,"[0.5,0.5]","[0.707,0.707]",d,"[0.5,0.5750669847159713]","[0.5,0.42493301528402866]",336.5887,339.118,1,s,1,0.9759,,-0.088215785,0.188966549,0.277182334,339.121,339.121,0,109,109,109,1,0.075066985,0.075066985,shape_difference4,1,,TRUE,,intensity,0.1,0.05,0.7,0.3,0.82,20,400,1E-11,3.5,0.01,0.5,0.1,,,,,,,,,,,,,,,,,,,,,,,,,,,,,,,,,,,,,,,,,,,,,,,,,,,,,,,,,,,,,,,,,,,,,,,,,,,,,,,,,
,,,,,775537,001,2025-03-17_14h12.46.286,Utility_discrimination_2024_2cat,2024.2.4,MacIntel,29.94011976,,,,,,,,4,"[0.5,0.5]","[0,1]",s,"[0.530093132579025,0.530093132579025]","[0.469906867420975,0.469906867420975]",339.122,341.0182,1,s,1,0.3528,,-0.053584446,0.184124875,0.23770932,341.0212,341.0212,0,110,110,110,1,0.042564544,0.042564544,shape_difference2,1,,TRUE,,intensity,0.1,0.05,0.7,0.3,0.82,20,400,1E-11,3.5,0.01,0.5,0.1,,,,,,,,,,,,,,,,,,,,,,,,,,,,,,,,,,,,,,,,,,,,,,,,,,,,,,,,,,,,,,,,,,,,,,,,,,,,,,,,,
,,,,,775537,001,2025-03-17_14h12.46.286,Utility_discrimination_2024_2cat,2024.2.4,MacIntel,29.94011976,,,,,,,,1,"[0.5,0.5]","[0.924,0.383]",s,"[0.5,0.5703229913515898]","[0.5,0.4296770086484102]",341.0221,343.1183,1,s,1,0.5559,,0.003042523,0.222203179,0.219160656,343.1212,343.1212,0,111,111,111,1,0.070322991,0.070322991,shape_difference4,1,,TRUE,,intensity,0.1,0.05,0.7,0.3,0.82,20,400,1E-11,3.5,0.01,0.5,0.1,,,,,,,,,,,,,,,,,,,,,,,,,,,,,,,,,,,,,,,,,,,,,,,,,,,,,,,,,,,,,,,,,,,,,,,,,,,,,,,,,
,,,,,775537,001,2025-03-17_14h12.46.286,Utility_discrimination_2024_2cat,2024.2.4,MacIntel,29.94011976,,,,,,,,3,"[0.5,0.5]","[0.383,0.924]",s,"[0.5857805710763031,0.5355562323833594]","[0.41421942892369695,0.46444376761664063]",343.1223,345.3183,1,d,1,0.6541,,-0.094306617,0.182135803,0.27644242,345.3203,345.3204,0,112,112,112,1,0.092836116,0.092836116,shape_difference1,1,,TRUE,,intensity,0.1,0.05,0.7,0.3,0.82,20,400,1E-11,3.5,0.01,0.5,0.1,,,,,,,,,,,,,,,,,,,,,,,,,,,,,,,,,,,,,,,,,,,,,,,,,,,,,,,,,,,,,,,,,,,,,,,,,,,,,,,,,
,,,,,775537,001,2025-03-17_14h12.46.286,Utility_discrimination_2024_2cat,2024.2.4,MacIntel,29.94011976,,,,,,,,0,"[0.5,0.5]","[1,0]",d,"[0.5089974681843573,0.5217066856458124]","[0.49100253181564274,0.4782933143541877]",345.3214,347.8183,0,s,0,0.9474,,-0.070362919,0.184032894,0.254395813,347.8205,347.8206,0,113,113,113,1,0.023492084,0.023492084,shape_difference3,1,,TRUE,,intensity,0.1,0.05,0.7,0.3,0.82,20,400,1E-11,3.5,0.01,0.5,0.1,,,,,,,,,,,,,,,,,,,,,,,,,,,,,,,,,,,,,,,,,,,,,,,,,,,,,,,,,,,,,,,,,,,,,,,,,,,,,,,,,
,,,,,775537,001,2025-03-17_14h12.46.286,Utility_discrimination_2024_2cat,2024.2.4,MacIntel,29.94011976,,,,,,,,1,"[0.5,0.5]","[0.924,0.383]",d,"[0.5645988406583925,0.5]","[0.4354011593416075,0.5]",347.8224,349.9518,0,s,0,0.578,,0.001700423,0.19852274,0.196822316,349.9555,349.9555,0,114,114,114,1,0.064598841,0.064598841,shape_difference0,1,,TRUE,,intensity,0.1,0.05,0.7,0.3,0.82,20,400,1E-11,3.5,0.01,0.5,0.1,,,,,,,,,,,,,,,,,,,,,,,,,,,,,,,,,,,,,,,,,,,,,,,,,,,,,,,,,,,,,,,,,,,,,,,,,,,,,,,,,
,,,,,775537,001,2025-03-17_14h12.46.286,Utility_discrimination_2024_2cat,2024.2.4,MacIntel,29.94011976,,,,,,,,2,"[0.5,0.5]","[0.707,0.707]",d,"[0.5792545555582298,0.5328511848255433]","[0.42074544444177014,0.46714881517445667]",349.9565,352.1183,1,s,1,0.6139,,-0.089901393,0.175234508,0.265135902,352.1213,352.1213,0,115,115,115,1,0.085773329,0.085773329,shape_difference1,1,,TRUE,,intensity,0.1,0.05,0.7,0.3,0.82,20,400,1E-11,3.5,0.01,0.5,0.1,,,,,,,,,,,,,,,,,,,,,,,,,,,,,,,,,,,,,,,,,,,,,,,,,,,,,,,,,,,,,,,,,,,,,,,,,,,,,,,,,
,,,,,775537,001,2025-03-17_14h12.46.286,Utility_discrimination_2024_2cat,2024.2.4,MacIntel,29.94011976,,,,,,,,3,"[0.5,0.5]","[0.383,0.924]",s,"[0.5230244520149891,0.5230244520149891]","[0.47697554798501085,0.47697554798501085]",352.1223,354.1177,0,s,0,0.4445,,-0.086390043,0.230829506,0.317219549,354.1199,354.12,0,116,116,116,1,0.03256641,0.03256641,shape_difference2,1,,TRUE,,intensity,0.1,0.05,0.7,0.3,0.82,20,400,1E-11,3.5,0.01,0.5,0.1,,,,,,,,,,,,,,,,,,,,,,,,,,,,,,,,,,,,,,,,,,,,,,,,,,,,,,,,,,,,,,,,,,,,,,,,,,,,,,,,,
,,,,,775537,001,2025-03-17_14h12.46.286,Utility_discrimination_2024_2cat,2024.2.4,MacIntel,29.94011976,,,,,,,,4,"[0.5,0.5]","[0,1]",d,"[0.5210475158745369,0.5507778189766895]","[0.4789524841254631,0.4492221810233105]",354.1211,356.1852,0,d,0,0.5121,,-0.060724976,0.177826847,0.238551823,356.188,356.188,0,117,117,117,1,0.05495435,0.05495435,shape_difference3,1,,TRUE,,intensity,0.1,0.05,0.7,0.3,0.82,20,400,1E-11,3.5,0.01,0.5,0.1,,,,,,,,,,,,,,,,,,,,,,,,,,,,,,,,,,,,,,,,,,,,,,,,,,,,,,,,,,,,,,,,,,,,,,,,,,,,,,,,,
,,,,,775537,001,2025-03-17_14h12.46.286,Utility_discrimination_2024_2cat,2024.2.4,MacIntel,29.94011976,,,,,,,,0,"[0.5,0.5]","[1,0]",s,"[0.5,0.5661814198598591]","[0.5,0.43381858014014085]",356.189,358.3517,0,d,0,0.6266,,0.000394164,0.218664962,0.218270798,358.3538,358.3538,0,118,118,118,1,0.06618142,0.06618142,shape_difference4,1,,TRUE,,intensity,0.1,0.05,0.7,0.3,0.82,20,400,1E-11,3.5,0.01,0.5,0.1,,,,,,,,,,,,,,,,,,,,,,,,,,,,,,,,,,,,,,,,,,,,,,,,,,,,,,,,,,,,,,,,,,,,,,,,,,,,,,,,,
,,,,,775537,001,2025-03-17_14h12.46.286,Utility_discrimination_2024_2cat,2024.2.4,MacIntel,29.94011976,,,,,,,,0,"[0.5,0.5]","[1,0]",s,"[0.5856266373275204,0.5]","[0.4143733626724796,0.5]",358.3557,360.3183,1,s,1,0.4089,,-0.013649765,0.197044505,0.21069427,360.3212,360.3212,0,119,119,119,1,0.085626637,0.085626637,shape_difference0,1,,TRUE,,intensity,0.1,0.05,0.7,0.3,0.82,20,400,1E-11,3.5,0.01,0.5,0.1,,,,,,,,,,,,,,,,,,,,,,,,,,,,,,,,,,,,,,,,,,,,,,,,,,,,,,,,,,,,,,,,,,,,,,,,,,,,,,,,,
,,,,,775537,001,2025-03-17_14h12.46.286,Utility_discrimination_2024_2cat,2024.2.4,MacIntel,29.94011976,,,,,,,,4,"[0.5,0.5]","[0,1]",s,"[0.5795151240257284,0.5]","[0.4204848759742717,0.5]",360.3224,362.7851,1,s,1,0.9127,,0.002242389,0.193512868,0.191270479,362.7884,362.7884,0,120,120,120,1,0.079515124,0.079515124,shape_difference0,1,,TRUE,,intensity,0.1,0.05,0.7,0.3,0.82,20,400,1E-11,3.5,0.01,0.5,0.1,,,,,,,,,,,,,,,,,,,,,,,,,,,,,,,,,,,,,,,,,,,,,,,,,,,,,,,,,,,,,,,,,,,,,,,,,,,,,,,,,
,,,,,775537,001,2025-03-17_14h12.46.286,Utility_discrimination_2024_2cat,2024.2.4,MacIntel,29.94011976,,,,,,,,3,"[0.5,0.5]","[0.383,0.924]",s,"[0.5,0.5831812934183602]","[0.5,0.4168187065816397]",362.7893,364.9186,0,s,0,0.5671,,-0.051483391,0.345953144,0.397436536,364.9211,364.9212,0,121,121,121,1,0.083181293,0.083181293,shape_difference4,1,,TRUE,,intensity,0.1,0.05,0.7,0.3,0.82,20,400,1E-11,3.5,0.01,0.5,0.1,,,,,,,,,,,,,,,,,,,,,,,,,,,,,,,,,,,,,,,,,,,,,,,,,,,,,,,,,,,,,,,,,,,,,,,,,,,,,,,,,
,,,,,775537,001,2025-03-17_14h12.46.286,Utility_discrimination_2024_2cat,2024.2.4,MacIntel,29.94011976,,,,,,,,1,"[0.5,0.5]","[0.924,0.383]",d,"[0.5393432302547357,0.5949168270375348]","[0.46065676974526426,0.4050831729624652]",364.9222,366.9852,0,s,0,0.5008,,0.000353192,0.193517418,0.193164226,366.9881,366.9881,0,122,122,122,1,0.102723839,0.102723839,shape_difference3,1,,TRUE,,intensity,0.1,0.05,0.7,0.3,0.82,20,400,1E-11,3.5,0.01,0.5,0.1,,,,,,,,,,,,,,,,,,,,,,,,,,,,,,,,,,,,,,,,,,,,,,,,,,,,,,,,,,,,,,,,,,,,,,,,,,,,,,,,,
,,,,,775537,001,2025-03-17_14h12.46.286,Utility_discrimination_2024_2cat,2024.2.4,MacIntel,29.94011976,,,,,,,,2,"[0.5,0.5]","[0.707,0.707]",d,"[0.5739202698647616,0.5306401118595279]","[0.4260797301352383,0.46935988814047214]",366.9891,369.2518,1,s,1,0.7183,,-0.083575894,0.199437057,0.283012951,369.2549,369.2549,0,123,123,123,1,0.080000292,0.080000292,shape_difference1,1,,TRUE,,intensity,0.1,0.05,0.7,0.3,0.82,20,400,1E-11,3.5,0.01,0.5,0.1,,,,,,,,,,,,,,,,,,,,,,,,,,,,,,,,,,,,,,,,,,,,,,,,,,,,,,,,,,,,,,,,,,,,,,,,,,,,,,,,,
,,,,,775537,001,2025-03-17_14h12.46.286,Utility_discrimination_2024_2cat,2024.2.4,MacIntel,29.94011976,,,,,,,,1,"[0.5,0.5]","[0.924,0.383]",s,"[0.5398178156285354,0.5398178156285354]","[0.4601821843714647,0.4601821843714647]",369.257,371.1849,1,d,1,0.3851,,-0.012869599,0.188315499,0.201185098,371.1881,371.1882,0,124,124,124,1,0.0563194,0.0563194,shape_difference2,1,,TRUE,,intensity,0.1,0.05,0.7,0.3,0.82,20,400,1E-11,3.5,0.01,0.5,0.1,,,,,,,,,,,,,,,,,,,,,,,,,,,,,,,,,,,,,,,,,,,,,,,,,,,,,,,,,,,,,,,,,,,,,,,,,,,,,,,,,
,,,,,775537,001,2025-03-17_14h12.46.286,Utility_discrimination_2024_2cat,2024.2.4,MacIntel,29.94011976,,,,,,,,3,"[0.5,0.5]","[0.383,0.924]",d,"[0.5695021230335156,0.528808780434888]","[0.4304978769664844,0.47119121956511206]",371.1893,374.0182,1,d,1,1.285,,0.00775021,0.440737384,0.432987174,374.0207,374.0207,0,125,125,125,1,0.075218748,0.075218748,shape_difference1,1,,TRUE,,intensity,0.1,0.05,0.7,0.3,0.82,20,400,1E-11,3.5,0.01,0.5,0.1,,,,,,,,,,,,,,,,,,,,,,,,,,,,,,,,,,,,,,,,,,,,,,,,,,,,,,,,,,,,,,,,,,,,,,,,,,,,,,,,,
,,,,,775537,001,2025-03-17_14h12.46.286,Utility_discrimination_2024_2cat,2024.2.4,MacIntel,29.94011976,,,,,,,,4,"[0.5,0.5]","[0,1]",d,"[0.5619493149356363,0.6494547441267049]","[0.4380506850643637,0.3505452558732951]",374.0219,376.1512,1,s,1,0.588,,0.007604355,0.223432001,0.215827646,376.1534,376.1535,0,126,126,126,1,0.161747559,0.161747559,shape_difference3,1,,TRUE,,intensity,0.1,0.05,0.7,0.3,0.82,20,400,1E-11,3.5,0.01,0.5,0.1,,,,,,,,,,,,,,,,,,,,,,,,,,,,,,,,,,,,,,,,,,,,,,,,,,,,,,,,,,,,,,,,,,,,,,,,,,,,,,,,,
,,,,,775537,001,2025-03-17_14h12.46.286,Utility_discrimination_2024_2cat,2024.2.4,MacIntel,29.94011976,,,,,,,,2,"[0.5,0.5]","[0.707,0.707]",s,"[0.5,0.6091068212008665]","[0.5,0.39089317879913354]",376.1554,378.1516,1,s,1,0.4537,,-0.08570621,0.185621649,0.271327859,378.1546,378.1546,0,127,127,127,1,0.109106821,0.109106821,shape_difference4,1,,TRUE,,intensity,0.1,0.05,0.7,0.3,0.82,20,400,1E-11,3.5,0.01,0.5,0.1,,,,,,,,,,,,,,,,,,,,,,,,,,,,,,,,,,,,,,,,,,,,,,,,,,,,,,,,,,,,,,,,,,,,,,,,,,,,,,,,,
,,,,,775537,001,2025-03-17_14h12.46.286,Utility_discrimination_2024_2cat,2024.2.4,MacIntel,29.94011976,,,,,,,,0,"[0.5,0.5]","[1,0]",s,"[0.534193640971476,0.534193640971476]","[0.46580635902852396,0.46580635902852396]",378.1556,380.385,1,s,1,0.6931,,-0.028322005,0.190919111,0.219241116,380.3881,380.3881,0,128,128,128,1,0.048364414,0.048364414,shape_difference2,1,,TRUE,,intensity,0.1,0.05,0.7,0.3,0.82,20,400,1E-11,3.5,0.01,0.5,0.1,,,,,,,,,,,,,,,,,,,,,,,,,,,,,,,,,,,,,,,,,,,,,,,,,,,,,,,,,,,,,,,,,,,,,,,,,,,,,,,,,
,,,,,775537,001,2025-03-17_14h12.46.286,Utility_discrimination_2024_2cat,2024.2.4,MacIntel,29.94011976,,,,,,,,1,"[0.5,0.5]","[0.924,0.383]",s,"[0.5744806569130247,0.5]","[0.42551934308697525,0.5]",380.3891,382.6515,1,d,1,0.7142,,-0.027026953,0.18272107,0.209748022,382.654,382.654,0,129,129,129,1,0.074480657,0.074480657,shape_difference0,1,,TRUE,,intensity,0.1,0.05,0.7,0.3,0.82,20,400,1E-11,3.5,0.01,0.5,0.1,,,,,,,,,,,,,,,,,,,,,,,,,,,,,,,,,,,,,,,,,,,,,,,,,,,,,,,,,,,,,,,,,,,,,,,,,,,,,,,,,
,,,,,775537,001,2025-03-17_14h12.46.286,Utility_discrimination_2024_2cat,2024.2.4,MacIntel,29.94011976,,,,,,,,4,"[0.5,0.5]","[0,1]",d,"[0.5657871441749022,0.527268913656913]","[0.4342128558250978,0.4727310863430871]",382.6551,385.4844,1,s,1,1.2938,,0.00663263,0.199471803,0.192839173,385.4866,385.4867,0,130,130,130,1,0.071198208,0.071198208,shape_difference1,1,,TRUE,,intensity,0.1,0.05,0.7,0.3,0.82,20,400,1E-11,3.5,0.01,0.5,0.1,,,,,,,,,,,,,,,,,,,,,,,,,,,,,,,,,,,,,,,,,,,,,,,,,,,,,,,,,,,,,,,,,,,,,,,,,,,,,,,,,
,,,,,775537,001,2025-03-17_14h12.46.286,Utility_discrimination_2024_2cat,2024.2.4,MacIntel,29.94011976,,,,,,,,2,"[0.5,0.5]","[0.707,0.707]",s,"[0.5,0.5974842862759587]","[0.5,0.40251571372404127]",385.4886,387.5843,1,s,1,0.5478,,-0.087635546,0.173342148,0.260977694,387.5873,387.5873,0,131,131,131,1,0.097484286,0.097484286,shape_difference4,1,,TRUE,,intensity,0.1,0.05,0.7,0.3,0.82,20,400,1E-11,3.5,0.01,0.5,0.1,,,,,,,,,,,,,,,,,,,,,,,,,,,,,,,,,,,,,,,,,,,,,,,,,,,,,,,,,,,,,,,,,,,,,,,,,,,,,,,,,
,,,,,775537,001,2025-03-17_14h12.46.286,Utility_discrimination_2024_2cat,2024.2.4,MacIntel,29.94011976,,,,,,,,0,"[0.5,0.5]","[1,0]",s,"[0.528490662136788,0.528490662136788]","[0.4715093378632121,0.4715093378632121]",387.5883,389.6508,0,s,0,0.4997,,-0.039871979,0.18448118,0.224353159,389.6544,389.6545,0,132,132,132,1,0.040297966,0.040297966,shape_difference2,1,,TRUE,,intensity,0.1,0.05,0.7,0.3,0.82,20,400,1E-11,3.5,0.01,0.5,0.1,,,,,,,,,,,,,,,,,,,,,,,,,,,,,,,,,,,,,,,,,,,,,,,,,,,,,,,,,,,,,,,,,,,,,,,,,,,,,,,,,
,,,,,775537,001,2025-03-17_14h12.46.286,Utility_discrimination_2024_2cat,2024.2.4,MacIntel,29.94011976,,,,,,,,3,"[0.5,0.5]","[0.383,0.924]",d,"[0.5702549549331067,0.5]","[0.42974504506689326,0.5]",389.6556,391.7506,1,s,1,0.5563,,0.005502576,0.380827385,0.375324809,391.7527,391.7528,0,133,133,133,1,0.070254955,0.070254955,shape_difference0,1,,TRUE,,intensity,0.1,0.05,0.7,0.3,0.82,20,400,1E-11,3.5,0.01,0.5,0.1,,,,,,,,,,,,,,,,,,,,,,,,,,,,,,,,,,,,,,,,,,,,,,,,,,,,,,,,,,,,,,,,,,,,,,,,,,,,,,,,,
,,,,,775537,001,2025-03-17_14h12.46.286,Utility_discrimination_2024_2cat,2024.2.4,MacIntel,29.94011976,,,,,,,,2,"[0.5,0.5]","[0.707,0.707]",s,"[0.5548914424786361,0.632427396475874]","[0.4451085575213639,0.367572603524126]",391.7539,393.7508,1,d,1,0.4542,,-0.080559168,0.194891333,0.2754505,393.7528,393.7529,0,134,134,134,1,0.143319693,0.143319693,shape_difference3,1,,TRUE,,intensity,0.1,0.05,0.7,0.3,0.82,20,400,1E-11,3.5,0.01,0.5,0.1,,,,,,,,,,,,,,,,,,,,,,,,,,,,,,,,,,,,,,,,,,,,,,,,,,,,,,,,,,,,,,,,,,,,,,,,,,,,,,,,,
,,,,,775537,001,2025-03-17_14h12.46.286,Utility_discrimination_2024_2cat,2024.2.4,MacIntel,29.94011976,,,,,,,,1,"[0.5,0.5]","[0.924,0.383]",d,"[0.5419100584934088,0.5419100584934088]","[0.4580899415065912,0.4580899415065912]",393.7548,395.9516,1,d,1,0.652,,-0.038353935,0.176515447,0.214869382,395.9546,395.9546,0,135,135,135,1,0.059278725,0.059278725,shape_difference2,1,,TRUE,,intensity,0.1,0.05,0.7,0.3,0.82,20,400,1E-11,3.5,0.01,0.5,0.1,,,,,,,,,,,,,,,,,,,,,,,,,,,,,,,,,,,,,,,,,,,,,,,,,,,,,,,,,,,,,,,,,,,,,,,,,,,,,,,,,
,,,,,775537,001,2025-03-17_14h12.46.286,Utility_discrimination_2024_2cat,2024.2.4,MacIntel,29.94011976,,,,,,,,3,"[0.5,0.5]","[0.383,0.924]",d,"[0.5626082411999698,0.525951251493061]","[0.4373917588000303,0.47404874850693896]",395.9556,398.284,0,s,0,0.7885,,0.003042297,0.341507735,0.338465438,398.2871,398.2871,0,136,136,136,1,0.067757837,0.067757837,shape_difference1,1,,TRUE,,intensity,0.1,0.05,0.7,0.3,0.82,20,400,1E-11,3.5,0.01,0.5,0.1,,,,,,,,,,,,,,,,,,,,,,,,,,,,,,,,,,,,,,,,,,,,,,,,,,,,,,,,,,,,,,,,,,,,,,,,,,,,,,,,,
,,,,,775537,001,2025-03-17_14h12.46.286,Utility_discrimination_2024_2cat,2024.2.4,MacIntel,29.94011976,,,,,,,,0,"[0.5,0.5]","[1,0]",d,"[0.5482424278375156,0.6163864316497767]","[0.45175757216248436,0.3836135683502233]",398.2882,400.6172,1,s,1,0.786,,-0.04908281,0.17746616,0.22654897,400.6193,400.6193,0,137,137,137,1,0.125959342,0.125959342,shape_difference3,1,,TRUE,,intensity,0.1,0.05,0.7,0.3,0.82,20,400,1E-11,3.5,0.01,0.5,0.1,,,,,,,,,,,,,,,,,,,,,,,,,,,,,,,,,,,,,,,,,,,,,,,,,,,,,,,,,,,,,,,,,,,,,,,,,,,,,,,,,
,,,,,775537,001,2025-03-17_14h12.46.286,Utility_discrimination_2024_2cat,2024.2.4,MacIntel,29.94011976,,,,,,,,4,"[0.5,0.5]","[0,1]",s,"[0.5666314538903251,0.5]","[0.4333685461096749,0.5]",400.6204,402.9175,0,s,0,0.7374,,0.005770455,0.195788963,0.190018509,402.9206,402.9206,0,138,138,138,1,0.066631454,0.066631454,shape_difference0,1,,TRUE,,intensity,0.1,0.05,0.7,0.3,0.82,20,400,1E-11,3.5,0.01,0.5,0.1,,,,,,,,,,,,,,,,,,,,,,,,,,,,,,,,,,,,,,,,,,,,,,,,,,,,,,,,,,,,,,,,,,,,,,,,,,,,,,,,,
,,,,,775537,001,2025-03-17_14h12.46.286,Utility_discrimination_2024_2cat,2024.2.4,MacIntel,29.94011976,,,,,,,,4,"[0.5,0.5]","[0,1]",d,"[0.5,0.590276855075814]","[0.5,0.40972314492418604]",402.9226,404.9515,1,s,1,0.482,,0.004982417,0.192036147,0.18705373,404.9546,404.9547,0,139,139,139,1,0.090276855,0.090276855,shape_difference4,1,,TRUE,,intensity,0.1,0.05,0.7,0.3,0.82,20,400,1E-11,3.5,0.01,0.5,0.1,,,,,,,,,,,,,,,,,,,,,,,,,,,,,,,,,,,,,,,,,,,,,,,,,,,,,,,,,,,,,,,,,,,,,,,,,,,,,,,,,
,,,,,775537,001,2025-03-17_14h12.46.286,Utility_discrimination_2024_2cat,2024.2.4,MacIntel,29.94011976,,,,,,,,1,"[0.5,0.5]","[0.924,0.383]",s,"[0.5,0.5843999839714684]","[0.5,0.41560001602853164]",404.9557,407.1183,1,s,1,0.6033,,0.004008135,0.191865838,0.187857703,407.1205,407.1205,0,140,140,140,1,0.084399984,0.084399984,shape_difference4,1,,TRUE,,intensity,0.1,0.05,0.7,0.3,0.82,20,400,1E-11,3.5,0.01,0.5,0.1,,,,,,,,,,,,,,,,,,,,,,,,,,,,,,,,,,,,,,,,,,,,,,,,,,,,,,,,,,,,,,,,,,,,,,,,,,,,,,,,,
,,,,,775537,001,2025-03-17_14h12.46.286,Utility_discrimination_2024_2cat,2024.2.4,MacIntel,29.94011976,,,,,,,,0,"[0.5,0.5]","[1,0]",s,"[0.5753373512426205,0.531227495157926]","[0.42466264875737947,0.46877250484207394]",407.1215,409.1182,0,s,0,0.4518,,0.003306451,0.194600988,0.191294537,409.1209,409.1209,0,141,141,141,1,0.08153393,0.08153393,shape_difference1,1,,TRUE,,intensity,0.1,0.05,0.7,0.3,0.82,20,400,1E-11,3.5,0.01,0.5,0.1,,,,,,,,,,,,,,,,,,,,,,,,,,,,,,,,,,,,,,,,,,,,,,,,,,,,,,,,,,,,,,,,,,,,,,,,,,,,,,,,,
,,,,,775537,001,2025-03-17_14h12.46.286,Utility_discrimination_2024_2cat,2024.2.4,MacIntel,29.94011976,,,,,,,,2,"[0.5,0.5]","[0.707,0.707]",d,"[0.5812286334401151,0.5]","[0.41877136655988495,0.5]",409.122,411.6174,1,s,1,0.948,,-0.083116312,0.182372642,0.265488953,411.6202,411.6202,0,142,142,142,1,0.081228633,0.081228633,shape_difference0,1,,TRUE,,intensity,0.1,0.05,0.7,0.3,0.82,20,400,1E-11,3.5,0.01,0.5,0.1,,,,,,,,,,,,,,,,,,,,,,,,,,,,,,,,,,,,,,,,,,,,,,,,,,,,,,,,,,,,,,,,,,,,,,,,,,,,,,,,,
,,,,,775537,001,2025-03-17_14h12.46.286,Utility_discrimination_2024_2cat,2024.2.4,MacIntel,29.94011976,,,,,,,,3,"[0.5,0.5]","[0.383,0.924]",s,"[0.5372212540348081,0.5372212540348081]","[0.46277874596519186,0.46277874596519186]",411.6214,413.8183,1,s,1,0.6447,,0.000801119,0.295919521,0.295118402,413.821,413.821,0,143,143,143,1,0.052646753,0.052646753,shape_difference2,1,,TRUE,,intensity,0.1,0.05,0.7,0.3,0.82,20,400,1E-11,3.5,0.01,0.5,0.1,,,,,,,,,,,,,,,,,,,,,,,,,,,,,,,,,,,,,,,,,,,,,,,,,,,,,,,,,,,,,,,,,,,,,,,,,,,,,,,,,
,,,,,775537,001,2025-03-17_14h12.46.286,Utility_discrimination_2024_2cat,2024.2.4,MacIntel,29.94011976,,,,,,,,3,"[0.5,0.5]","[0.383,0.924]",s,"[0.5411110607157267,0.5991817757214921]","[0.4588889392842733,0.4008182242785079]",413.8228,415.9182,1,s,1,0.5534,,-0.013264419,0.273882358,0.287146777,415.9211,415.9212,0,144,144,144,1,0.107339584,0.107339584,shape_difference3,1,,TRUE,,intensity,0.1,0.05,0.7,0.3,0.82,20,400,1E-11,3.5,0.01,0.5,0.1,,,,,,,,,,,,,,,,,,,,,,,,,,,,,,,,,,,,,,,,,,,,,,,,,,,,,,,,,,,,,,,,,,,,,,,,,,,,,,,,,
,,,,,775537,001,2025-03-17_14h12.46.286,Utility_discrimination_2024_2cat,2024.2.4,MacIntel,29.94011976,,,,,,,,0,"[0.5,0.5]","[1,0]",s,"[0.5358293256093861,0.586439417397057]","[0.4641706743906138,0.41356058260294304]",415.9223,418.0842,1,s,1,0.5989,,0.002365248,0.189379652,0.187014404,418.0874,418.0875,0,145,145,145,1,0.093549153,0.093549153,shape_difference3,1,,TRUE,,intensity,0.1,0.05,0.7,0.3,0.82,20,400,1E-11,3.5,0.01,0.5,0.1,,,,,,,,,,,,,,,,,,,,,,,,,,,,,,,,,,,,,,,,,,,,,,,,,,,,,,,,,,,,,,,,,,,,,,,,,,,,,,,,,
,,,,,775537,001,2025-03-17_14h12.46.286,Utility_discrimination_2024_2cat,2024.2.4,MacIntel,29.94011976,,,,,,,,1,"[0.5,0.5]","[0.924,0.383]",s,"[0.5766261558487841,0.5]","[0.42337384415121593,0.5]",418.0886,420.1182,1,s,1,0.4812,,0.007793238,0.213348646,0.205555408,420.1208,420.1208,0,146,146,146,1,0.076626156,0.076626156,shape_difference0,1,,TRUE,,intensity,0.1,0.05,0.7,0.3,0.82,20,400,1E-11,3.5,0.01,0.5,0.1,,,,,,,,,,,,,,,,,,,,,,,,,,,,,,,,,,,,,,,,,,,,,,,,,,,,,,,,,,,,,,,,,,,,,,,,,,,,,,,,,
,,,,,775537,001,2025-03-17_14h12.46.286,Utility_discrimination_2024_2cat,2024.2.4,MacIntel,29.94011976,,,,,,,,2,"[0.5,0.5]","[0.707,0.707]",s,"[0.5953055547831549,0.5395043587466973]","[0.4046944452168451,0.46049564125330267]",420.1228,422.1852,1,s,1,0.5276,,-0.085137089,0.168547243,0.253684332,422.1882,422.1882,0,147,147,147,1,0.10314454,0.10314454,shape_difference1,1,,TRUE,,intensity,0.1,0.05,0.7,0.3,0.82,20,400,1E-11,3.5,0.01,0.5,0.1,,,,,,,,,,,,,,,,,,,,,,,,,,,,,,,,,,,,,,,,,,,,,,,,,,,,,,,,,,,,,,,,,,,,,,,,,,,,,,,,,
,,,,,775537,001,2025-03-17_14h12.46.286,Utility_discrimination_2024_2cat,2024.2.4,MacIntel,29.94011976,,,,,,,,4,"[0.5,0.5]","[0,1]",s,"[0.5327993654816059,0.5327993654816059]","[0.4672006345183941,0.4672006345183941]",422.1893,424.1848,0,s,0,0.4617,,0.004239105,0.188090457,0.183851352,424.1867,424.1867,0,148,148,148,1,0.046392313,0.046392313,shape_difference2,1,,TRUE,,intensity,0.1,0.05,0.7,0.3,0.82,20,400,1E-11,3.5,0.01,0.5,0.1,,,,,,,,,,,,,,,,,,,,,,,,,,,,,,,,,,,,,,,,,,,,,,,,,,,,,,,,,,,,,,,,,,,,,,,,,,,,,,,,,
,,,,,775537,001,2025-03-17_14h12.46.286,Utility_discrimination_2024_2cat,2024.2.4,MacIntel,29.94011976,,,,,,,,3,"[0.5,0.5]","[0.383,0.924]",d,"[0.5,0.5795769543343894]","[0.5,0.42042304566561056]",424.1877,426.185,0,s,0,0.4349,,-0.029847266,0.24644143,0.276288697,426.1875,426.1876,0,149,149,149,1,0.079576954,0.079576954,shape_difference4,1,,TRUE,,intensity,0.1,0.05,0.7,0.3,0.82,20,400,1E-11,3.5,0.01,0.5,0.1,,,,,,,,,,,,,,,,,,,,,,,,,,,,,,,,,,,,,,,,,,,,,,,,,,,,,,,,,,,,,,,,,,,,,,,,,,,,,,,,,
,,,,,775537,001,2025-03-17_14h12.46.286,Utility_discrimination_2024_2cat,2024.2.4,MacIntel,29.94011976,,,,,,,,4,"[0.5,0.5]","[0,1]",d,"[0.5325876741402047,0.5786188274296321]","[0.46741232585979536,0.4213811725703679]",426.1887,428.2515,1,s,1,0.5226,,0.007557896,0.197361851,0.189803955,428.2546,428.2546,0,150,150,150,1,0.085085311,0.085085311,shape_difference3,1,,TRUE,,intensity,0.1,0.05,0.7,0.3,0.82,20,400,1E-11,3.5,0.01,0.5,0.1,,,,,,,,,,,,,,,,,,,,,,,,,,,,,,,,,,,,,,,,,,,,,,,,,,,,,,,,,,,,,,,,,,,,,,,,,,,,,,,,,
,,,,,775537,001,2025-03-17_14h12.46.286,Utility_discrimination_2024_2cat,2024.2.4,MacIntel,29.94011976,,,,,,,,2,"[0.5,0.5]","[0.707,0.707]",s,"[0.5,0.5978523160985845]","[0.5,0.4021476839014156]",428.2556,430.3183,1,s,1,0.5156,,-0.076462016,0.188055984,0.264518,430.3217,430.3217,0,151,151,151,1,0.097852316,0.097852316,shape_difference4,1,,TRUE,,intensity,0.1,0.05,0.7,0.3,0.82,20,400,1E-11,3.5,0.01,0.5,0.1,,,,,,,,,,,,,,,,,,,,,,,,,,,,,,,,,,,,,,,,,,,,,,,,,,,,,,,,,,,,,,,,,,,,,,,,,,,,,,,,,
,,,,,775537,001,2025-03-17_14h12.46.286,Utility_discrimination_2024_2cat,2024.2.4,MacIntel,29.94011976,,,,,,,,0,"[0.5,0.5]","[1,0]",s,"[0.5431827253200796,0.5431827253200796]","[0.45681727467992034,0.45681727467992034]",430.3229,432.385,0,s,0,0.5261,,0.001407327,0.183859024,0.182451697,432.387,432.387,0,152,152,152,1,0.061078819,0.061078819,shape_difference2,1,,TRUE,,intensity,0.1,0.05,0.7,0.3,0.82,20,400,1E-11,3.5,0.01,0.5,0.1,,,,,,,,,,,,,,,,,,,,,,,,,,,,,,,,,,,,,,,,,,,,,,,,,,,,,,,,,,,,,,,,,,,,,,,,,,,,,,,,,
,,,,,775537,001,2025-03-17_14h12.46.286,Utility_discrimination_2024_2cat,2024.2.4,MacIntel,29.94011976,,,,,,,,1,"[0.5,0.5]","[0.924,0.383]",d,"[0.5728269825143257,0.5]","[0.4271730174856742,0.5]",432.3881,434.3507,1,s,1,0.411,,0.00698543,0.197972303,0.190986873,434.3534,434.3534,0,153,153,153,1,0.072826983,0.072826983,shape_difference0,1,,TRUE,,intensity,0.1,0.05,0.7,0.3,0.82,20,400,1E-11,3.5,0.01,0.5,0.1,,,,,,,,,,,,,,,,,,,,,,,,,,,,,,,,,,,,,,,,,,,,,,,,,,,,,,,,,,,,,,,,,,,,,,,,,,,,,,,,,
,,,,,775537,001,2025-03-17_14h12.46.286,Utility_discrimination_2024_2cat,2024.2.4,MacIntel,29.94011976,,,,,,,,0,"[0.5,0.5]","[1,0]",s,"[0.5868818587600033,0.5360127185119927]","[0.4131181412399967,0.4639872814880073]",434.3553,436.3839,0,s,0,0.4899,,0.000404255,0.17783624,0.177431985,436.3868,436.3869,0,154,154,154,1,0.094027986,0.094027986,shape_difference1,1,,TRUE,,intensity,0.1,0.05,0.7,0.3,0.82,20,400,1E-11,3.5,0.01,0.5,0.1,,,,,,,,,,,,,,,,,,,,,,,,,,,,,,,,,,,,,,,,,,,,,,,,,,,,,,,,,,,,,,,,,,,,,,,,,,,,,,,,,
,,,,,775537,001,2025-03-17_14h12.46.286,Utility_discrimination_2024_2cat,2024.2.4,MacIntel,29.94011976,,,,,,,,2,"[0.5,0.5]","[0.707,0.707]",d,"[0.5696497490493784,0.5]","[0.4303502509506217,0.5]",436.3879,439.0848,1,d,1,1.147,,-0.019855304,0.257493105,0.277348409,439.0869,439.0869,0,155,155,155,1,0.069649749,0.069649749,shape_difference0,1,,TRUE,,intensity,0.1,0.05,0.7,0.3,0.82,20,400,1E-11,3.5,0.01,0.5,0.1,,,,,,,,,,,,,,,,,,,,,,,,,,,,,,,,,,,,,,,,,,,,,,,,,,,,,,,,,,,,,,,,,,,,,,,,,,,,,,,,,
,,,,,775537,001,2025-03-17_14h12.46.286,Utility_discrimination_2024_2cat,2024.2.4,MacIntel,29.94011976,,,,,,,,1,"[0.5,0.5]","[0.924,0.383]",d,"[0.5603201416057672,0.5603201416057672]","[0.43967985839423285,0.43967985839423285]",439.088,441.4174,0,d,0,0.7817,,0.010193127,0.242281313,0.232088186,441.4199,441.4199,0,156,156,156,1,0.085318446,0.085318446,shape_difference2,1,,TRUE,,intensity,0.1,0.05,0.7,0.3,0.82,20,400,1E-11,3.5,0.01,0.5,0.1,,,,,,,,,,,,,,,,,,,,,,,,,,,,,,,,,,,,,,,,,,,,,,,,,,,,,,,,,,,,,,,,,,,,,,,,,,,,,,,,,
,,,,,775537,001,2025-03-17_14h12.46.286,Utility_discrimination_2024_2cat,2024.2.4,MacIntel,29.94011976,,,,,,,,3,"[0.5,0.5]","[0.383,0.924]",s,"[0.6157348496360415,0.5479723456824718]","[0.3842651503639584,0.4520276543175282]",441.4219,443.3843,1,d,1,0.4013,,-0.042371053,0.21109896,0.253470012,443.3877,443.3877,0,157,157,157,1,0.125254166,0.125254166,shape_difference1,1,,TRUE,,intensity,0.1,0.05,0.7,0.3,0.82,20,400,1E-11,3.5,0.01,0.5,0.1,,,,,,,,,,,,,,,,,,,,,,,,,,,,,,,,,,,,,,,,,,,,,,,,,,,,,,,,,,,,,,,,,,,,,,,,,,,,,,,,,
,,,,,775537,001,2025-03-17_14h12.46.286,Utility_discrimination_2024_2cat,2024.2.4,MacIntel,29.94011976,,,,,,,,4,"[0.5,0.5]","[0,1]",d,"[0.5299727888155376,0.5723103312416623]","[0.4700272111844625,0.4276896687583377]",443.3887,445.4842,1,d,1,0.5446,,0.006847539,0.194112788,0.187265249,445.4869,445.487,0,158,158,158,1,0.078257934,0.078257934,shape_difference3,1,,TRUE,,intensity,0.1,0.05,0.7,0.3,0.82,20,400,1E-11,3.5,0.01,0.5,0.1,,,,,,,,,,,,,,,,,,,,,,,,,,,,,,,,,,,,,,,,,,,,,,,,,,,,,,,,,,,,,,,,,,,,,,,,,,,,,,,,,
,,,,,775537,001,2025-03-17_14h12.46.286,Utility_discrimination_2024_2cat,2024.2.4,MacIntel,29.94011976,,,,,,,,4,"[0.5,0.5]","[0,1]",d,"[0.5,0.5908122696830305]","[0.5,0.4091877303169696]",445.488,447.9516,1,s,1,0.92,,0.006229248,0.190754039,0.184524791,447.9539,447.9539,0,159,159,159,1,0.09081227,0.09081227,shape_difference4,1,,TRUE,,intensity,0.1,0.05,0.7,0.3,0.82,20,400,1E-11,3.5,0.01,0.5,0.1,,,,,,,,,,,,,,,,,,,,,,,,,,,,,,,,,,,,,,,,,,,,,,,,,,,,,,,,,,,,,,,,,,,,,,,,,,,,,,,,,
,,,,,775537,001,2025-03-17_14h12.46.286,Utility_discrimination_2024_2cat,2024.2.4,MacIntel,29.94011976,,,,,,,,3,"[0.5,0.5]","[0.383,0.924]",s,"[0.5,0.5850643654304335]","[0.5,0.4149356345695665]",447.9557,450.2184,1,d,1,0.7141,,-0.052001511,0.194461603,0.246463114,450.2217,450.2218,0,160,160,160,1,0.085064365,0.085064365,shape_difference4,1,,TRUE,,intensity,0.1,0.05,0.7,0.3,0.82,20,400,1E-11,3.5,0.01,0.5,0.1,,,,,,,,,,,,,,,,,,,,,,,,,,,,,,,,,,,,,,,,,,,,,,,,,,,,,,,,,,,,,,,,,,,,,,,,,,,,,,,,,
,,,,,775537,001,2025-03-17_14h12.46.286,Utility_discrimination_2024_2cat,2024.2.4,MacIntel,29.94011976,,,,,,,,1,"[0.5,0.5]","[0.924,0.383]",d,"[0.5278154374745241,0.5671056507218283]","[0.47218456252547597,0.4328943492781717]",450.2228,452.6517,0,s,0,0.8663,,0.009134834,0.220730113,0.211595279,452.6544,452.6544,0,161,161,161,1,0.072625163,0.072625163,shape_difference3,1,,TRUE,,intensity,0.1,0.05,0.7,0.3,0.82,20,400,1E-11,3.5,0.01,0.5,0.1,,,,,,,,,,,,,,,,,,,,,,,,,,,,,,,,,,,,,,,,,,,,,,,,,,,,,,,,,,,,,,,,,,,,,,,,,,,,,,,,,
,,,,,775537,001,2025-03-17_14h12.46.286,Utility_discrimination_2024_2cat,2024.2.4,MacIntel,29.94011976,,,,,,,,0,"[0.5,0.5]","[1,0]",d,"[0.6062390072772061,0.5440362984709631]","[0.3937609927227938,0.4559637015290368]",452.6555,454.7852,0,d,0,0.5656,,-0.009677902,0.171084855,0.180762757,454.7877,454.7878,0,162,162,162,1,0.114977281,0.114977281,shape_difference1,1,,TRUE,,intensity,0.1,0.05,0.7,0.3,0.82,20,400,1E-11,3.5,0.01,0.5,0.1,,,,,,,,,,,,,,,,,,,,,,,,,,,,,,,,,,,,,,,,,,,,,,,,,,,,,,,,,,,,,,,,,,,,,,,,,,,,,,,,,
,,,,,775537,001,2025-03-17_14h12.46.286,Utility_discrimination_2024_2cat,2024.2.4,MacIntel,29.94011976,,,,,,,,2,"[0.5,0.5]","[0.707,0.707]",s,"[0.5669523537757257,0.5]","[0.4330476462242743,0.5]",454.7887,457.1181,1,s,1,0.791,,0.007139467,0.324249385,0.317109918,457.1209,457.121,0,163,163,163,1,0.066952354,0.066952354,shape_difference0,1,,TRUE,,intensity,0.1,0.05,0.7,0.3,0.82,20,400,1E-11,3.5,0.01,0.5,0.1,,,,,,,,,,,,,,,,,,,,,,,,,,,,,,,,,,,,,,,,,,,,,,,,,,,,,,,,,,,,,,,,,,,,,,,,,,,,,,,,,
,,,,,775537,001,2025-03-17_14h12.46.286,Utility_discrimination_2024_2cat,2024.2.4,MacIntel,29.94011976,,,,,,,,3,"[0.5,0.5]","[0.383,0.924]",s,"[0.5875901845790993,0.5875901845790993]","[0.41240981542090077,0.41240981542090077]",457.1219,459.4507,0,d,0,0.77,,0.003817945,0.256528477,0.252710532,459.4544,459.4545,0,164,164,164,1,0.123889936,0.123889936,shape_difference2,1,,TRUE,,intensity,0.1,0.05,0.7,0.3,0.82,20,400,1E-11,3.5,0.01,0.5,0.1,,,,,,,,,,,,,,,,,,,,,,,,,,,,,,,,,,,,,,,,,,,,,,,,,,,,,,,,,,,,,,,,,,,,,,,,,,,,,,,,,
,,,,,775537,001,2025-03-17_14h12.46.286,Utility_discrimination_2024_2cat,2024.2.4,MacIntel,29.94011976,,,,,,,,1,"[0.5,0.5]","[0.924,0.383]",s,"[0.536186251736296,0.587300513327252]","[0.46381374826370403,0.4126994866727481]",459.4554,461.8851,1,d,1,0.8677,,0.013114615,0.261127786,0.24801317,461.8881,461.8881,0,165,165,165,1,0.094481075,0.094481075,shape_difference3,1,,TRUE,,intensity,0.1,0.05,0.7,0.3,0.82,20,400,1E-11,3.5,0.01,0.5,0.1,,,,,,,,,,,,,,,,,,,,,,,,,,,,,,,,,,,,,,,,,,,,,,,,,,,,,,,,,,,,,,,,,,,,,,,,,,,,,,,,,
,,,,,775537,001,2025-03-17_14h12.46.286,Utility_discrimination_2024_2cat,2024.2.4,MacIntel,29.94011976,,,,,,,,2,"[0.5,0.5]","[0.707,0.707]",d,"[0.6299104639676515,0.553848168506072]","[0.3700895360323485,0.446151831493928]",461.8892,464.0508,1,s,1,0.5998,,0.01390518,0.396377066,0.382471886,464.0535,464.0536,0,166,166,166,1,0.14059574,0.14059574,shape_difference1,1,,TRUE,,intensity,0.1,0.05,0.7,0.3,0.82,20,400,1E-11,3.5,0.01,0.5,0.1,,,,,,,,,,,,,,,,,,,,,,,,,,,,,,,,,,,,,,,,,,,,,,,,,,,,,,,,,,,,,,,,,,,,,,,,,,,,,,,,,
,,,,,775537,001,2025-03-17_14h12.46.286,Utility_discrimination_2024_2cat,2024.2.4,MacIntel,29.94011976,,,,,,,,4,"[0.5,0.5]","[0,1]",s,"[0.6139889565724932,0.6139889565724932]","[0.3860110434275068,0.3860110434275068]",464.0554,466.1184,1,d,1,0.5002,,0.005678464,0.187179268,0.181500803,466.1219,466.1219,0,167,167,167,1,0.161229076,0.161229076,shape_difference2,1,,TRUE,,intensity,0.1,0.05,0.7,0.3,0.82,20,400,1E-11,3.5,0.01,0.5,0.1,,,,,,,,,,,,,,,,,,,,,,,,,,,,,,,,,,,,,,,,,,,,,,,,,,,,,,,,,,,,,,,,,,,,,,,,,,,,,,,,,
,,,,,775537,001,2025-03-17_14h12.46.286,Utility_discrimination_2024_2cat,2024.2.4,MacIntel,29.94011976,,,,,,,,0,"[0.5,0.5]","[1,0]",d,"[0.5,0.5803506269119083]","[0.5,0.4196493730880917]",466.123,468.6515,0,d,0,0.9918,,-0.02306639,0.163343636,0.186410026,468.6537,468.6537,0,168,168,168,1,0.080350627,0.080350627,shape_difference4,1,,TRUE,,intensity,0.1,0.05,0.7,0.3,0.82,20,400,1E-11,3.5,0.01,0.5,0.1,,,,,,,,,,,,,,,,,,,,,,,,,,,,,,,,,,,,,,,,,,,,,,,,,,,,,,,,,,,,,,,,,,,,,,,,,,,,,,,,,
,,,,,775537,001,2025-03-17_14h12.46.286,Utility_discrimination_2024_2cat,2024.2.4,MacIntel,29.94011976,,,,,,,,2,"[0.5,0.5]","[0.707,0.707]",s,"[0.5646217053488854,0.5]","[0.43537829465111455,0.5]",468.6548,470.8515,0,d,0,0.6478,,0.011833994,0.353143974,0.34130998,470.8538,470.8538,0,169,169,169,1,0.064621705,0.064621705,shape_difference0,1,,TRUE,,intensity,0.1,0.05,0.7,0.3,0.82,20,400,1E-11,3.5,0.01,0.5,0.1,,,,,,,,,,,,,,,,,,,,,,,,,,,,,,,,,,,,,,,,,,,,,,,,,,,,,,,,,,,,,,,,,,,,,,,,,,,,,,,,,
,,,,,775537,001,2025-03-17_14h12.46.286,Utility_discrimination_2024_2cat,2024.2.4,MacIntel,29.94011976,,,,,,,,4,"[0.5,0.5]","[0,1]",s,"[0.6043431189184637,0.6043431189184637]","[0.39565688108153635,0.39565688108153635]",470.8557,472.8849,1,d,1,0.4845,,0.007987656,0.195659201,0.187671544,472.8879,472.8879,0,170,170,170,1,0.147585741,0.147585741,shape_difference2,1,,TRUE,,intensity,0.1,0.05,0.7,0.3,0.82,20,400,1E-11,3.5,0.01,0.5,0.1,,,,,,,,,,,,,,,,,,,,,,,,,,,,,,,,,,,,,,,,,,,,,,,,,,,,,,,,,,,,,,,,,,,,,,,,,,,,,,,,,
,,,,,775537,001,2025-03-17_14h12.46.286,Utility_discrimination_2024_2cat,2024.2.4,MacIntel,29.94011976,,,,,,,,0,"[0.5,0.5]","[1,0]",d,"[0.5,0.5981546055054452]","[0.5,0.40184539449455486]",472.889,474.7839,1,d,1,0.3527,,0.004122529,0.182972201,0.178849672,474.7862,474.7863,0,171,171,171,1,0.098154606,0.098154606,shape_difference4,1,,TRUE,,intensity,0.1,0.05,0.7,0.3,0.82,20,400,1E-11,3.5,0.01,0.5,0.1,,,,,,,,,,,,,,,,,,,,,,,,,,,,,,,,,,,,,,,,,,,,,,,,,,,,,,,,,,,,,,,,,,,,,,,,,,,,,,,,,
,,,,,775537,001,2025-03-17_14h12.46.286,Utility_discrimination_2024_2cat,2024.2.4,MacIntel,29.94011976,,,,,,,,3,"[0.5,0.5]","[0.383,0.924]",d,"[0.5740463924795947,0.5]","[0.42595360752040534,0.5]",474.7875,482.7181,1,d,1,6.3928,,0.002528944,0.227843826,0.225314882,482.7203,482.7204,0,172,172,172,1,0.074046392,0.074046392,shape_difference0,1,,TRUE,,intensity,0.1,0.05,0.7,0.3,0.82,20,400,1E-11,3.5,0.01,0.5,0.1,,,,,,,,,,,,,,,,,,,,,,,,,,,,,,,,,,,,,,,,,,,,,,,,,,,,,,,,,,,,,,,,,,,,,,,,,,,,,,,,,
,,,,,775537,001,2025-03-17_14h12.46.286,Utility_discrimination_2024_2cat,2024.2.4,MacIntel,29.94011976,,,,,,,,1,"[0.5,0.5]","[0.924,0.383]",d,"[0.5332777687581047,0.5802837032179864]","[0.46672223124189527,0.4197162967820136]",482.7223,485.0849,1,d,1,0.8148,,0.01156965,0.245713391,0.23414374,485.0888,485.0888,0,173,173,173,1,0.086887125,0.086887125,shape_difference3,1,,TRUE,,intensity,0.1,0.05,0.7,0.3,0.82,20,400,1E-11,3.5,0.01,0.5,0.1,,,,,,,,,,,,,,,,,,,,,,,,,,,,,,,,,,,,,,,,,,,,,,,,,,,,,,,,,,,,,,,,,,,,,,,,,,,,,,,,,
,,,,,775537,001,2025-03-17_14h12.46.286,Utility_discrimination_2024_2cat,2024.2.4,MacIntel,29.94011976,,,,,,,,2,"[0.5,0.5]","[0.707,0.707]",d,"[0.6228476814751586,0.5509206298755257]","[0.37715231852484143,0.4490793701244743]",485.0899,487.4849,0,d,0,0.8336,,0.010072895,0.309539586,0.299466691,487.4889,487.4889,0,174,174,174,1,0.132952036,0.132952036,shape_difference1,1,,TRUE,,intensity,0.1,0.05,0.7,0.3,0.82,20,400,1E-11,3.5,0.01,0.5,0.1,,,,,,,,,,,,,,,,,,,,,,,,,,,,,,,,,,,,,,,,,,,,,,,,,,,,,,,,,,,,,,,,,,,,,,,,,,,,,,,,,
,,,,,775537,001,2025-03-17_14h12.46.286,Utility_discrimination_2024_2cat,2024.2.4,MacIntel,29.94011976,,,,,,,,0,"[0.5,0.5]","[1,0]",s,"[0.5953416493630711,0.5953416493630711]","[0.4046583506369289,0.4046583506369289]",487.49,489.618,0,s,0,0.5941,,0.00353904,0.177565237,0.174026198,489.6214,489.6215,0,175,175,175,1,0.134853818,0.134853818,shape_difference2,1,,TRUE,,intensity,0.1,0.05,0.7,0.3,0.82,20,400,1E-11,3.5,0.01,0.5,0.1,,,,,,,,,,,,,,,,,,,,,,,,,,,,,,,,,,,,,,,,,,,,,,,,,,,,,,,,,,,,,,,,,,,,,,,,,,,,,,,,,
,,,,,775537,001,2025-03-17_14h12.46.286,Utility_discrimination_2024_2cat,2024.2.4,MacIntel,29.94011976,,,,,,,,1,"[0.5,0.5]","[0.924,0.383]",d,"[0.5710760327654498,0.5]","[0.42892396723455023,0.5]",489.6226,492.1177,0,d,0,0.9333,,0.017276896,0.273858639,0.256581743,492.1207,492.1207,0,176,176,176,1,0.071076033,0.071076033,shape_difference0,1,,TRUE,,intensity,0.1,0.05,0.7,0.3,0.82,20,400,1E-11,3.5,0.01,0.5,0.1,,,,,,,,,,,,,,,,,,,,,,,,,,,,,,,,,,,,,,,,,,,,,,,,,,,,,,,,,,,,,,,,,,,,,,,,,,,,,,,,,
,,,,,775537,001,2025-03-17_14h12.46.286,Utility_discrimination_2024_2cat,2024.2.4,MacIntel,29.94011976,,,,,,,,3,"[0.5,0.5]","[0.383,0.924]",s,"[0.64003322791138,0.5580440760714919]","[0.35996677208862005,0.44195592392850813]",492.1217,494.1514,0,d,0,0.493,,0.001268406,0.198606251,0.197337845,494.1537,494.1538,0,177,177,177,1,0.151551112,0.151551112,shape_difference1,1,,TRUE,,intensity,0.1,0.05,0.7,0.3,0.82,20,400,1E-11,3.5,0.01,0.5,0.1,,,,,,,,,,,,,,,,,,,,,,,,,,,,,,,,,,,,,,,,,,,,,,,,,,,,,,,,,,,,,,,,,,,,,,,,,,,,,,,,,
,,,,,775537,001,2025-03-17_14h12.46.286,Utility_discrimination_2024_2cat,2024.2.4,MacIntel,29.94011976,,,,,,,,4,"[0.5,0.5]","[0,1]",s,"[0.5309465682888799,0.5746596060024152]","[0.46905343171112013,0.4253403939975848]",494.1556,496.2516,1,d,1,0.5355,,0.007347028,0.192749213,0.185402185,496.2554,496.2554,0,178,178,178,1,0.080800439,0.080800439,shape_difference3,1,,TRUE,,intensity,0.1,0.05,0.7,0.3,0.82,20,400,1E-11,3.5,0.01,0.5,0.1,,,,,,,,,,,,,,,,,,,,,,,,,,,,,,,,,,,,,,,,,,,,,,,,,,,,,,,,,,,,,,,,,,,,,,,,,,,,,,,,,
,,,,,775537,001,2025-03-17_14h12.46.286,Utility_discrimination_2024_2cat,2024.2.4,MacIntel,29.94011976,,,,,,,,0,"[0.5,0.5]","[1,0]",d,"[0.5,0.5912032908119655]","[0.5,0.4087967091880344]",496.2563,498.5183,0,d,0,0.7,,0.006257085,0.190769581,0.184512496,498.5209,498.5209,0,179,179,179,1,0.091203291,0.091203291,shape_difference4,1,,TRUE,,intensity,0.1,0.05,0.7,0.3,0.82,20,400,1E-11,3.5,0.01,0.5,0.1,,,,,,,,,,,,,,,,,,,,,,,,,,,,,,,,,,,,,,,,,,,,,,,,,,,,,,,,,,,,,,,,,,,,,,,,,,,,,,,,,
,,,,,775537,001,2025-03-17_14h12.46.286,Utility_discrimination_2024_2cat,2024.2.4,MacIntel,29.94011976,,,,,,,,4,"[0.5,0.5]","[0,1]",s,"[0.5824375742153762,0.5]","[0.41756242578462377,0.5]",498.5219,500.6181,1,s,1,0.5552,,0.009830052,0.199378112,0.18954806,500.6201,500.6201,0,180,180,180,1,0.082437574,0.082437574,shape_difference0,1,,TRUE,,intensity,0.1,0.05,0.7,0.3,0.82,20,400,1E-11,3.5,0.01,0.5,0.1,,,,,,,,,,,,,,,,,,,,,,,,,,,,,,,,,,,,,,,,,,,,,,,,,,,,,,,,,,,,,,,,,,,,,,,,,,,,,,,,,
,,,,,775537,001,2025-03-17_14h12.46.286,Utility_discrimination_2024_2cat,2024.2.4,MacIntel,29.94011976,,,,,,,,1,"[0.5,0.5]","[0.924,0.383]",s,"[0.5,0.619305892196816]","[0.5,0.3806941078031841]",500.6209,502.7847,1,s,1,0.6142,,0.053348184,0.321931769,0.268583586,502.7878,502.7878,0,181,181,181,1,0.119305892,0.119305892,shape_difference4,1,,TRUE,,intensity,0.1,0.05,0.7,0.3,0.82,20,400,1E-11,3.5,0.01,0.5,0.1,,,,,,,,,,,,,,,,,,,,,,,,,,,,,,,,,,,,,,,,,,,,,,,,,,,,,,,,,,,,,,,,,,,,,,,,,,,,,,,,,
,,,,,775537,001,2025-03-17_14h12.46.286,Utility_discrimination_2024_2cat,2024.2.4,MacIntel,29.94011976,,,,,,,,3,"[0.5,0.5]","[0.383,0.924]",s,"[0.66360706071748,0.5678154807952325]","[0.33639293928252006,0.4321845192047675]",502.7888,505.1837,0,d,0,0.8473,,-0.00014769,0.192404633,0.192552323,505.1868,505.1869,0,182,182,182,1,0.177063919,0.177063919,shape_difference1,1,,TRUE,,intensity,0.1,0.05,0.7,0.3,0.82,20,400,1E-11,3.5,0.01,0.5,0.1,,,,,,,,,,,,,,,,,,,,,,,,,,,,,,,,,,,,,,,,,,,,,,,,,,,,,,,,,,,,,,,,,,,,,,,,,,,,,,,,,
,,,,,775537,001,2025-03-17_14h12.46.286,Utility_discrimination_2024_2cat,2024.2.4,MacIntel,29.94011976,,,,,,,,2,"[0.5,0.5]","[0.707,0.707]",s,"[0.529050636309984,0.570085608225653]","[0.4709493636900161,0.4299143917743469]",505.1878,508.0849,1,s,1,1.3333,,0.016499413,0.38076979,0.364270377,508.0881,508.0881,0,183,183,183,1,0.075850225,0.075850225,shape_difference3,1,,TRUE,,intensity,0.1,0.05,0.7,0.3,0.82,20,400,1E-11,3.5,0.01,0.5,0.1,,,,,,,,,,,,,,,,,,,,,,,,,,,,,,,,,,,,,,,,,,,,,,,,,,,,,,,,,,,,,,,,,,,,,,,,,,,,,,,,,
,,,,,775537,001,2025-03-17_14h12.46.286,Utility_discrimination_2024_2cat,2024.2.4,MacIntel,29.94011976,,,,,,,,4,"[0.5,0.5]","[0,1]",s,"[0.6160621208748471,0.6160621208748471]","[0.3839378791251529,0.3839378791251529]",508.0891,510.0514,1,d,1,0.4211,,0.008934679,0.196842076,0.187907397,510.0535,510.0536,0,184,184,184,1,0.164161416,0.164161416,shape_difference2,1,,TRUE,,intensity,0.1,0.05,0.7,0.3,0.82,20,400,1E-11,3.5,0.01,0.5,0.1,,,,,,,,,,,,,,,,,,,,,,,,,,,,,,,,,,,,,,,,,,,,,,,,,,,,,,,,,,,,,,,,,,,,,,,,,,,,,,,,,
,,,,,775537,001,2025-03-17_14h12.46.286,Utility_discrimination_2024_2cat,2024.2.4,MacIntel,29.94011976,,,,,,,,2,"[0.5,0.5]","[0.707,0.707]",d,"[0.5,0.609283016908806]","[0.5,0.39071698309119396]",510.0552,512.2514,0,d,0,0.6539,,0.014119836,0.336458359,0.322338523,512.2551,512.2551,0,185,185,185,1,0.109283017,0.109283017,shape_difference4,1,,TRUE,,intensity,0.1,0.05,0.7,0.3,0.82,20,400,1E-11,3.5,0.01,0.5,0.1,,,,,,,,,,,,,,,,,,,,,,,,,,,,,,,,,,,,,,,,,,,,,,,,,,,,,,,,,,,,,,,,,,,,,,,,,,,,,,,,,
,,,,,775537,001,2025-03-17_14h12.46.286,Utility_discrimination_2024_2cat,2024.2.4,MacIntel,29.94011976,,,,,,,,3,"[0.5,0.5]","[0.383,0.924]",s,"[0.608134036380541,0.608134036380541]","[0.391865963619459,0.391865963619459]",512.2561,514.4851,1,s,1,0.668,,-0.016608825,0.185986443,0.202595268,514.4889,514.4889,0,186,186,186,1,0.152947718,0.152947718,shape_difference2,1,,TRUE,,intensity,0.1,0.05,0.7,0.3,0.82,20,400,1E-11,3.5,0.01,0.5,0.1,,,,,,,,,,,,,,,,,,,,,,,,,,,,,,,,,,,,,,,,,,,,,,,,,,,,,,,,,,,,,,,,,,,,,,,,,,,,,,,,,
,,,,,775537,001,2025-03-17_14h12.46.286,Utility_discrimination_2024_2cat,2024.2.4,MacIntel,29.94011976,,,,,,,,0,"[0.5,0.5]","[1,0]",s,"[0.527483680359803,0.5663052758549817]","[0.47251631964019697,0.4336947241450183]",514.49,516.8185,1,s,1,0.7664,,0.005783012,0.186619838,0.180836826,516.8214,516.8215,0,187,187,187,1,0.071758957,0.071758957,shape_difference3,1,,TRUE,,intensity,0.1,0.05,0.7,0.3,0.82,20,400,1E-11,3.5,0.01,0.5,0.1,,,,,,,,,,,,,,,,,,,,,,,,,,,,,,,,,,,,,,,,,,,,,,,,,,,,,,,,,,,,,,,,,,,,,,,,,,,,,,,,,
,,,,,775537,001,2025-03-17_14h12.46.286,Utility_discrimination_2024_2cat,2024.2.4,MacIntel,29.94011976,,,,,,,,1,"[0.5,0.5]","[0.924,0.383]",s,"[0.5781738272741308,0.5]","[0.42182617272586925,0.5]",516.8225,518.7182,1,s,1,0.3483,,0.104804003,0.387909196,0.283105193,518.7208,518.7208,0,188,188,188,1,0.078173827,0.078173827,shape_difference0,1,,TRUE,,intensity,0.1,0.05,0.7,0.3,0.82,20,400,1E-11,3.5,0.01,0.5,0.1,,,,,,,,,,,,,,,,,,,,,,,,,,,,,,,,,,,,,,,,,,,,,,,,,,,,,,,,,,,,,,,,,,,,,,,,,,,,,,,,,
,,,,,775537,001,2025-03-17_14h12.46.286,Utility_discrimination_2024_2cat,2024.2.4,MacIntel,29.94011976,,,,,,,,2,"[0.5,0.5]","[0.707,0.707]",s,"[0.6896322735014291,0.5786029878258088]","[0.310367726498571,0.42139701217419123]",518.7218,520.7181,1,s,1,0.4514,,0.012328924,0.293996958,0.281668034,520.7211,520.7211,0,189,189,189,1,0.205229733,0.205229733,shape_difference1,1,,TRUE,,intensity,0.1,0.05,0.7,0.3,0.82,20,400,1E-11,3.5,0.01,0.5,0.1,,,,,,,,,,,,,,,,,,,,,,,,,,,,,,,,,,,,,,,,,,,,,,,,,,,,,,,,,,,,,,,,,,,,,,,,,,,,,,,,,
,,,,,775537,001,2025-03-17_14h12.46.286,Utility_discrimination_2024_2cat,2024.2.4,MacIntel,29.94011976,,,,,,,,4,"[0.5,0.5]","[0,1]",s,"[0.6009759118848745,0.6009759118848745]","[0.39902408811512546,0.39902408811512546]",520.722,522.585,1,s,1,0.3276,,0.012310993,0.222805136,0.210494143,522.5877,522.5877,0,190,190,190,1,0.142823072,0.142823072,shape_difference2,1,,TRUE,,intensity,0.1,0.05,0.7,0.3,0.82,20,400,1E-11,3.5,0.01,0.5,0.1,,,,,,,,,,,,,,,,,,,,,,,,,,,,,,,,,,,,,,,,,,,,,,,,,,,,,,,,,,,,,,,,,,,,,,,,,,,,,,,,,
