Consent.started,Consent.stopped,key_resp.keys,key_resp.rt,key_resp.duration,participant,session,date,expName,psychopyVersion,OS,frameRate,SetupExperiment.started,SetupExperiment.stopped,DiscrimInstructions_Pre.started,DiscrimInstructions_Pre.stopped,KeyboardResponse.keys,KeyboardResponse.rt,KeyboardResponse.duration,feature_index,feature_center,feature_vector,correct_answer,coord1,coord2,DiscriminationTrial.started,DiscriminationTrial.stopped,PreTest.response,Resp_s_or_d.keys,Resp_s_or_d.corr,Resp_s_or_d.rt,Resp_s_or_d.duration,PreTest.CI_lower,PreTest.CI_upper,PreTest.CI_width,CrashPretest_2.started,CrashPretest_2.stopped,PreTest.thisRepN,PreTest.thisTrialN,PreTest.thisN,PreTest.thisIndex,PreTest.ran,PreTest.intensity,intensity,PreTest.label,PreTest.nReps,PreTest.method,PreTest.autoLog,PreTest.seed,PreTest.varName,PreTest.startVal,PreTest.minVal,PreTest.maxVal,PreTest.startValSd,PreTest.pThreshold,PreTest.nTrials,PreTest.maxTrials,PreTest.stopInterval,PreTest.beta,PreTest.delta,PreTest.gamma,PreTest.grain,WelcomeToCategorizationTask.started,WelcomeToCategorizationTask.stopped,PressAnyKey3.keys,PressAnyKey3.rt,PressAnyKey3.duration,shape_coordinates,category_center,category_sigma,subspace_center,subspace_vector1,subspace_vector2,CategorizationTrial.started,CategorizationTrial.stopped,Respond_1or2.keys,Respond_1or2.rt,Respond_1or2.duration,Feedback.started,Feedback.stopped,xcoord,ycoord,shape_coord,numeric_response_minus1,correctness,truecategory,mixture_index,respAifA,respBifA,respAifB,respBifB,trial_number,D,muAx,muAy,muBx,muBy,sigmaA,sigmaB,priorA,priorB,TrialLoop.thisRepN,TrialLoop.thisTrialN,TrialLoop.thisN,TrialLoop.thisIndex,TrialLoop.ran,DiscriminationInstructions_Post.started,DiscriminationInstructions_Post.stopped,key_resp_2.keys,key_resp_2.rt,key_resp_2.duration,PostTest.response,PostTest.CI_lower,PostTest.CI_upper,PostTest.CI_width,CrashPosttest.started,CrashPosttest.stopped,PostTest.thisRepN,PostTest.thisTrialN,PostTest.thisN,PostTest.thisIndex,PostTest.ran,PostTest.intensity,PostTest.label,PostTest.nReps,PostTest.method,PostTest.autoLog,PostTest.seed,PostTest.varName,PostTest.startVal,PostTest.minVal,PostTest.maxVal,PostTest.startValSd,PostTest.pThreshold,PostTest.nTrials,PostTest.maxTrials,PostTest.stopInterval,PostTest.beta,PostTest.delta,PostTest.gamma,PostTest.grain,Thanks.started,Thanks.stopped
0.0002,5.593,y,5.5747,0.0006,788879,001,2025-03-15_15h55.58.904,Utility_discrimination_2024_2cat,2024.2.4,MacIntel,59.88023952,,,,,,,,,,,,,,,,,,,,,,,,,,,,,,,,,,,,,,,,,,,,,,,,,,,,,,,,,,,,,,,,,,,,,,,,,,,,,,,,,,,,,,,,,,,,,,,,,,,,,,,,,,,,,,,,,,,,,,,,,,,,,,,,,,,
,,,,,788879,001,2025-03-15_15h55.58.904,Utility_discrimination_2024_2cat,2024.2.4,MacIntel,59.88023952,5.5932,5.5933,,,,,,,,,,,,,,,,,,,,,,,,,,,,,,,,,,,,,,,,,,,,,,,,,,,,,,,,,,,,,,,,,,,,,,,,,,,,,,,,,,,,,,,,,,,,,,,,,,,,,,,,,,,,,,,,,,,,,,,,,,,,,,,,,
,,,,,788879,001,2025-03-15_15h55.58.904,Utility_discrimination_2024_2cat,2024.2.4,MacIntel,59.88023952,,,5.5933,8.6081,space,2.985,,,,,,,,,,,,,,,,,,,,,,,,,,,,,,,,,,,,,,,,,,,,,,,,,,,,,,,,,,,,,,,,,,,,,,,,,,,,,,,,,,,,,,,,,,,,,,,,,,,,,,,,,,,,,,,,,,,,,,,,,,,,,
,,,,,788879,001,2025-03-15_15h55.58.904,Utility_discrimination_2024_2cat,2024.2.4,MacIntel,59.88023952,,,,,,,,1,"[0.5,0.5]","[0.924,0.383]",,"[0.6185239449756466,0.5]","[0.3814760550243534,0.5]",8.6383,14.158,0,s,0,4.0083,,-0.447967632,0.547967632,0.995935263,14.1633,14.1635,0,0,0,0,1,0.118523945,0.118523945,shape_difference3,1,,TRUE,,intensity,0.1,0.05,0.7,0.3,0.82,20,400,1E-11,3.5,0.01,0.5,0.1,,,,,,,,,,,,,,,,,,,,,,,,,,,,,,,,,,,,,,,,,,,,,,,,,,,,,,,,,,,,,,,,,,,,,,,,,,,,,,,,,
,,,,,788879,001,2025-03-15_15h55.58.904,Utility_discrimination_2024_2cat,2024.2.4,MacIntel,59.88023952,,,,,,,,4,"[0.5,0.5]","[0,1]",d,"[0.6095161251574974,0.5453946709256726]","[0.3904838748425025,0.4546053290743273]",14.1651,16.5404,1,s,1,0.8593,,-0.447967632,0.547967632,0.995935263,16.5412,16.5412,0,1,1,1,1,0.118523945,0.118523945,shape_difference1,1,,TRUE,,intensity,0.1,0.05,0.7,0.3,0.82,20,400,1E-11,3.5,0.01,0.5,0.1,,,,,,,,,,,,,,,,,,,,,,,,,,,,,,,,,,,,,,,,,,,,,,,,,,,,,,,,,,,,,,,,,,,,,,,,,,,,,,,,,
,,,,,788879,001,2025-03-15_15h55.58.904,Utility_discrimination_2024_2cat,2024.2.4,MacIntel,59.88023952,,,,,,,,2,"[0.5,0.5]","[0.707,0.707]",s,"[0.5,0.6185239449756466]","[0.5,0.3814760550243534]",16.5416,19.1243,1,d,1,1.0507,,-0.447967632,0.547967632,0.995935263,19.133,19.133,0,2,2,2,1,0.118523945,0.118523945,shape_difference4,1,,TRUE,,intensity,0.1,0.05,0.7,0.3,0.82,20,400,1E-11,3.5,0.01,0.5,0.1,,,,,,,,,,,,,,,,,,,,,,,,,,,,,,,,,,,,,,,,,,,,,,,,,,,,,,,,,,,,,,,,,,,,,,,,,,,,,,,,,
,,,,,788879,001,2025-03-15_15h55.58.904,Utility_discrimination_2024_2cat,2024.2.4,MacIntel,59.88023952,,,,,,,,0,"[0.5,0.5]","[1,0]",d,"[0.5837964290977822,0.5837964290977822]","[0.4162035709022178,0.4162035709022178]",19.1339,21.491,1,s,1,0.8323,,-0.447967632,0.547967632,0.995935263,21.4951,21.4951,0,3,3,3,1,0.118523945,0.118523945,shape_difference2,1,,TRUE,,intensity,0.1,0.05,0.7,0.3,0.82,20,400,1E-11,3.5,0.01,0.5,0.1,,,,,,,,,,,,,,,,,,,,,,,,,,,,,,,,,,,,,,,,,,,,,,,,,,,,,,,,,,,,,,,,,,,,,,,,,,,,,,,,,
,,,,,788879,001,2025-03-15_15h55.58.904,Utility_discrimination_2024_2cat,2024.2.4,MacIntel,59.88023952,,,,,,,,4,"[0.5,0.5]","[0,1]",s,"[0.6185239449756466,0.5]","[0.3814760550243534,0.5]",21.4965,24.0796,1,d,1,1.0495,,-0.479157219,0.478510979,0.957668197,24.0833,24.0834,0,4,4,4,1,0.118523945,0.118523945,shape_difference0,1,,TRUE,,intensity,0.1,0.05,0.7,0.3,0.82,20,400,1E-11,3.5,0.01,0.5,0.1,,,,,,,,,,,,,,,,,,,,,,,,,,,,,,,,,,,,,,,,,,,,,,,,,,,,,,,,,,,,,,,,,,,,,,,,,,,,,,,,,
,,,,,788879,001,2025-03-15_15h55.58.904,Utility_discrimination_2024_2cat,2024.2.4,MacIntel,59.88023952,,,,,,,,2,"[0.5,0.5]","[0.707,0.707]",d,"[0.5,0.5370015867235566]","[0.5,0.4629984132764434]",24.0839,26.9071,1,s,1,1.3021,,-0.479157219,0.478510979,0.957668197,26.9102,26.9102,0,5,5,5,1,0.037001587,0.037001587,shape_difference4,1,,TRUE,,intensity,0.1,0.05,0.7,0.3,0.82,20,400,1E-11,3.5,0.01,0.5,0.1,,,,,,,,,,,,,,,,,,,,,,,,,,,,,,,,,,,,,,,,,,,,,,,,,,,,,,,,,,,,,,,,,,,,,,,,,,,,,,,,,
,,,,,788879,001,2025-03-15_15h55.58.904,Utility_discrimination_2024_2cat,2024.2.4,MacIntel,59.88023952,,,,,,,,3,"[0.5,0.5]","[0.383,0.924]",s,"[0.5261601218135545,0.5261601218135545]","[0.4738398781864455,0.4738398781864455]",26.9115,29.7911,1,s,1,1.3503,,0.008797352,0.664308158,0.655510806,29.7941,29.7942,0,6,6,6,1,0.037001587,0.037001587,shape_difference2,1,,TRUE,,intensity,0.1,0.05,0.7,0.3,0.82,20,400,1E-11,3.5,0.01,0.5,0.1,,,,,,,,,,,,,,,,,,,,,,,,,,,,,,,,,,,,,,,,,,,,,,,,,,,,,,,,,,,,,,,,,,,,,,,,,,,,,,,,,
,,,,,788879,001,2025-03-15_15h55.58.904,Utility_discrimination_2024_2cat,2024.2.4,MacIntel,59.88023952,,,,,,,,0,"[0.5,0.5]","[1,0]",s,"[0.6243672079123823,0.8000399480706037]","[0.37563279208761774,0.19996005192939625]",29.7953,32.4079,1,d,1,1.0855,,-0.479157219,0.478510979,0.957668197,32.4115,32.4116,0,7,7,7,1,0.324718559,0.324718559,shape_difference3,1,,TRUE,,intensity,0.1,0.05,0.7,0.3,0.82,20,400,1E-11,3.5,0.01,0.5,0.1,,,,,,,,,,,,,,,,,,,,,,,,,,,,,,,,,,,,,,,,,,,,,,,,,,,,,,,,,,,,,,,,,,,,,,,,,,,,,,,,,
,,,,,788879,001,2025-03-15_15h55.58.904,Utility_discrimination_2024_2cat,2024.2.4,MacIntel,59.88023952,,,,,,,,1,"[0.5,0.5]","[0.924,0.383]",d,"[0.5370015867235566,0.5]","[0.4629984132764434,0.5]",32.4133,35.0245,1,s,1,1.0845,,-0.479157219,0.478510979,0.957668197,35.0282,35.0282,0,8,8,8,1,0.037001587,0.037001587,shape_difference0,1,,TRUE,,intensity,0.1,0.05,0.7,0.3,0.82,20,400,1E-11,3.5,0.01,0.5,0.1,,,,,,,,,,,,,,,,,,,,,,,,,,,,,,,,,,,,,,,,,,,,,,,,,,,,,,,,,,,,,,,,,,,,,,,,,,,,,,,,,
,,,,,788879,001,2025-03-15_15h55.58.904,Utility_discrimination_2024_2cat,2024.2.4,MacIntel,59.88023952,,,,,,,,3,"[0.5,0.5]","[0.383,0.924]",s,"[0.5341894661325662,0.5141716077151222]","[0.46581053386743376,0.48582839228487784]",35.0293,37.6912,1,s,1,1.1336,,-0.003741292,0.604569979,0.608311271,37.6942,37.6942,0,9,9,9,1,0.037001587,0.037001587,shape_difference1,1,,TRUE,,intensity,0.1,0.05,0.7,0.3,0.82,20,400,1E-11,3.5,0.01,0.5,0.1,,,,,,,,,,,,,,,,,,,,,,,,,,,,,,,,,,,,,,,,,,,,,,,,,,,,,,,,,,,,,,,,,,,,,,,,,,,,,,,,,
,,,,,788879,001,2025-03-15_15h55.58.904,Utility_discrimination_2024_2cat,2024.2.4,MacIntel,59.88023952,,,,,,,,2,"[0.5,0.5]","[0.707,0.707]",s,"[0.6052550436813765,0.7539312280981512]","[0.3947449563186235,0.2460687719018489]",37.6955,40.1245,1,s,1,0.898,,-0.510435314,0.404710629,0.915145943,40.1275,40.1276,0,10,10,10,1,0.274817346,0.274817346,shape_difference3,1,,TRUE,,intensity,0.1,0.05,0.7,0.3,0.82,20,400,1E-11,3.5,0.01,0.5,0.1,,,,,,,,,,,,,,,,,,,,,,,,,,,,,,,,,,,,,,,,,,,,,,,,,,,,,,,,,,,,,,,,,,,,,,,,,,,,,,,,,
,,,,,788879,001,2025-03-15_15h55.58.904,Utility_discrimination_2024_2cat,2024.2.4,MacIntel,59.88023952,,,,,,,,0,"[0.5,0.5]","[1,0]",s,"[0.47365134701532874,0.47365134701532874]","[0.5263486529846713,0.5263486529846713]",40.1291,43.4242,1,s,1,1.764,,-0.510435314,0.404710629,0.915145943,43.4267,43.4267,0,11,11,11,1,-0.03726825,-0.03726825,shape_difference2,1,,TRUE,,intensity,0.1,0.05,0.7,0.3,0.82,20,400,1E-11,3.5,0.01,0.5,0.1,,,,,,,,,,,,,,,,,,,,,,,,,,,,,,,,,,,,,,,,,,,,,,,,,,,,,,,,,,,,,,,,,,,,,,,,,,,,,,,,,
,,,,,788879,001,2025-03-15_15h55.58.904,Utility_discrimination_2024_2cat,2024.2.4,MacIntel,59.88023952,,,,,,,,1,"[0.5,0.5]","[0.924,0.383]",s,"[0.4627317496680746,0.5]","[0.5372682503319254,0.5]",43.4277,46.091,1,s,1,1.1415,,-0.510435314,0.404710629,0.915145943,46.0932,46.0932,0,12,12,12,1,-0.03726825,-0.03726825,shape_difference0,1,,TRUE,,intensity,0.1,0.05,0.7,0.3,0.82,20,400,1E-11,3.5,0.01,0.5,0.1,,,,,,,,,,,,,,,,,,,,,,,,,,,,,,,,,,,,,,,,,,,,,,,,,,,,,,,,,,,,,,,,,,,,,,,,,,,,,,,,,
,,,,,788879,001,2025-03-15_15h55.58.904,Utility_discrimination_2024_2cat,2024.2.4,MacIntel,59.88023952,,,,,,,,4,"[0.5,0.5]","[0,1]",s,"[0.46556413669330093,0.48572626012287257]","[0.5344358633066991,0.5142737398771274]",46.0947,48.5734,0,s,0,0.9501,,-0.510435314,0.404710629,0.915145943,48.5757,48.5758,0,13,13,13,1,-0.03726825,-0.03726825,shape_difference1,1,,TRUE,,intensity,0.1,0.05,0.7,0.3,0.82,20,400,1E-11,3.5,0.01,0.5,0.1,,,,,,,,,,,,,,,,,,,,,,,,,,,,,,,,,,,,,,,,,,,,,,,,,,,,,,,,,,,,,,,,,,,,,,,,,,,,,,,,,
,,,,,788879,001,2025-03-15_15h55.58.904,Utility_discrimination_2024_2cat,2024.2.4,MacIntel,59.88023952,,,,,,,,2,"[0.5,0.5]","[0.707,0.707]",d,"[0.5,0.4627317496680746]","[0.5,0.5372682503319254]",48.5787,50.9078,1,d,1,0.8014,,-0.540713527,0.322166073,0.862879599,50.9105,50.9105,0,14,14,14,1,-0.03726825,-0.03726825,shape_difference4,1,,TRUE,,intensity,0.1,0.05,0.7,0.3,0.82,20,400,1E-11,3.5,0.01,0.5,0.1,,,,,,,,,,,,,,,,,,,,,,,,,,,,,,,,,,,,,,,,,,,,,,,,,,,,,,,,,,,,,,,,,,,,,,,,,,,,,,,,,
,,,,,788879,001,2025-03-15_15h55.58.904,Utility_discrimination_2024_2cat,2024.2.4,MacIntel,59.88023952,,,,,,,,4,"[0.5,0.5]","[0,1]",d,"[0.431701919481697,0.431701919481697]","[0.568298080518303,0.568298080518303]",50.9114,53.4909,1,d,1,1.0562,,-0.540713527,0.322166073,0.862879599,53.493,53.493,0,15,15,15,1,-0.09660266,-0.09660266,shape_difference2,1,,TRUE,,intensity,0.1,0.05,0.7,0.3,0.82,20,400,1E-11,3.5,0.01,0.5,0.1,,,,,,,,,,,,,,,,,,,,,,,,,,,,,,,,,,,,,,,,,,,,,,,,,,,,,,,,,,,,,,,,,,,,,,,,,,,,,,,,,
,,,,,788879,001,2025-03-15_15h55.58.904,Utility_discrimination_2024_2cat,2024.2.4,MacIntel,59.88023952,,,,,,,,1,"[0.5,0.5]","[0.924,0.383]",d,"[0.5,0.40339734014384304]","[0.5,0.5966026598561569]",53.4946,56.0235,1,d,1,1.0092,,-0.118157943,0.566731222,0.684889165,56.0275,56.0276,0,16,16,16,1,-0.09660266,-0.09660266,shape_difference4,1,,TRUE,,intensity,0.1,0.05,0.7,0.3,0.82,20,400,1E-11,3.5,0.01,0.5,0.1,,,,,,,,,,,,,,,,,,,,,,,,,,,,,,,,,,,,,,,,,,,,,,,,,,,,,,,,,,,,,,,,,,,,,,,,,,,,,,,,,
,,,,,788879,001,2025-03-15_15h55.58.904,Utility_discrimination_2024_2cat,2024.2.4,MacIntel,59.88023952,,,,,,,,0,"[0.5,0.5]","[1,0]",d,"[0.6704501382010035,0.570651951224009]","[0.3295498617989964,0.429348048775991]",56.0291,58.9744,0,d,0,1.4176,,-0.540713527,0.322166073,0.862879599,58.977,58.977,0,17,17,17,1,0.184469847,0.184469847,shape_difference1,1,,TRUE,,intensity,0.1,0.05,0.7,0.3,0.82,20,400,1E-11,3.5,0.01,0.5,0.1,,,,,,,,,,,,,,,,,,,,,,,,,,,,,,,,,,,,,,,,,,,,,,,,,,,,,,,,,,,,,,,,,,,,,,,,,,,,,,,,,
,,,,,788879,001,2025-03-15_15h55.58.904,Utility_discrimination_2024_2cat,2024.2.4,MacIntel,59.88023952,,,,,,,,3,"[0.5,0.5]","[0.383,0.924]",s,"[0.40339734014384304,0.5]","[0.5966026598561569,0.5]",58.9788,61.8074,1,s,1,1.3,,-0.026700702,0.552121039,0.578821741,61.809,61.809,0,18,18,18,1,-0.09660266,-0.09660266,shape_difference0,1,,TRUE,,intensity,0.1,0.05,0.7,0.3,0.82,20,400,1E-11,3.5,0.01,0.5,0.1,,,,,,,,,,,,,,,,,,,,,,,,,,,,,,,,,,,,,,,,,,,,,,,,,,,,,,,,,,,,,,,,,,,,,,,,,,,,,,,,,
,,,,,788879,001,2025-03-15_15h55.58.904,Utility_discrimination_2024_2cat,2024.2.4,MacIntel,59.88023952,,,,,,,,0,"[0.5,0.5]","[1,0]",s,"[0.5904518175805076,0.7182179619957938]","[0.4095481824194924,0.2817820380042062]",61.8099,64.7912,1,s,1,1.4496,,-0.569624043,0.240042019,0.809666061,64.7955,64.7956,0,19,19,19,1,0.236166626,0.236166626,shape_difference3,1,,TRUE,,intensity,0.1,0.05,0.7,0.3,0.82,20,400,1E-11,3.5,0.01,0.5,0.1,,,,,,,,,,,,,,,,,,,,,,,,,,,,,,,,,,,,,,,,,,,,,,,,,,,,,,,,,,,,,,,,,,,,,,,,,,,,,,,,,
,,,,,788879,001,2025-03-15_15h55.58.904,Utility_discrimination_2024_2cat,2024.2.4,MacIntel,59.88023952,,,,,,,,2,"[0.5,0.5]","[0.707,0.707]",s,"[0.35243994249424015,0.5]","[0.6475600575057598,0.5]",64.7968,67.1907,1,d,1,0.8775,,-0.569624043,0.240042019,0.809666061,67.1934,67.1935,0,20,20,20,1,-0.147560058,-0.147560058,shape_difference0,1,,TRUE,,intensity,0.1,0.05,0.7,0.3,0.82,20,400,1E-11,3.5,0.01,0.5,0.1,,,,,,,,,,,,,,,,,,,,,,,,,,,,,,,,,,,,,,,,,,,,,,,,,,,,,,,,,,,,,,,,,,,,,,,,,,,,,,,,,
,,,,,788879,001,2025-03-15_15h55.58.904,Utility_discrimination_2024_2cat,2024.2.4,MacIntel,59.88023952,,,,,,,,1,"[0.5,0.5]","[0.924,0.383]",d,"[0.39567503934342785,0.39567503934342785]","[0.6043249606565722,0.6043249606565722]",67.1953,70.2577,0,d,0,1.533,,0.074504002,0.684517101,0.610013099,70.2604,70.2604,0,21,21,21,1,-0.147560058,-0.147560058,shape_difference2,1,,TRUE,,intensity,0.1,0.05,0.7,0.3,0.82,20,400,1E-11,3.5,0.01,0.5,0.1,,,,,,,,,,,,,,,,,,,,,,,,,,,,,,,,,,,,,,,,,,,,,,,,,,,,,,,,,,,,,,,,,,,,,,,,,,,,,,,,,
,,,,,788879,001,2025-03-15_15h55.58.904,Utility_discrimination_2024_2cat,2024.2.4,MacIntel,59.88023952,,,,,,,,3,"[0.5,0.5]","[0.383,0.924]",s,"[0.8352924595570358,0.6389794502276458]","[0.1647075404429642,0.3610205497723542]",70.2613,72.9411,1,s,1,1.1536,,-0.050981617,0.494068035,0.545049652,72.9437,72.9438,0,22,22,22,1,0.362870627,0.362870627,shape_difference1,1,,TRUE,,intensity,0.1,0.05,0.7,0.3,0.82,20,400,1E-11,3.5,0.01,0.5,0.1,,,,,,,,,,,,,,,,,,,,,,,,,,,,,,,,,,,,,,,,,,,,,,,,,,,,,,,,,,,,,,,,,,,,,,,,,,,,,,,,,
,,,,,788879,001,2025-03-15_15h55.58.904,Utility_discrimination_2024_2cat,2024.2.4,MacIntel,59.88023952,,,,,,,,4,"[0.5,0.5]","[0,1]",s,"[0.5753418592221956,0.6817646943115111]","[0.4246581407778044,0.3182353056884889]",72.9447,75.8749,0,d,0,1.4118,,-0.569624043,0.240042019,0.809666061,75.8771,75.8771,0,23,23,23,1,0.196715037,0.196715037,shape_difference3,1,,TRUE,,intensity,0.1,0.05,0.7,0.3,0.82,20,400,1E-11,3.5,0.01,0.5,0.1,,,,,,,,,,,,,,,,,,,,,,,,,,,,,,,,,,,,,,,,,,,,,,,,,,,,,,,,,,,,,,,,,,,,,,,,,,,,,,,,,
,,,,,788879,001,2025-03-15_15h55.58.904,Utility_discrimination_2024_2cat,2024.2.4,MacIntel,59.88023952,,,,,,,,0,"[0.5,0.5]","[1,0]",s,"[0.5,0.35243994249424015]","[0.5,0.6475600575057598]",75.8788,78.9245,0,d,0,1.5168,,-0.588261172,0.151848651,0.740109824,78.9279,78.9279,0,24,24,24,1,-0.147560058,-0.147560058,shape_difference4,1,,TRUE,,intensity,0.1,0.05,0.7,0.3,0.82,20,400,1E-11,3.5,0.01,0.5,0.1,,,,,,,,,,,,,,,,,,,,,,,,,,,,,,,,,,,,,,,,,,,,,,,,,,,,,,,,,,,,,,,,,,,,,,,,,,,,,,,,,
,,,,,788879,001,2025-03-15_15h55.58.904,Utility_discrimination_2024_2cat,2024.2.4,MacIntel,59.88023952,,,,,,,,1,"[0.5,0.5]","[0.924,0.383]",s,"[0.3089903613102919,0.5]","[0.6910096386897081,0.5]",78.9289,83.2741,1,s,1,2.827,,0.059192908,0.630069596,0.570876688,83.2754,83.2754,0,25,25,25,1,-0.191009639,-0.191009639,shape_difference0,1,,TRUE,,intensity,0.1,0.05,0.7,0.3,0.82,20,400,1E-11,3.5,0.01,0.5,0.1,,,,,,,,,,,,,,,,,,,,,,,,,,,,,,,,,,,,,,,,,,,,,,,,,,,,,,,,,,,,,,,,,,,,,,,,,,,,,,,,,
,,,,,788879,001,2025-03-15_15h55.58.904,Utility_discrimination_2024_2cat,2024.2.4,MacIntel,59.88023952,,,,,,,,2,"[0.5,0.5]","[0.707,0.707]",s,"[0.7974369413967155,0.623288256011842]","[0.2025630586032845,0.376711743988158]",83.2759,85.8069,0,d,0,0.9996,,-0.233083019,0.431441265,0.664524284,85.8095,85.8095,0,26,26,26,1,0.321901452,0.321901452,shape_difference1,1,,TRUE,,intensity,0.1,0.05,0.7,0.3,0.82,20,400,1E-11,3.5,0.01,0.5,0.1,,,,,,,,,,,,,,,,,,,,,,,,,,,,,,,,,,,,,,,,,,,,,,,,,,,,,,,,,,,,,,,,,,,,,,,,,,,,,,,,,
,,,,,788879,001,2025-03-15_15h55.58.904,Utility_discrimination_2024_2cat,2024.2.4,MacIntel,59.88023952,,,,,,,,3,"[0.5,0.5]","[0.383,0.924]",s,"[0.5217557912655285,0.5217557912655285]","[0.4782442087344715,0.4782442087344715]",85.8113,88.4912,0,d,0,1.1487,,0.086822279,0.600153011,0.513330733,88.4951,88.4951,0,27,27,27,1,0.030771982,0.030771982,shape_difference2,1,,TRUE,,intensity,0.1,0.05,0.7,0.3,0.82,20,400,1E-11,3.5,0.01,0.5,0.1,,,,,,,,,,,,,,,,,,,,,,,,,,,,,,,,,,,,,,,,,,,,,,,,,,,,,,,,,,,,,,,,,,,,,,,,,,,,,,,,,
,,,,,788879,001,2025-03-15_15h55.58.904,Utility_discrimination_2024_2cat,2024.2.4,MacIntel,59.88023952,,,,,,,,4,"[0.5,0.5]","[0,1]",s,"[0.614361634449184,0.7759011755379792]","[0.385638365550816,0.22409882446202078]",88.4963,91.4746,0,d,0,1.4609,,-0.233083019,0.431441265,0.664524284,91.4776,91.4776,0,28,28,28,1,0.298594346,0.298594346,shape_difference3,1,,TRUE,,intensity,0.1,0.05,0.7,0.3,0.82,20,400,1E-11,3.5,0.01,0.5,0.1,,,,,,,,,,,,,,,,,,,,,,,,,,,,,,,,,,,,,,,,,,,,,,,,,,,,,,,,,,,,,,,,,,,,,,,,,,,,,,,,,
,,,,,788879,001,2025-03-15_15h55.58.904,Utility_discrimination_2024_2cat,2024.2.4,MacIntel,59.88023952,,,,,,,,2,"[0.5,0.5]","[0.707,0.707]",s,"[0.5,0.5307719819880177]","[0.5,0.46922801801198233]",91.4787,94.0237,1,d,1,1.02,,-0.098442249,0.54348869,0.641930939,94.0263,94.0263,0,29,29,29,1,0.030771982,0.030771982,shape_difference4,1,,TRUE,,intensity,0.1,0.05,0.7,0.3,0.82,20,400,1E-11,3.5,0.01,0.5,0.1,,,,,,,,,,,,,,,,,,,,,,,,,,,,,,,,,,,,,,,,,,,,,,,,,,,,,,,,,,,,,,,,,,,,,,,,,,,,,,,,,
,,,,,788879,001,2025-03-15_15h55.58.904,Utility_discrimination_2024_2cat,2024.2.4,MacIntel,59.88023952,,,,,,,,3,"[0.5,0.5]","[0.383,0.924]",d,"[0.6137828171468542,0.6137828171468542]","[0.38621718285314577,0.38621718285314577]",94.0274,96.7412,1,d,1,1.1913,,0.182403504,0.698781918,0.516378414,96.7443,96.7443,0,30,30,30,1,0.160937507,0.160937507,shape_difference2,1,,TRUE,,intensity,0.1,0.05,0.7,0.3,0.82,20,400,1E-11,3.5,0.01,0.5,0.1,,,,,,,,,,,,,,,,,,,,,,,,,,,,,,,,,,,,,,,,,,,,,,,,,,,,,,,,,,,,,,,,,,,,,,,,,,,,,,,,,
,,,,,788879,001,2025-03-15_15h55.58.904,Utility_discrimination_2024_2cat,2024.2.4,MacIntel,59.88023952,,,,,,,,1,"[0.5,0.5]","[0.924,0.383]",d,"[0.6557863248831409,0.8758395931906585]","[0.3442136751168591,0.12416040680934148]",96.7454,99.1914,1,d,1,0.9177,,0.200444616,0.717848291,0.517403675,99.1955,99.1955,0,31,31,31,1,0.406752806,0.406752806,shape_difference3,1,,TRUE,,intensity,0.1,0.05,0.7,0.3,0.82,20,400,1E-11,3.5,0.01,0.5,0.1,,,,,,,,,,,,,,,,,,,,,,,,,,,,,,,,,,,,,,,,,,,,,,,,,,,,,,,,,,,,,,,,,,,,,,,,,,,,,,,,,
,,,,,788879,001,2025-03-15_15h55.58.904,Utility_discrimination_2024_2cat,2024.2.4,MacIntel,59.88023952,,,,,,,,0,"[0.5,0.5]","[1,0]",d,"[0.8965703855284569,0.6643792831790032]","[0.10342961447154309,0.33562071682099676]",99.1969,101.6076,1,d,1,0.8836,,-0.616056949,0.077962516,0.694019466,101.6098,101.6099,0,32,32,32,1,0.429188729,0.429188729,shape_difference1,1,,TRUE,,intensity,0.1,0.05,0.7,0.3,0.82,20,400,1E-11,3.5,0.01,0.5,0.1,,,,,,,,,,,,,,,,,,,,,,,,,,,,,,,,,,,,,,,,,,,,,,,,,,,,,,,,,,,,,,,,,,,,,,,,,,,,,,,,,
,,,,,788879,001,2025-03-15_15h55.58.904,Utility_discrimination_2024_2cat,2024.2.4,MacIntel,59.88023952,,,,,,,,4,"[0.5,0.5]","[0,1]",d,"[0.2663877560171044,0.5]","[0.7336122439828956,0.5]",101.6112,103.958,1,d,1,0.818,,-0.25333342,0.363948207,0.617281627,103.9611,103.9612,0,33,33,33,1,-0.233612244,-0.233612244,shape_difference0,1,,TRUE,,intensity,0.1,0.05,0.7,0.3,0.82,20,400,1E-11,3.5,0.01,0.5,0.1,,,,,,,,,,,,,,,,,,,,,,,,,,,,,,,,,,,,,,,,,,,,,,,,,,,,,,,,,,,,,,,,,,,,,,,,,,,,,,,,,
,,,,,788879,001,2025-03-15_15h55.58.904,Utility_discrimination_2024_2cat,2024.2.4,MacIntel,59.88023952,,,,,,,,4,"[0.5,0.5]","[0,1]",d,"[0.5,0.4862474728668147]","[0.5,0.5137525271331853]",103.9622,106.6742,1,s,1,1.1863,,-0.266581438,0.284894715,0.551476153,106.6759,106.6759,0,34,34,34,1,-0.013752527,-0.013752527,shape_difference4,1,,TRUE,,intensity,0.1,0.05,0.7,0.3,0.82,20,400,1E-11,3.5,0.01,0.5,0.1,,,,,,,,,,,,,,,,,,,,,,,,,,,,,,,,,,,,,,,,,,,,,,,,,,,,,,,,,,,,,,,,,,,,,,,,,,,,,,,,,
,,,,,788879,001,2025-03-15_15h55.58.904,Utility_discrimination_2024_2cat,2024.2.4,MacIntel,59.88023952,,,,,,,,1,"[0.5,0.5]","[0.924,0.383]",s,"[0.5,0.45758138611197696]","[0.5,0.542418613888023]",106.6766,109.1412,1,d,1,0.9328,,0.176688404,0.675874154,0.49918575,109.1435,109.1435,0,35,35,35,1,-0.042418614,-0.042418614,shape_difference4,1,,TRUE,,intensity,0.1,0.05,0.7,0.3,0.82,20,400,1E-11,3.5,0.01,0.5,0.1,,,,,,,,,,,,,,,,,,,,,,,,,,,,,,,,,,,,,,,,,,,,,,,,,,,,,,,,,,,,,,,,,,,,,,,,,,,,,,,,,
,,,,,788879,001,2025-03-15_15h55.58.904,Utility_discrimination_2024_2cat,2024.2.4,MacIntel,59.88023952,,,,,,,,2,"[0.5,0.5]","[0.707,0.707]",d,"[0.8620586488771085,0.6500740936362907]","[0.13794135112289146,0.34992590636370935]",109.1444,111.8908,0,d,0,1.2284,,-0.113060281,0.473393609,0.58645389,111.8945,111.8945,0,36,36,36,1,0.391838365,0.391838365,shape_difference1,1,,TRUE,,intensity,0.1,0.05,0.7,0.3,0.82,20,400,1E-11,3.5,0.01,0.5,0.1,,,,,,,,,,,,,,,,,,,,,,,,,,,,,,,,,,,,,,,,,,,,,,,,,,,,,,,,,,,,,,,,,,,,,,,,,,,,,,,,,
,,,,,788879,001,2025-03-15_15h55.58.904,Utility_discrimination_2024_2cat,2024.2.4,MacIntel,59.88023952,,,,,,,,3,"[0.5,0.5]","[0.383,0.924]",s,"[0.5806922529977719,0.5806922529977719]","[0.41930774700222806,0.41930774700222806]",111.8956,114.3912,1,s,1,0.9675,,0.163711044,0.659638324,0.49592728,114.3945,114.3945,0,37,37,37,1,0.114133314,0.114133314,shape_difference2,1,,TRUE,,intensity,0.1,0.05,0.7,0.3,0.82,20,400,1E-11,3.5,0.01,0.5,0.1,,,,,,,,,,,,,,,,,,,,,,,,,,,,,,,,,,,,,,,,,,,,,,,,,,,,,,,,,,,,,,,,,,,,,,,,,,,,,,,,,
,,,,,788879,001,2025-03-15_15h55.58.904,Utility_discrimination_2024_2cat,2024.2.4,MacIntel,59.88023952,,,,,,,,0,"[0.5,0.5]","[1,0]",s,"[0.6437840997867532,0.8468838334280939]","[0.3562159002132468,0.15311616657190613]",114.3957,117.2744,1,s,1,1.3562,,-0.642600146,0.003859163,0.64645931,117.2756,117.2756,0,38,38,38,1,0.375415404,0.375415404,shape_difference3,1,,TRUE,,intensity,0.1,0.05,0.7,0.3,0.82,20,400,1E-11,3.5,0.01,0.5,0.1,,,,,,,,,,,,,,,,,,,,,,,,,,,,,,,,,,,,,,,,,,,,,,,,,,,,,,,,,,,,,,,,,,,,,,,,,,,,,,,,,
,,,,,788879,001,2025-03-15_15h55.58.904,Utility_discrimination_2024_2cat,2024.2.4,MacIntel,59.88023952,,,,,,,,2,"[0.5,0.5]","[0.707,0.707]",s,"[0.23037327588610024,0.5]","[0.7696267241138998,0.5]",117.2762,119.5079,1,d,1,0.7041,,-0.133743911,0.405611709,0.53935562,119.5105,119.5105,0,39,39,39,1,-0.269626724,-0.269626724,shape_difference0,1,,TRUE,,intensity,0.1,0.05,0.7,0.3,0.82,20,400,1E-11,3.5,0.01,0.5,0.1,,,,,,,,,,,,,,,,,,,,,,,,,,,,,,,,,,,,,,,,,,,,,,,,,,,,,,,,,,,,,,,,,,,,,,,,,,,,,,,,,
,,,,,788879,001,2025-03-15_15h55.58.904,Utility_discrimination_2024_2cat,2024.2.4,MacIntel,59.88023952,,,,,,,,0,"[0.5,0.5]","[1,0]",d,"[0.5556476364342249,0.5556476364342249]","[0.4443523635657752,0.4443523635657752]",119.5118,122.1914,0,d,0,1.1583,,-0.67113939,-0.036541485,0.634597904,122.1936,122.1937,0,40,40,40,1,0.078709528,0.078709528,shape_difference2,1,,TRUE,,intensity,0.1,0.05,0.7,0.3,0.82,20,400,1E-11,3.5,0.01,0.5,0.1,,,,,,,,,,,,,,,,,,,,,,,,,,,,,,,,,,,,,,,,,,,,,,,,,,,,,,,,,,,,,,,,,,,,,,,,,,,,,,,,,
,,,,,788879,001,2025-03-15_15h55.58.904,Utility_discrimination_2024_2cat,2024.2.4,MacIntel,59.88023952,,,,,,,,1,"[0.5,0.5]","[0.924,0.383]",s,"[0.1898285633172705,0.5]","[0.8101714366827295,0.5]",122.1963,125.1903,1,d,1,1.4662,,0.27648968,0.771415254,0.494925574,125.1935,125.1935,0,41,41,41,1,-0.310171437,-0.310171437,shape_difference0,1,,TRUE,,intensity,0.1,0.05,0.7,0.3,0.82,20,400,1E-11,3.5,0.01,0.5,0.1,,,,,,,,,,,,,,,,,,,,,,,,,,,,,,,,,,,,,,,,,,,,,,,,,,,,,,,,,,,,,,,,,,,,,,,,,,,,,,,,,
,,,,,788879,001,2025-03-15_15h55.58.904,Utility_discrimination_2024_2cat,2024.2.4,MacIntel,59.88023952,,,,,,,,3,"[0.5,0.5]","[0.383,0.924]",d,"[0.9561041976819331,0.6890561771776844]","[0.043895802318066945,0.31094382282231564]",125.1947,128.59,1,d,1,1.8735,,0.151054659,0.59984704,0.448792381,128.5912,128.5912,0,42,42,42,1,0.493619262,0.493619262,shape_difference1,1,,TRUE,,intensity,0.1,0.05,0.7,0.3,0.82,20,400,1E-11,3.5,0.01,0.5,0.1,,,,,,,,,,,,,,,,,,,,,,,,,,,,,,,,,,,,,,,,,,,,,,,,,,,,,,,,,,,,,,,,,,,,,,,,,,,,,,,,,
,,,,,788879,001,2025-03-15_15h55.58.904,Utility_discrimination_2024_2cat,2024.2.4,MacIntel,59.88023952,,,,,,,,4,"[0.5,0.5]","[0,1]",d,"[0.6343566840336321,0.8241398852404076]","[0.3656433159663679,0.17586011475959246]",128.5922,130.9244,1,d,1,0.7992,,-0.275570276,0.202427142,0.477997418,130.9258,130.9258,0,43,43,43,1,0.350800742,0.350800742,shape_difference3,1,,TRUE,,intensity,0.1,0.05,0.7,0.3,0.82,20,400,1E-11,3.5,0.01,0.5,0.1,,,,,,,,,,,,,,,,,,,,,,,,,,,,,,,,,,,,,,,,,,,,,,,,,,,,,,,,,,,,,,,,,,,,,,,,,,,,,,,,,
,,,,,788879,001,2025-03-15_15h55.58.904,Utility_discrimination_2024_2cat,2024.2.4,MacIntel,59.88023952,,,,,,,,0,"[0.5,0.5]","[1,0]",d,"[0.5,0.4330909088933339]","[0.5,0.5669090911066661]",130.9262,134.041,0,d,0,1.5843,,-0.689998991,-0.095065821,0.594933171,134.0427,134.0427,0,44,44,44,1,-0.066909091,-0.066909091,shape_difference4,1,,TRUE,,intensity,0.1,0.05,0.7,0.3,0.82,20,400,1E-11,3.5,0.01,0.5,0.1,,,,,,,,,,,,,,,,,,,,,,,,,,,,,,,,,,,,,,,,,,,,,,,,,,,,,,,,,,,,,,,,,,,,,,,,,,,,,,,,,
,,,,,788879,001,2025-03-15_15h55.58.904,Utility_discrimination_2024_2cat,2024.2.4,MacIntel,59.88023952,,,,,,,,1,"[0.5,0.5]","[0.924,0.383]",s,"[0.1555533146123892,0.5]","[0.8444466853876108,0.5]",134.0433,137.6078,1,d,1,2.0317,,0.259941424,0.724545663,0.46460424,137.6097,137.6097,0,45,45,45,1,-0.344446685,-0.344446685,shape_difference0,1,,TRUE,,intensity,0.1,0.05,0.7,0.3,0.82,20,400,1E-11,3.5,0.01,0.5,0.1,,,,,,,,,,,,,,,,,,,,,,,,,,,,,,,,,,,,,,,,,,,,,,,,,,,,,,,,,,,,,,,,,,,,,,,,,,,,,,,,,
,,,,,788879,001,2025-03-15_15h55.58.904,Utility_discrimination_2024_2cat,2024.2.4,MacIntel,59.88023952,,,,,,,,4,"[0.5,0.5]","[0,1]",d,"[0.9318112478297539,0.6789866968818136]","[0.06818875217024611,0.32101330311818643]",137.6112,140.0747,1,d,1,0.9337,,-0.189754452,0.316583723,0.506338176,140.0777,140.0777,0,46,46,46,1,0.46732819,0.46732819,shape_difference1,1,,TRUE,,intensity,0.1,0.05,0.7,0.3,0.82,20,400,1E-11,3.5,0.01,0.5,0.1,,,,,,,,,,,,,,,,,,,,,,,,,,,,,,,,,,,,,,,,,,,,,,,,,,,,,,,,,,,,,,,,,,,,,,,,,,,,,,,,,
,,,,,788879,001,2025-03-15_15h55.58.904,Utility_discrimination_2024_2cat,2024.2.4,MacIntel,59.88023952,,,,,,,,2,"[0.5,0.5]","[0.707,0.707]",d,"[0.5,0.4887533523369186]","[0.5,0.5112466476630815]",140.0787,142.7249,0,d,0,1.1228,,-0.036652284,0.545331822,0.581984106,142.7291,142.7291,0,47,47,47,1,-0.011246648,-0.011246648,shape_difference4,1,,TRUE,,intensity,0.1,0.05,0.7,0.3,0.82,20,400,1E-11,3.5,0.01,0.5,0.1,,,,,,,,,,,,,,,,,,,,,,,,,,,,,,,,,,,,,,,,,,,,,,,,,,,,,,,,,,,,,,,,,,,,,,,,,,,,,,,,,
,,,,,788879,001,2025-03-15_15h55.58.904,Utility_discrimination_2024_2cat,2024.2.4,MacIntel,59.88023952,,,,,,,,3,"[0.5,0.5]","[0.383,0.924]",s,"[0.6378017570915743,0.6378017570915743]","[0.3621982429084257,0.3621982429084257]",142.7302,145.1246,1,s,1,0.8751,,0.142203489,0.561231724,0.419028235,145.127,145.1271,0,48,48,48,1,0.194910548,0.194910548,shape_difference2,1,,TRUE,,intensity,0.1,0.05,0.7,0.3,0.82,20,400,1E-11,3.5,0.01,0.5,0.1,,,,,,,,,,,,,,,,,,,,,,,,,,,,,,,,,,,,,,,,,,,,,,,,,,,,,,,,,,,,,,,,,,,,,,,,,,,,,,,,,
,,,,,788879,001,2025-03-15_15h55.58.904,Utility_discrimination_2024_2cat,2024.2.4,MacIntel,59.88023952,,,,,,,,0,"[0.5,0.5]","[1,0]",s,"[0.6259990868149629,0.8039769091828346]","[0.37400091318503714,0.1960230908171654]",145.128,147.5246,1,s,1,0.8749,,-0.706498112,-0.130139369,0.576358744,147.5273,147.5273,0,49,49,49,1,0.328979339,0.328979339,shape_difference3,1,,TRUE,,intensity,0.1,0.05,0.7,0.3,0.82,20,400,1E-11,3.5,0.01,0.5,0.1,,,,,,,,,,,,,,,,,,,,,,,,,,,,,,,,,,,,,,,,,,,,,,,,,,,,,,,,,,,,,,,,,,,,,,,,,,,,,,,,,
,,,,,788879,001,2025-03-15_15h55.58.904,Utility_discrimination_2024_2cat,2024.2.4,MacIntel,59.88023952,,,,,,,,3,"[0.5,0.5]","[0.383,0.924]",s,"[0.12491841427140571,0.5]","[0.8750815857285943,0.5]",147.5284,150.3077,1,d,1,1.2483,,0.132297669,0.517958092,0.385660424,150.309,150.309,0,50,50,50,1,-0.375081586,-0.375081586,shape_difference0,1,,TRUE,,intensity,0.1,0.05,0.7,0.3,0.82,20,400,1E-11,3.5,0.01,0.5,0.1,,,,,,,,,,,,,,,,,,,,,,,,,,,,,,,,,,,,,,,,,,,,,,,,,,,,,,,,,,,,,,,,,,,,,,,,,,,,,,,,,
,,,,,788879,001,2025-03-15_15h55.58.904,Utility_discrimination_2024_2cat,2024.2.4,MacIntel,59.88023952,,,,,,,,2,"[0.5,0.5]","[0.707,0.707]",d,"[0.6169595076783668,0.782168629490368]","[0.3830404923216332,0.21783137050963197]",150.3101,152.8248,1,d,1,0.9863,,-0.050705712,0.482261478,0.53296719,152.8275,152.8275,0,51,51,51,1,0.305377305,0.305377305,shape_difference3,1,,TRUE,,intensity,0.1,0.05,0.7,0.3,0.82,20,400,1E-11,3.5,0.01,0.5,0.1,,,,,,,,,,,,,,,,,,,,,,,,,,,,,,,,,,,,,,,,,,,,,,,,,,,,,,,,,,,,,,,,,,,,,,,,,,,,,,,,,
,,,,,788879,001,2025-03-15_15h55.58.904,Utility_discrimination_2024_2cat,2024.2.4,MacIntel,59.88023952,,,,,,,,1,"[0.5,0.5]","[0.924,0.383]",d,"[0.6155322983307224,0.6155322983307224]","[0.3844677016692776,0.3844677016692776]",152.8289,155.8581,1,d,1,1.5001,,0.248541601,0.680400075,0.431858474,155.8614,155.8615,0,52,52,52,1,0.16341202,0.16341202,shape_difference2,1,,TRUE,,intensity,0.1,0.05,0.7,0.3,0.82,20,400,1E-11,3.5,0.01,0.5,0.1,,,,,,,,,,,,,,,,,,,,,,,,,,,,,,,,,,,,,,,,,,,,,,,,,,,,,,,,,,,,,,,,,,,,,,,,,,,,,,,,,
,,,,,788879,001,2025-03-15_15h55.58.904,Utility_discrimination_2024_2cat,2024.2.4,MacIntel,59.88023952,,,,,,,,4,"[0.5,0.5]","[0,1]",d,"[0.9109573019805799,0.6703426911889201]","[0.08904269801942005,0.32965730881107996]",155.8627,158.7081,0,d,0,1.327,,-0.118970637,0.456496157,0.575466794,158.7112,158.7112,0,53,53,53,1,0.444758985,0.444758985,shape_difference1,1,,TRUE,,intensity,0.1,0.05,0.7,0.3,0.82,20,400,1E-11,3.5,0.01,0.5,0.1,,,,,,,,,,,,,,,,,,,,,,,,,,,,,,,,,,,,,,,,,,,,,,,,,,,,,,,,,,,,,,,,,,,,,,,,,,,,,,,,,
,,,,,788879,001,2025-03-15_15h55.58.904,Utility_discrimination_2024_2cat,2024.2.4,MacIntel,59.88023952,,,,,,,,3,"[0.5,0.5]","[0.383,0.924]",s,"[0.5,0.5849385947476506]","[0.5,0.4150614052523494]",158.7122,161.8248,1,s,1,1.5882,,0.125200837,0.485529059,0.360328222,161.8272,161.8272,0,54,54,54,1,0.084938595,0.084938595,shape_difference4,1,,TRUE,,intensity,0.1,0.05,0.7,0.3,0.82,20,400,1E-11,3.5,0.01,0.5,0.1,,,,,,,,,,,,,,,,,,,,,,,,,,,,,,,,,,,,,,,,,,,,,,,,,,,,,,,,,,,,,,,,,,,,,,,,,,,,,,,,,
,,,,,788879,001,2025-03-15_15h55.58.904,Utility_discrimination_2024_2cat,2024.2.4,MacIntel,59.88023952,,,,,,,,4,"[0.5,0.5]","[0,1]",s,"[0.6105673394966155,0.7667473151302159]","[0.38943266050338454,0.23325268486978412]",161.8289,164.5243,1,s,1,1.1669,,-0.13570119,0.384121873,0.519823063,164.527,164.527,0,55,55,55,1,0.28868757,0.28868757,shape_difference3,1,,TRUE,,intensity,0.1,0.05,0.7,0.3,0.82,20,400,1E-11,3.5,0.01,0.5,0.1,,,,,,,,,,,,,,,,,,,,,,,,,,,,,,,,,,,,,,,,,,,,,,,,,,,,,,,,,,,,,,,,,,,,,,,,,,,,,,,,,
,,,,,788879,001,2025-03-15_15h55.58.904,Utility_discrimination_2024_2cat,2024.2.4,MacIntel,59.88023952,,,,,,,,0,"[0.5,0.5]","[1,0]",s,"[0.5,0.5560883912307076]","[0.5,0.44391160876929237]",164.5281,167.0916,1,d,1,1.0343,,-0.740475113,-0.170023005,0.570452108,167.0955,167.0955,0,56,56,56,1,0.056088391,0.056088391,shape_difference4,1,,TRUE,,intensity,0.1,0.05,0.7,0.3,0.82,20,400,1E-11,3.5,0.01,0.5,0.1,,,,,,,,,,,,,,,,,,,,,,,,,,,,,,,,,,,,,,,,,,,,,,,,,,,,,,,,,,,,,,,,,,,,,,,,,,,,,,,,,
,,,,,788879,001,2025-03-15_15h55.58.904,Utility_discrimination_2024_2cat,2024.2.4,MacIntel,59.88023952,,,,,,,,1,"[0.5,0.5]","[0.924,0.383]",d,"[0.08949394097392083,0.5]","[0.9105060590260792,0.5]",167.0968,169.8915,0,d,0,1.2691,,0.313214794,0.745364283,0.432149489,169.8939,169.8939,0,57,57,57,1,-0.410506059,-0.410506059,shape_difference0,1,,TRUE,,intensity,0.1,0.05,0.7,0.3,0.82,20,400,1E-11,3.5,0.01,0.5,0.1,,,,,,,,,,,,,,,,,,,,,,,,,,,,,,,,,,,,,,,,,,,,,,,,,,,,,,,,,,,,,,,,,,,,,,,,,,,,,,,,,
,,,,,788879,001,2025-03-15_15h55.58.904,Utility_discrimination_2024_2cat,2024.2.4,MacIntel,59.88023952,,,,,,,,2,"[0.5,0.5]","[0.707,0.707]",s,"[0.9560980787125929,0.6890536408516483]","[0.04390192128740711,0.31094635914835167]",169.8957,172.7581,0,d,0,1.3338,,-0.060161976,0.41606673,0.476228706,172.7623,172.7624,0,58,58,58,1,0.493612639,0.493612639,shape_difference1,1,,TRUE,,intensity,0.1,0.05,0.7,0.3,0.82,20,400,1E-11,3.5,0.01,0.5,0.1,,,,,,,,,,,,,,,,,,,,,,,,,,,,,,,,,,,,,,,,,,,,,,,,,,,,,,,,,,,,,,,,,,,,,,,,,,,,,,,,,
,,,,,788879,001,2025-03-15_15h55.58.904,Utility_discrimination_2024_2cat,2024.2.4,MacIntel,59.88023952,,,,,,,,3,"[0.5,0.5]","[0.383,0.924]",s,"[0.5967156277300004,0.5967156277300004]","[0.4032843722699996,0.4032843722699996]",172.7639,175.1241,1,d,1,0.8335,,0.119990863,0.459074413,0.33908355,175.1261,175.1262,0,59,59,59,1,0.13679721,0.13679721,shape_difference2,1,,TRUE,,intensity,0.1,0.05,0.7,0.3,0.82,20,400,1E-11,3.5,0.01,0.5,0.1,,,,,,,,,,,,,,,,,,,,,,,,,,,,,,,,,,,,,,,,,,,,,,,,,,,,,,,,,,,,,,,,,,,,,,,,,,,,,,,,,
,,,,,788879,001,2025-03-15_15h55.58.904,Utility_discrimination_2024_2cat,2024.2.4,MacIntel,59.88023952,,,,,,,,1,"[0.5,0.5]","[0.924,0.383]",d,"[0.6059552816270258,0.7556205749957492]","[0.3940447183729741,0.24437942500425086]",175.1273,177.5409,1,d,1,0.8839,,0.386856487,0.824650929,0.437794443,177.5438,177.5438,0,60,60,60,1,0.276645644,0.276645644,shape_difference3,1,,TRUE,,intensity,0.1,0.05,0.7,0.3,0.82,20,400,1E-11,3.5,0.01,0.5,0.1,,,,,,,,,,,,,,,,,,,,,,,,,,,,,,,,,,,,,,,,,,,,,,,,,,,,,,,,,,,,,,,,,,,,,,,,,,,,,,,,,
,,,,,788879,001,2025-03-15_15h55.58.904,Utility_discrimination_2024_2cat,2024.2.4,MacIntel,59.88023952,,,,,,,,4,"[0.5,0.5]","[0,1]",d,"[1.0321324469401436,0.7205700510585227]","[-0.03213244694014361,0.27942994894147727]",177.5449,180.4915,1,s,1,1.4191,,-0.14705066,0.307876725,0.454927385,180.4937,180.4937,0,61,61,61,1,0.575900917,0.575900917,shape_difference1,1,,TRUE,,intensity,0.1,0.05,0.7,0.3,0.82,20,400,1E-11,3.5,0.01,0.5,0.1,,,,,,,,,,,,,,,,,,,,,,,,,,,,,,,,,,,,,,,,,,,,,,,,,,,,,,,,,,,,,,,,,,,,,,,,,,,,,,,,,
,,,,,788879,001,2025-03-15_15h55.58.904,Utility_discrimination_2024_2cat,2024.2.4,MacIntel,59.88023952,,,,,,,,2,"[0.5,0.5]","[0.707,0.707]",s,"[0.5,0.5315553985176592]","[0.5,0.4684446014823408]",180.4946,185.508,0,s,0,3.4814,,-0.069975066,0.370543616,0.440518682,185.5102,185.5103,0,62,62,62,1,0.031555399,0.031555399,shape_difference4,1,,TRUE,,intensity,0.1,0.05,0.7,0.3,0.82,20,400,1E-11,3.5,0.01,0.5,0.1,,,,,,,,,,,,,,,,,,,,,,,,,,,,,,,,,,,,,,,,,,,,,,,,,,,,,,,,,,,,,,,,,,,,,,,,,,,,,,,,,
,,,,,788879,001,2025-03-15_15h55.58.904,Utility_discrimination_2024_2cat,2024.2.4,MacIntel,59.88023952,,,,,,,,0,"[0.5,0.5]","[1,0]",d,"[0.5779194528907345,0.5779194528907345]","[0.42208054710926546,0.42208054710926546]",185.5112,188.9248,1,s,1,1.8827,,-0.511931572,-0.088683383,0.423248189,188.9282,188.9283,0,63,63,63,1,0.11021139,0.11021139,shape_difference2,1,,TRUE,,intensity,0.1,0.05,0.7,0.3,0.82,20,400,1E-11,3.5,0.01,0.5,0.1,,,,,,,,,,,,,,,,,,,,,,,,,,,,,,,,,,,,,,,,,,,,,,,,,,,,,,,,,,,,,,,,,,,,,,,,,,,,,,,,,
,,,,,788879,001,2025-03-15_15h55.58.904,Utility_discrimination_2024_2cat,2024.2.4,MacIntel,59.88023952,,,,,,,,0,"[0.5,0.5]","[1,0]",s,"[0.18730434427723142,0.5]","[0.8126956557227686,0.5]",188.9293,191.4249,0,d,0,0.9755,,-0.420931316,0.005980659,0.426911975,191.427,191.4271,0,64,64,64,1,-0.312695656,-0.312695656,shape_difference0,1,,TRUE,,intensity,0.1,0.05,0.7,0.3,0.82,20,400,1E-11,3.5,0.01,0.5,0.1,,,,,,,,,,,,,,,,,,,,,,,,,,,,,,,,,,,,,,,,,,,,,,,,,,,,,,,,,,,,,,,,,,,,,,,,,,,,,,,,,
,,,,,788879,001,2025-03-15_15h55.58.904,Utility_discrimination_2024_2cat,2024.2.4,MacIntel,59.88023952,,,,,,,,2,"[0.5,0.5]","[0.707,0.707]",s,"[0.2687406477884806,0.5]","[0.7312593522115194,0.5]",191.4281,194.3415,1,s,1,1.3931,,-0.076883541,0.317273851,0.394157392,194.3443,194.3443,0,65,65,65,1,-0.231259352,-0.231259352,shape_difference0,1,,TRUE,,intensity,0.1,0.05,0.7,0.3,0.82,20,400,1E-11,3.5,0.01,0.5,0.1,,,,,,,,,,,,,,,,,,,,,,,,,,,,,,,,,,,,,,,,,,,,,,,,,,,,,,,,,,,,,,,,,,,,,,,,,,,,,,,,,
,,,,,788879,001,2025-03-15_15h55.58.904,Utility_discrimination_2024_2cat,2024.2.4,MacIntel,59.88023952,,,,,,,,1,"[0.5,0.5]","[0.924,0.383]",s,"[0.5635141817256819,0.5635141817256819]","[0.4364858182743181,0.4364858182743181]",194.3453,200.8581,1,d,1,4.985,,0.370257672,0.783662836,0.413405164,200.8603,200.8604,0,66,66,66,1,0.089836183,0.089836183,shape_difference2,1,,TRUE,,intensity,0.1,0.05,0.7,0.3,0.82,20,400,1E-11,3.5,0.01,0.5,0.1,,,,,,,,,,,,,,,,,,,,,,,,,,,,,,,,,,,,,,,,,,,,,,,,,,,,,,,,,,,,,,,,,,,,,,,,,,,,,,,,,
,,,,,788879,001,2025-03-15_15h55.58.904,Utility_discrimination_2024_2cat,2024.2.4,MacIntel,59.88023952,,,,,,,,4,"[0.5,0.5]","[0,1]",d,"[1.0120248017853677,0.7122353886188266]","[-0.01202480178536769,0.2877646113811734]",200.861,203.3082,1,d,1,0.9167,,-0.088691464,0.408444199,0.497135663,203.3107,203.3108,0,67,67,67,1,0.554139396,0.554139396,shape_difference1,1,,TRUE,,intensity,0.1,0.05,0.7,0.3,0.82,20,400,1E-11,3.5,0.01,0.5,0.1,,,,,,,,,,,,,,,,,,,,,,,,,,,,,,,,,,,,,,,,,,,,,,,,,,,,,,,,,,,,,,,,,,,,,,,,,,,,,,,,,
,,,,,788879,001,2025-03-15_15h55.58.904,Utility_discrimination_2024_2cat,2024.2.4,MacIntel,59.88023952,,,,,,,,3,"[0.5,0.5]","[0.383,0.924]",d,"[0.5,0.5849512030768352]","[0.5,0.41504879692316476]",203.3117,205.5916,1,s,1,0.7604,,0.116072329,0.423953129,0.3078808,205.5945,205.5946,0,68,68,68,1,0.084951203,0.084951203,shape_difference4,1,,TRUE,,intensity,0.1,0.05,0.7,0.3,0.82,20,400,1E-11,3.5,0.01,0.5,0.1,,,,,,,,,,,,,,,,,,,,,,,,,,,,,,,,,,,,,,,,,,,,,,,,,,,,,,,,,,,,,,,,,,,,,,,,,,,,,,,,,
,,,,,788879,001,2025-03-15_15h55.58.904,Utility_discrimination_2024_2cat,2024.2.4,MacIntel,59.88023952,,,,,,,,4,"[0.5,0.5]","[0,1]",s,"[0.6020405782972849,0.74617622544828]","[0.3979594217027151,0.25382377455172]",205.5955,208.2078,1,d,1,1.0892,,-0.092043151,0.347917262,0.439960413,208.2107,208.2107,0,69,69,69,1,0.266424486,0.266424486,shape_difference3,1,,TRUE,,intensity,0.1,0.05,0.7,0.3,0.82,20,400,1E-11,3.5,0.01,0.5,0.1,,,,,,,,,,,,,,,,,,,,,,,,,,,,,,,,,,,,,,,,,,,,,,,,,,,,,,,,,,,,,,,,,,,,,,,,,,,,,,,,,
,,,,,788879,001,2025-03-15_15h55.58.904,Utility_discrimination_2024_2cat,2024.2.4,MacIntel,59.88023952,,,,,,,,0,"[0.5,0.5]","[1,0]",d,"[0.5,0.5644681046269483]","[0.5,0.4355318953730517]",208.2117,210.9582,0,d,0,1.2174,,-0.435833126,-0.032183208,0.403649918,210.9604,210.9604,0,70,70,70,1,0.064468105,0.064468105,shape_difference4,1,,TRUE,,intensity,0.1,0.05,0.7,0.3,0.82,20,400,1E-11,3.5,0.01,0.5,0.1,,,,,,,,,,,,,,,,,,,,,,,,,,,,,,,,,,,,,,,,,,,,,,,,,,,,,,,,,,,,,,,,,,,,,,,,,,,,,,,,,
,,,,,788879,001,2025-03-15_15h55.58.904,Utility_discrimination_2024_2cat,2024.2.4,MacIntel,59.88023952,,,,,,,,3,"[0.5,0.5]","[0.383,0.924]",s,"[0.249741409725577,0.5]","[0.750258590274423,0.5]",210.9614,213.7749,1,d,1,1.2835,,0.113054538,0.395120415,0.282065877,213.778,213.778,0,71,71,71,1,-0.25025859,-0.25025859,shape_difference0,1,,TRUE,,intensity,0.1,0.05,0.7,0.3,0.82,20,400,1E-11,3.5,0.01,0.5,0.1,,,,,,,,,,,,,,,,,,,,,,,,,,,,,,,,,,,,,,,,,,,,,,,,,,,,,,,,,,,,,,,,,,,,,,,,,,,,,,,,,
,,,,,788879,001,2025-03-15_15h55.58.904,Utility_discrimination_2024_2cat,2024.2.4,MacIntel,59.88023952,,,,,,,,2,"[0.5,0.5]","[0.707,0.707]",d,"[0.5985838910098675,0.737836854551221]","[0.4014161089901324,0.26216314544877894]",213.7792,216.4582,1,d,1,1.1535,,-0.081883357,0.278915047,0.360798404,216.4609,216.4609,0,72,72,72,1,0.257399193,0.257399193,shape_difference3,1,,TRUE,,intensity,0.1,0.05,0.7,0.3,0.82,20,400,1E-11,3.5,0.01,0.5,0.1,,,,,,,,,,,,,,,,,,,,,,,,,,,,,,,,,,,,,,,,,,,,,,,,,,,,,,,,,,,,,,,,,,,,,,,,,,,,,,,,,
,,,,,788879,001,2025-03-15_15h55.58.904,Utility_discrimination_2024_2cat,2024.2.4,MacIntel,59.88023952,,,,,,,,1,"[0.5,0.5]","[0.924,0.383]",d,"[0.554065346919783,0.554065346919783]","[0.44593465308021696,0.44593465308021696]",216.462,218.9907,1,s,1,1.0004,,0.358495048,0.747316371,0.388821324,218.994,218.994,0,73,73,73,1,0.076471495,0.076471495,shape_difference2,1,,TRUE,,intensity,0.1,0.05,0.7,0.3,0.82,20,400,1E-11,3.5,0.01,0.5,0.1,,,,,,,,,,,,,,,,,,,,,,,,,,,,,,,,,,,,,,,,,,,,,,,,,,,,,,,,,,,,,,,,,,,,,,,,,,,,,,,,,
,,,,,788879,001,2025-03-15_15h55.58.904,Utility_discrimination_2024_2cat,2024.2.4,MacIntel,59.88023952,,,,,,,,3,"[0.5,0.5]","[0.383,0.924]",s,"[0.9941106743417423,0.7048099440182762]","[0.005889325658257727,0.29519005598172376]",218.9952,221.4583,1,d,1,0.9331,,0.110676768,0.383931344,0.273254576,221.4613,221.4613,0,74,74,74,1,0.534751812,0.534751812,shape_difference1,1,,TRUE,,intensity,0.1,0.05,0.7,0.3,0.82,20,400,1E-11,3.5,0.01,0.5,0.1,,,,,,,,,,,,,,,,,,,,,,,,,,,,,,,,,,,,,,,,,,,,,,,,,,,,,,,,,,,,,,,,,,,,,,,,,,,,,,,,,
,,,,,788879,001,2025-03-15_15h55.58.904,Utility_discrimination_2024_2cat,2024.2.4,MacIntel,59.88023952,,,,,,,,1,"[0.5,0.5]","[0.924,0.383]",d,"[0.5954023495235967,0.7301612818793821]","[0.4045976504764033,0.2698387181206179]",221.4624,223.8418,1,s,1,0.8505,,0.345253298,0.706450759,0.361197461,223.844,223.8441,0,75,75,75,1,0.249092296,0.249092296,shape_difference3,1,,TRUE,,intensity,0.1,0.05,0.7,0.3,0.82,20,400,1E-11,3.5,0.01,0.5,0.1,,,,,,,,,,,,,,,,,,,,,,,,,,,,,,,,,,,,,,,,,,,,,,,,,,,,,,,,,,,,,,,,,,,,,,,,,,,,,,,,,
,,,,,788879,001,2025-03-15_15h55.58.904,Utility_discrimination_2024_2cat,2024.2.4,MacIntel,59.88023952,,,,,,,,2,"[0.5,0.5]","[0.707,0.707]",s,"[0.9751274918362354,0.6969413737806041]","[0.02487250816376463,0.30305862621939594]",223.8452,226.2917,1,d,1,0.9266,,-0.085603216,0.243224049,0.328827266,226.2939,226.2939,0,76,76,76,1,0.514207242,0.514207242,shape_difference1,1,,TRUE,,intensity,0.1,0.05,0.7,0.3,0.82,20,400,1E-11,3.5,0.01,0.5,0.1,,,,,,,,,,,,,,,,,,,,,,,,,,,,,,,,,,,,,,,,,,,,,,,,,,,,,,,,,,,,,,,,,,,,,,,,,,,,,,,,,
,,,,,788879,001,2025-03-15_15h55.58.904,Utility_discrimination_2024_2cat,2024.2.4,MacIntel,59.88023952,,,,,,,,4,"[0.5,0.5]","[0,1]",d,"[0.5461311943025507,0.5461311943025507]","[0.4538688056974492,0.4538688056974492]",226.2956,228.375,1,d,1,0.554,,-0.047878521,0.490083526,0.537962048,228.378,228.378,0,77,77,77,1,0.065249214,0.065249214,shape_difference2,1,,TRUE,,intensity,0.1,0.05,0.7,0.3,0.82,20,400,1E-11,3.5,0.01,0.5,0.1,,,,,,,,,,,,,,,,,,,,,,,,,,,,,,,,,,,,,,,,,,,,,,,,,,,,,,,,,,,,,,,,,,,,,,,,,,,,,,,,,
,,,,,788879,001,2025-03-15_15h55.58.904,Utility_discrimination_2024_2cat,2024.2.4,MacIntel,59.88023952,,,,,,,,0,"[0.5,0.5]","[1,0]",d,"[0.5,0.6580249017398231]","[0.5,0.3419750982601769]",228.379,230.6084,1,d,1,0.7015,,-0.451851407,-0.068266018,0.38358539,230.6118,230.6118,0,78,78,78,1,0.158024902,0.158024902,shape_difference4,1,,TRUE,,intensity,0.1,0.05,0.7,0.3,0.82,20,400,1E-11,3.5,0.01,0.5,0.1,,,,,,,,,,,,,,,,,,,,,,,,,,,,,,,,,,,,,,,,,,,,,,,,,,,,,,,,,,,,,,,,,,,,,,,,,,,,,,,,,
,,,,,788879,001,2025-03-15_15h55.58.904,Utility_discrimination_2024_2cat,2024.2.4,MacIntel,59.88023952,,,,,,,,3,"[0.5,0.5]","[0.383,0.924]",d,"[0.23115363336322048,0.5]","[0.7688463666367795,0.5]",230.6129,233.1419,1,d,1,1.0113,,0.108077459,0.373448777,0.265371318,233.1442,233.1443,0,79,79,79,1,-0.268846367,-0.268846367,shape_difference0,1,,TRUE,,intensity,0.1,0.05,0.7,0.3,0.82,20,400,1E-11,3.5,0.01,0.5,0.1,,,,,,,,,,,,,,,,,,,,,,,,,,,,,,,,,,,,,,,,,,,,,,,,,,,,,,,,,,,,,,,,,,,,,,,,,,,,,,,,,
,,,,,788879,001,2025-03-15_15h55.58.904,Utility_discrimination_2024_2cat,2024.2.4,MacIntel,59.88023952,,,,,,,,4,"[0.5,0.5]","[0,1]",d,"[0.5920920466375802,0.7221750681282614]","[0.4079079533624198,0.2778249318717386]",233.1452,235.5416,1,s,1,0.8673,,-0.057164245,0.424597229,0.481761474,235.5436,235.5436,0,80,80,80,1,0.240449208,0.240449208,shape_difference3,1,,TRUE,,intensity,0.1,0.05,0.7,0.3,0.82,20,400,1E-11,3.5,0.01,0.5,0.1,,,,,,,,,,,,,,,,,,,,,,,,,,,,,,,,,,,,,,,,,,,,,,,,,,,,,,,,,,,,,,,,,,,,,,,,,,,,,,,,,
,,,,,788879,001,2025-03-15_15h55.58.904,Utility_discrimination_2024_2cat,2024.2.4,MacIntel,59.88023952,,,,,,,,0,"[0.5,0.5]","[1,0]",s,"[0.5,0.6294329864421812]","[0.5,0.37056701355781885]",235.5453,237.9583,1,s,1,0.8843,,-0.463140665,-0.105407964,0.357732701,237.9611,237.9611,0,81,81,81,1,0.129432986,0.129432986,shape_difference4,1,,TRUE,,intensity,0.1,0.05,0.7,0.3,0.82,20,400,1E-11,3.5,0.01,0.5,0.1,,,,,,,,,,,,,,,,,,,,,,,,,,,,,,,,,,,,,,,,,,,,,,,,,,,,,,,,,,,,,,,,,,,,,,,,,,,,,,,,,
,,,,,788879,001,2025-03-15_15h55.58.904,Utility_discrimination_2024_2cat,2024.2.4,MacIntel,59.88023952,,,,,,,,1,"[0.5,0.5]","[0.924,0.383]",s,"[0.2107727160300058,0.5]","[0.7892272839699942,0.5]",237.962,240.2917,1,s,1,0.803,,0.335795142,0.684173428,0.348378287,240.2937,240.2938,0,82,82,82,1,-0.289227284,-0.289227284,shape_difference0,1,,TRUE,,intensity,0.1,0.05,0.7,0.3,0.82,20,400,1E-11,3.5,0.01,0.5,0.1,,,,,,,,,,,,,,,,,,,,,,,,,,,,,,,,,,,,,,,,,,,,,,,,,,,,,,,,,,,,,,,,,,,,,,,,,,,,,,,,,
,,,,,788879,001,2025-03-15_15h55.58.904,Utility_discrimination_2024_2cat,2024.2.4,MacIntel,59.88023952,,,,,,,,2,"[0.5,0.5]","[0.707,0.707]",s,"[0.9574021009108518,0.6895941608753855]","[0.04259789908914818,0.31040583912461445]",240.2949,242.6418,1,s,1,0.8173,,-0.088446797,0.198906681,0.287353478,242.6448,242.6448,0,83,83,83,1,0.495023919,0.495023919,shape_difference1,1,,TRUE,,intensity,0.1,0.05,0.7,0.3,0.82,20,400,1E-11,3.5,0.01,0.5,0.1,,,,,,,,,,,,,,,,,,,,,,,,,,,,,,,,,,,,,,,,,,,,,,,,,,,,,,,,,,,,,,,,,,,,,,,,,,,,,,,,,
,,,,,788879,001,2025-03-15_15h55.58.904,Utility_discrimination_2024_2cat,2024.2.4,MacIntel,59.88023952,,,,,,,,4,"[0.5,0.5]","[0,1]",s,"[0.5391732827255155,0.5391732827255155]","[0.46082671727448454,0.46082671727448454]",242.6458,245.5252,1,s,1,1.3507,,-0.066751009,0.373484812,0.440235821,245.5286,245.5286,0,84,84,84,1,0.055407755,0.055407755,shape_difference2,1,,TRUE,,intensity,0.1,0.05,0.7,0.3,0.82,20,400,1E-11,3.5,0.01,0.5,0.1,,,,,,,,,,,,,,,,,,,,,,,,,,,,,,,,,,,,,,,,,,,,,,,,,,,,,,,,,,,,,,,,,,,,,,,,,,,,,,,,,
,,,,,788879,001,2025-03-15_15h55.58.904,Utility_discrimination_2024_2cat,2024.2.4,MacIntel,59.88023952,,,,,,,,1,"[0.5,0.5]","[0.924,0.383]",s,"[0.5,0.6007096170460201]","[0.5,0.3992903829539799]",245.5296,249.475,1,s,1,2.4175,,0.328894541,0.661452807,0.332558266,249.4777,249.4777,0,85,85,85,1,0.100709617,0.100709617,shape_difference4,1,,TRUE,,intensity,0.1,0.05,0.7,0.3,0.82,20,400,1E-11,3.5,0.01,0.5,0.1,,,,,,,,,,,,,,,,,,,,,,,,,,,,,,,,,,,,,,,,,,,,,,,,,,,,,,,,,,,,,,,,,,,,,,,,,,,,,,,,,
,,,,,788879,001,2025-03-15_15h55.58.904,Utility_discrimination_2024_2cat,2024.2.4,MacIntel,59.88023952,,,,,,,,0,"[0.5,0.5]","[1,0]",s,"[0.9465710037314564,0.6851046476505929]","[0.05342899626854358,0.31489535234940713]",249.4786,252.4584,0,d,0,1.4508,,-0.471274476,-0.124001445,0.347273031,252.463,252.4631,0,86,86,86,1,0.483301952,0.483301952,shape_difference1,1,,TRUE,,intensity,0.1,0.05,0.7,0.3,0.82,20,400,1E-11,3.5,0.01,0.5,0.1,,,,,,,,,,,,,,,,,,,,,,,,,,,,,,,,,,,,,,,,,,,,,,,,,,,,,,,,,,,,,,,,,,,,,,,,,,,,,,,,,
,,,,,788879,001,2025-03-15_15h55.58.904,Utility_discrimination_2024_2cat,2024.2.4,MacIntel,59.88023952,,,,,,,,2,"[0.5,0.5]","[0.707,0.707]",s,"[0.19280054125252521,0.5]","[0.8071994587474748,0.5]",252.4642,254.8739,1,d,1,0.8887,,-0.09067803,0.186218774,0.276896804,254.8751,254.8751,0,87,87,87,1,-0.307199459,-0.307199459,shape_difference0,1,,TRUE,,intensity,0.1,0.05,0.7,0.3,0.82,20,400,1E-11,3.5,0.01,0.5,0.1,,,,,,,,,,,,,,,,,,,,,,,,,,,,,,,,,,,,,,,,,,,,,,,,,,,,,,,,,,,,,,,,,,,,,,,,,,,,,,,,,
,,,,,788879,001,2025-03-15_15h55.58.904,Utility_discrimination_2024_2cat,2024.2.4,MacIntel,59.88023952,,,,,,,,3,"[0.5,0.5]","[0.383,0.924]",d,"[0.5327891259331089,0.5327891259331089]","[0.4672108740668911,0.4672108740668911]",254.8755,257.7585,1,s,1,1.3509,,0.105784549,0.36058049,0.254795941,257.7625,257.7625,0,88,88,88,1,0.04637783,0.04637783,shape_difference2,1,,TRUE,,intensity,0.1,0.05,0.7,0.3,0.82,20,400,1E-11,3.5,0.01,0.5,0.1,,,,,,,,,,,,,,,,,,,,,,,,,,,,,,,,,,,,,,,,,,,,,,,,,,,,,,,,,,,,,,,,,,,,,,,,,,,,,,,,,
,,,,,788879,001,2025-03-15_15h55.58.904,Utility_discrimination_2024_2cat,2024.2.4,MacIntel,59.88023952,,,,,,,,2,"[0.5,0.5]","[0.707,0.707]",s,"[0.5884655516154198,0.7134260305291069]","[0.4115344483845802,0.28657396947089314]",257.7639,259.9914,1,d,1,0.7008,,-0.093178536,0.174570544,0.267749081,259.9922,259.9922,0,89,89,89,1,0.230980553,0.230980553,shape_difference3,1,,TRUE,,intensity,0.1,0.05,0.7,0.3,0.82,20,400,1E-11,3.5,0.01,0.5,0.1,,,,,,,,,,,,,,,,,,,,,,,,,,,,,,,,,,,,,,,,,,,,,,,,,,,,,,,,,,,,,,,,,,,,,,,,,,,,,,,,,
,,,,,788879,001,2025-03-15_15h55.58.904,Utility_discrimination_2024_2cat,2024.2.4,MacIntel,59.88023952,,,,,,,,4,"[0.5,0.5]","[0,1]",d,"[0.5260987327419643,0.5260987327419643]","[0.4739012672580357,0.4739012672580357]",259.9926,262.7251,1,s,1,1.2097,,-0.073488974,0.317532462,0.391021436,262.7289,262.7289,0,90,90,90,1,0.036914756,0.036914756,shape_difference2,1,,TRUE,,intensity,0.1,0.05,0.7,0.3,0.82,20,400,1E-11,3.5,0.01,0.5,0.1,,,,,,,,,,,,,,,,,,,,,,,,,,,,,,,,,,,,,,,,,,,,,,,,,,,,,,,,,,,,,,,,,,,,,,,,,,,,,,,,,
,,,,,788879,001,2025-03-15_15h55.58.904,Utility_discrimination_2024_2cat,2024.2.4,MacIntel,59.88023952,,,,,,,,1,"[0.5,0.5]","[0.924,0.383]",s,"[0.5,0.5857287010568143]","[0.5,0.4142712989431857]",262.73,265.4419,1,d,1,1.1834,,0.402047681,0.716273849,0.314226168,265.4441,265.4442,0,91,91,91,1,0.085728701,0.085728701,shape_difference4,1,,TRUE,,intensity,0.1,0.05,0.7,0.3,0.82,20,400,1E-11,3.5,0.01,0.5,0.1,,,,,,,,,,,,,,,,,,,,,,,,,,,,,,,,,,,,,,,,,,,,,,,,,,,,,,,,,,,,,,,,,,,,,,,,,,,,,,,,,
,,,,,788879,001,2025-03-15_15h55.58.904,Utility_discrimination_2024_2cat,2024.2.4,MacIntel,59.88023952,,,,,,,,3,"[0.5,0.5]","[0.383,0.924]",d,"[0.9934777250528803,0.704547585168023]","[0.0065222749471195995,0.29545241483197704]",265.4452,271.4746,1,s,1,4.5007,,0.103687636,0.344369786,0.24068215,271.4766,271.4767,0,92,92,92,1,0.534066802,0.534066802,shape_difference1,1,,TRUE,,intensity,0.1,0.05,0.7,0.3,0.82,20,400,1E-11,3.5,0.01,0.5,0.1,,,,,,,,,,,,,,,,,,,,,,,,,,,,,,,,,,,,,,,,,,,,,,,,,,,,,,,,,,,,,,,,,,,,,,,,,,,,,,,,,
,,,,,788879,001,2025-03-15_15h55.58.904,Utility_discrimination_2024_2cat,2024.2.4,MacIntel,59.88023952,,,,,,,,0,"[0.5,0.5]","[1,0]",s,"[0.5843864504518052,0.7035850658419529]","[0.41561354954819485,0.29641493415804715]",271.4784,273.8252,1,d,1,0.8171,,-0.477266578,-0.147922388,0.32934419,273.8283,273.8283,0,93,93,93,1,0.220330158,0.220330158,shape_difference3,1,,TRUE,,intensity,0.1,0.05,0.7,0.3,0.82,20,400,1E-11,3.5,0.01,0.5,0.1,,,,,,,,,,,,,,,,,,,,,,,,,,,,,,,,,,,,,,,,,,,,,,,,,,,,,,,,,,,,,,,,,,,,,,,,,,,,,,,,,
,,,,,788879,001,2025-03-15_15h55.58.904,Utility_discrimination_2024_2cat,2024.2.4,MacIntel,59.88023952,,,,,,,,1,"[0.5,0.5]","[0.924,0.383]",d,"[0.18079793149615564,0.5]","[0.8192020685038444,0.5]",273.8294,276.9252,1,s,1,1.5678,,0.393997685,0.690724989,0.296727303,276.9281,276.9282,0,94,94,94,1,-0.319202069,-0.319202069,shape_difference0,1,,TRUE,,intensity,0.1,0.05,0.7,0.3,0.82,20,400,1E-11,3.5,0.01,0.5,0.1,,,,,,,,,,,,,,,,,,,,,,,,,,,,,,,,,,,,,,,,,,,,,,,,,,,,,,,,,,,,,,,,,,,,,,,,,,,,,,,,,
,,,,,788879,001,2025-03-15_15h55.58.904,Utility_discrimination_2024_2cat,2024.2.4,MacIntel,59.88023952,,,,,,,,4,"[0.5,0.5]","[0,1]",s,"[0.9781846488127746,0.6982085719646024]","[0.021815351187225496,0.3017914280353976]",276.9293,278.9244,1,d,1,0.4767,,-0.078351576,0.276458198,0.354809774,278.9267,278.9276,0,95,95,95,1,0.517515854,0.517515854,shape_difference1,1,,TRUE,,intensity,0.1,0.05,0.7,0.3,0.82,20,400,1E-11,3.5,0.01,0.5,0.1,,,,,,,,,,,,,,,,,,,,,,,,,,,,,,,,,,,,,,,,,,,,,,,,,,,,,,,,,,,,,,,,,,,,,,,,,,,,,,,,,
,,,,,788879,001,2025-03-15_15h55.58.904,Utility_discrimination_2024_2cat,2024.2.4,MacIntel,59.88023952,,,,,,,,2,"[0.5,0.5]","[0.707,0.707]",d,"[0.5,0.5739283157072294]","[0.5,0.42607168429277065]",278.9286,281.0418,1,d,1,0.583,,-0.095414878,0.160319019,0.255733897,281.0447,281.0447,0,96,96,96,1,0.073928316,0.073928316,shape_difference4,1,,TRUE,,intensity,0.1,0.05,0.7,0.3,0.82,20,400,1E-11,3.5,0.01,0.5,0.1,,,,,,,,,,,,,,,,,,,,,,,,,,,,,,,,,,,,,,,,,,,,,,,,,,,,,,,,,,,,,,,,,,,,,,,,,,,,,,,,,
,,,,,788879,001,2025-03-15_15h55.58.904,Utility_discrimination_2024_2cat,2024.2.4,MacIntel,59.88023952,,,,,,,,3,"[0.5,0.5]","[0.383,0.924]",d,"[0.5187366141793149,0.5187366141793149]","[0.48126338582068506,0.48126338582068506]",281.0458,283.6919,1,s,1,1.1288,,0.101697371,0.323493046,0.221795675,283.6942,283.6942,0,97,97,97,1,0.026501576,0.026501576,shape_difference2,1,,TRUE,,intensity,0.1,0.05,0.7,0.3,0.82,20,400,1E-11,3.5,0.01,0.5,0.1,,,,,,,,,,,,,,,,,,,,,,,,,,,,,,,,,,,,,,,,,,,,,,,,,,,,,,,,,,,,,,,,,,,,,,,,,,,,,,,,,
,,,,,788879,001,2025-03-15_15h55.58.904,Utility_discrimination_2024_2cat,2024.2.4,MacIntel,59.88023952,,,,,,,,0,"[0.5,0.5]","[1,0]",s,"[0.5796965175745907,0.6922704497099786]","[0.42030348242540927,0.30772955029002136]",283.6953,286.0418,1,d,1,0.8269,,-0.481779659,-0.179864111,0.301915548,286.0445,286.0446,0,98,98,98,1,0.208084902,0.208084902,shape_difference3,1,,TRUE,,intensity,0.1,0.05,0.7,0.3,0.82,20,400,1E-11,3.5,0.01,0.5,0.1,,,,,,,,,,,,,,,,,,,,,,,,,,,,,,,,,,,,,,,,,,,,,,,,,,,,,,,,,,,,,,,,,,,,,,,,,,,,,,,,,
,,,,,788879,001,2025-03-15_15h55.58.904,Utility_discrimination_2024_2cat,2024.2.4,MacIntel,59.88023952,,,,,,,,3,"[0.5,0.5]","[0.383,0.924]",d,"[0.1706438919164569,0.5]","[0.8293561080835431,0.5]",286.0456,289.2751,1,s,1,1.7082,,0.097038296,0.299515873,0.202477577,289.2772,289.2772,0,99,99,99,1,-0.329356108,-0.329356108,shape_difference0,1,,TRUE,,intensity,0.1,0.05,0.7,0.3,0.82,20,400,1E-11,3.5,0.01,0.5,0.1,,,,,,,,,,,,,,,,,,,,,,,,,,,,,,,,,,,,,,,,,,,,,,,,,,,,,,,,,,,,,,,,,,,,,,,,,,,,,,,,,
,,,,,788879,001,2025-03-15_15h55.58.904,Utility_discrimination_2024_2cat,2024.2.4,MacIntel,59.88023952,,,,,,,,0,"[0.5,0.5]","[1,0]",s,"[0.5751439146045384,0.6812871464610795]","[0.42485608539546166,0.31871285353892054]",289.2783,292.0252,1,s,1,1.2273,,-0.485253553,-0.204539879,0.280713674,292.0281,292.0281,0,100,100,100,1,0.19619821,0.19619821,shape_difference3,1,,TRUE,,intensity,0.1,0.05,0.7,0.3,0.82,20,400,1E-11,3.5,0.01,0.5,0.1,,,,,,,,,,,,,,,,,,,,,,,,,,,,,,,,,,,,,,,,,,,,,,,,,,,,,,,,,,,,,,,,,,,,,,,,,,,,,,,,,
,,,,,788879,001,2025-03-15_15h55.58.904,Utility_discrimination_2024_2cat,2024.2.4,MacIntel,59.88023952,,,,,,,,1,"[0.5,0.5]","[0.924,0.383]",s,"[0.16174327210701445,0.5]","[0.8382567278929856,0.5]",292.0293,294.5244,1,d,1,0.9691,,0.374249632,0.673316839,0.299067207,294.5265,294.5265,0,101,101,101,1,-0.338256728,-0.338256728,shape_difference0,1,,TRUE,,intensity,0.1,0.05,0.7,0.3,0.82,20,400,1E-11,3.5,0.01,0.5,0.1,,,,,,,,,,,,,,,,,,,,,,,,,,,,,,,,,,,,,,,,,,,,,,,,,,,,,,,,,,,,,,,,,,,,,,,,,,,,,,,,,
,,,,,788879,001,2025-03-15_15h55.58.904,Utility_discrimination_2024_2cat,2024.2.4,MacIntel,59.88023952,,,,,,,,4,"[0.5,0.5]","[0,1]",d,"[0.9615238141857547,0.6913026199492901]","[0.038476185814245334,0.3086973800507099]",294.5276,296.8746,1,d,1,0.8192,,-0.081951852,0.237065189,0.319017041,296.8779,296.8779,0,102,102,102,1,0.499484647,0.499484647,shape_difference1,1,,TRUE,,intensity,0.1,0.05,0.7,0.3,0.82,20,400,1E-11,3.5,0.01,0.5,0.1,,,,,,,,,,,,,,,,,,,,,,,,,,,,,,,,,,,,,,,,,,,,,,,,,,,,,,,,,,,,,,,,,,,,,,,,,,,,,,,,,
,,,,,788879,001,2025-03-15_15h55.58.904,Utility_discrimination_2024_2cat,2024.2.4,MacIntel,59.88023952,,,,,,,,2,"[0.5,0.5]","[0.707,0.707]",d,"[0.5,0.5640410456230128]","[0.5,0.4359589543769872]",296.879,299.292,1,d,1,0.8834,,-0.097493018,0.142384088,0.239877106,299.2943,299.2943,0,103,103,103,1,0.064041046,0.064041046,shape_difference4,1,,TRUE,,intensity,0.1,0.05,0.7,0.3,0.82,20,400,1E-11,3.5,0.01,0.5,0.1,,,,,,,,,,,,,,,,,,,,,,,,,,,,,,,,,,,,,,,,,,,,,,,,,,,,,,,,,,,,,,,,,,,,,,,,,,,,,,,,,
,,,,,788879,001,2025-03-15_15h55.58.904,Utility_discrimination_2024_2cat,2024.2.4,MacIntel,59.88023952,,,,,,,,4,"[0.5,0.5]","[0,1]",d,"[0.5104178949173822,0.5104178949173822]","[0.4895821050826178,0.4895821050826178]",299.2954,301.6414,1,s,1,0.8186,,-0.084682787,0.196543722,0.281226508,301.646,301.6461,0,104,104,104,1,0.014735353,0.014735353,shape_difference2,1,,TRUE,,intensity,0.1,0.05,0.7,0.3,0.82,20,400,1E-11,3.5,0.01,0.5,0.1,,,,,,,,,,,,,,,,,,,,,,,,,,,,,,,,,,,,,,,,,,,,,,,,,,,,,,,,,,,,,,,,,,,,,,,,,,,,,,,,,
,,,,,788879,001,2025-03-15_15h55.58.904,Utility_discrimination_2024_2cat,2024.2.4,MacIntel,59.88023952,,,,,,,,0,"[0.5,0.5]","[1,0]",s,"[0.5,0.5553854785971708]","[0.5,0.44461452140282914]",301.647,304.042,1,d,1,0.8659,,-0.487984793,-0.214159511,0.273825281,304.0441,304.0441,0,105,105,105,1,0.055385479,0.055385479,shape_difference4,1,,TRUE,,intensity,0.1,0.05,0.7,0.3,0.82,20,400,1E-11,3.5,0.01,0.5,0.1,,,,,,,,,,,,,,,,,,,,,,,,,,,,,,,,,,,,,,,,,,,,,,,,,,,,,,,,,,,,,,,,,,,,,,,,,,,,,,,,,
,,,,,788879,001,2025-03-15_15h55.58.904,Utility_discrimination_2024_2cat,2024.2.4,MacIntel,59.88023952,,,,,,,,3,"[0.5,0.5]","[0.383,0.924]",d,"[0.15363814463415792,0.5]","[0.8463618553658421,0.5]",304.0454,306.8077,0,d,0,1.2333,,0.077859662,0.295651605,0.217791943,306.8105,306.8105,0,106,106,106,1,-0.346361855,-0.346361855,shape_difference0,1,,TRUE,,intensity,0.1,0.05,0.7,0.3,0.82,20,400,1E-11,3.5,0.01,0.5,0.1,,,,,,,,,,,,,,,,,,,,,,,,,,,,,,,,,,,,,,,,,,,,,,,,,,,,,,,,,,,,,,,,,,,,,,,,,,,,,,,,,
,,,,,788879,001,2025-03-15_15h55.58.904,Utility_discrimination_2024_2cat,2024.2.4,MacIntel,59.88023952,,,,,,,,2,"[0.5,0.5]","[0.707,0.707]",s,"[0.5720780757041016,0.6738907100537597]","[0.42792192429589837,0.32610928994624033]",306.8116,309.0253,1,d,1,0.6867,,-0.099499258,0.11926914,0.218768399,309.0275,309.0276,0,107,107,107,1,0.188193409,0.188193409,shape_difference3,1,,TRUE,,intensity,0.1,0.05,0.7,0.3,0.82,20,400,1E-11,3.5,0.01,0.5,0.1,,,,,,,,,,,,,,,,,,,,,,,,,,,,,,,,,,,,,,,,,,,,,,,,,,,,,,,,,,,,,,,,,,,,,,,,,,,,,,,,,
,,,,,788879,001,2025-03-15_15h55.58.904,Utility_discrimination_2024_2cat,2024.2.4,MacIntel,59.88023952,,,,,,,,1,"[0.5,0.5]","[0.924,0.383]",d,"[0.5008113290780478,0.5008113290780478]","[0.4991886709219522,0.4991886709219522]",309.0287,311.4268,1,s,1,0.871,,0.359707596,0.65135381,0.291646213,311.4303,311.4304,0,108,108,108,1,0.001147566,0.001147566,shape_difference2,1,,TRUE,,intensity,0.1,0.05,0.7,0.3,0.82,20,400,1E-11,3.5,0.01,0.5,0.1,,,,,,,,,,,,,,,,,,,,,,,,,,,,,,,,,,,,,,,,,,,,,,,,,,,,,,,,,,,,,,,,,,,,,,,,,,,,,,,,,
,,,,,788879,001,2025-03-15_15h55.58.904,Utility_discrimination_2024_2cat,2024.2.4,MacIntel,59.88023952,,,,,,,,4,"[0.5,0.5]","[0,1]",s,"[0.9523044598962117,0.6874811776409622]","[0.04769554010378829,0.3125188223590378]",311.4312,313.725,1,d,1,0.7691,,-0.086801132,0.183177889,0.269979021,313.7257,313.7257,0,109,109,109,1,0.489506991,0.489506991,shape_difference1,1,,TRUE,,intensity,0.1,0.05,0.7,0.3,0.82,20,400,1E-11,3.5,0.01,0.5,0.1,,,,,,,,,,,,,,,,,,,,,,,,,,,,,,,,,,,,,,,,,,,,,,,,,,,,,,,,,,,,,,,,,,,,,,,,,,,,,,,,,
,,,,,788879,001,2025-03-15_15h55.58.904,Utility_discrimination_2024_2cat,2024.2.4,MacIntel,59.88023952,,,,,,,,1,"[0.5,0.5]","[0.924,0.383]",d,"[0.5,0.5474553497610885]","[0.5,0.45254465023891155]",313.726,316.0245,1,d,1,0.7673,,0.348802638,0.622776081,0.273973443,316.0276,316.0276,0,110,110,110,1,0.04745535,0.04745535,shape_difference4,1,,TRUE,,intensity,0.1,0.05,0.7,0.3,0.82,20,400,1E-11,3.5,0.01,0.5,0.1,,,,,,,,,,,,,,,,,,,,,,,,,,,,,,,,,,,,,,,,,,,,,,,,,,,,,,,,,,,,,,,,,,,,,,,,,,,,,,,,,
,,,,,788879,001,2025-03-15_15h55.58.904,Utility_discrimination_2024_2cat,2024.2.4,MacIntel,59.88023952,,,,,,,,0,"[0.5,0.5]","[1,0]",d,"[0.9448184631536849,0.6843782157877287]","[0.05518153684631505,0.3156217842122713]",316.0288,318.5252,1,s,1,0.9676,,-0.448573638,-0.156182952,0.292390686,318.5271,318.5271,0,111,111,111,1,0.481405263,0.481405263,shape_difference1,1,,TRUE,,intensity,0.1,0.05,0.7,0.3,0.82,20,400,1E-11,3.5,0.01,0.5,0.1,,,,,,,,,,,,,,,,,,,,,,,,,,,,,,,,,,,,,,,,,,,,,,,,,,,,,,,,,,,,,,,,,,,,,,,,,,,,,,,,,
,,,,,788879,001,2025-03-15_15h55.58.904,Utility_discrimination_2024_2cat,2024.2.4,MacIntel,59.88023952,,,,,,,,2,"[0.5,0.5]","[0.707,0.707]",s,"[0.1888246314508677,0.5]","[0.8111753685491323,0.5]",318.5281,321.0245,1,s,1,0.9672,,-0.115413852,0.098629086,0.214042937,321.0275,321.0275,0,112,112,112,1,-0.311175369,-0.311175369,shape_difference0,1,,TRUE,,intensity,0.1,0.05,0.7,0.3,0.82,20,400,1E-11,3.5,0.01,0.5,0.1,,,,,,,,,,,,,,,,,,,,,,,,,,,,,,,,,,,,,,,,,,,,,,,,,,,,,,,,,,,,,,,,,,,,,,,,,,,,,,,,,
,,,,,788879,001,2025-03-15_15h55.58.904,Utility_discrimination_2024_2cat,2024.2.4,MacIntel,59.88023952,,,,,,,,3,"[0.5,0.5]","[0.383,0.924]",s,"[0.4942454195717141,0.4942454195717141]","[0.5057545804282859,0.5057545804282859]",321.0286,323.4922,1,s,1,0.928,,0.063044059,0.291637039,0.228592979,323.4954,323.4956,0,113,113,113,1,-0.008139435,-0.008139435,shape_difference2,1,,TRUE,,intensity,0.1,0.05,0.7,0.3,0.82,20,400,1E-11,3.5,0.01,0.5,0.1,,,,,,,,,,,,,,,,,,,,,,,,,,,,,,,,,,,,,,,,,,,,,,,,,,,,,,,,,,,,,,,,,,,,,,,,,,,,,,,,,
,,,,,788879,001,2025-03-15_15h55.58.904,Utility_discrimination_2024_2cat,2024.2.4,MacIntel,59.88023952,,,,,,,,0,"[0.5,0.5]","[1,0]",s,"[0.5695161694969951,0.6677100277159884]","[0.4304838305030048,0.33228997228401164]",323.5045,325.8083,1,d,1,0.7832,,-0.457922152,-0.18592201,0.272000142,325.8095,325.8095,0,114,114,114,1,0.181504359,0.181504359,shape_difference3,1,,TRUE,,intensity,0.1,0.05,0.7,0.3,0.82,20,400,1E-11,3.5,0.01,0.5,0.1,,,,,,,,,,,,,,,,,,,,,,,,,,,,,,,,,,,,,,,,,,,,,,,,,,,,,,,,,,,,,,,,,,,,,,,,,,,,,,,,,
,,,,,788879,001,2025-03-15_15h55.58.904,Utility_discrimination_2024_2cat,2024.2.4,MacIntel,59.88023952,,,,,,,,3,"[0.5,0.5]","[0.383,0.924]",d,"[0.18055763645448053,0.5]","[0.8194423635455195,0.5]",325.8102,328.5419,1,d,1,1.2019,,0.051448307,0.287318718,0.235870411,328.5444,328.5444,0,115,115,115,1,-0.319442364,-0.319442364,shape_difference0,1,,TRUE,,intensity,0.1,0.05,0.7,0.3,0.82,20,400,1E-11,3.5,0.01,0.5,0.1,,,,,,,,,,,,,,,,,,,,,,,,,,,,,,,,,,,,,,,,,,,,,,,,,,,,,,,,,,,,,,,,,,,,,,,,,,,,,,,,,
,,,,,788879,001,2025-03-15_15h55.58.904,Utility_discrimination_2024_2cat,2024.2.4,MacIntel,59.88023952,,,,,,,,1,"[0.5,0.5]","[0.924,0.383]",d,"[0.5673432186142375,0.662467712792573]","[0.4326567813857625,0.337532287207427]",328.5457,331.3412,0,d,0,1.2694,,0.340482827,0.597410622,0.256927795,331.3443,331.3443,0,116,116,116,1,0.175830858,0.175830858,shape_difference3,1,,TRUE,,intensity,0.1,0.05,0.7,0.3,0.82,20,400,1E-11,3.5,0.01,0.5,0.1,,,,,,,,,,,,,,,,,,,,,,,,,,,,,,,,,,,,,,,,,,,,,,,,,,,,,,,,,,,,,,,,,,,,,,,,,,,,,,,,,
,,,,,788879,001,2025-03-15_15h55.58.904,Utility_discrimination_2024_2cat,2024.2.4,MacIntel,59.88023952,,,,,,,,4,"[0.5,0.5]","[0,1]",s,"[0.9386045053043568,0.6818025168090569]","[0.06139549469564326,0.31819748319094304]",331.3456,334.058,1,s,1,1.1851,,-0.088834203,0.171015438,0.259849641,334.0593,334.0593,0,117,117,117,1,0.474680201,0.474680201,shape_difference1,1,,TRUE,,intensity,0.1,0.05,0.7,0.3,0.82,20,400,1E-11,3.5,0.01,0.5,0.1,,,,,,,,,,,,,,,,,,,,,,,,,,,,,,,,,,,,,,,,,,,,,,,,,,,,,,,,,,,,,,,,,,,,,,,,,,,,,,,,,
,,,,,788879,001,2025-03-15_15h55.58.904,Utility_discrimination_2024_2cat,2024.2.4,MacIntel,59.88023952,,,,,,,,2,"[0.5,0.5]","[0.707,0.707]",s,"[0.5,0.5392616606610545]","[0.5,0.4607383393389455]",334.06,336.4912,1,s,1,0.9025,,-0.131744215,0.09447424,0.226218455,336.4946,336.4946,0,118,118,118,1,0.039261661,0.039261661,shape_difference4,1,,TRUE,,intensity,0.1,0.05,0.7,0.3,0.82,20,400,1E-11,3.5,0.01,0.5,0.1,,,,,,,,,,,,,,,,,,,,,,,,,,,,,,,,,,,,,,,,,,,,,,,,,,,,,,,,,,,,,,,,,,,,,,,,,,,,,,,,,
,,,,,788879,001,2025-03-15_15h55.58.904,Utility_discrimination_2024_2cat,2024.2.4,MacIntel,59.88023952,,,,,,,,3,"[0.5,0.5]","[0.383,0.924]",s,"[0.4890384568585231,0.4890384568585231]","[0.5109615431414769,0.5109615431414769]",336.4959,338.9921,1,s,1,0.9681,,0.104657065,0.297735971,0.193078906,338.9944,338.9944,0,119,119,119,1,-0.015504304,-0.015504304,shape_difference2,1,,TRUE,,intensity,0.1,0.05,0.7,0.3,0.82,20,400,1E-11,3.5,0.01,0.5,0.1,,,,,,,,,,,,,,,,,,,,,,,,,,,,,,,,,,,,,,,,,,,,,,,,,,,,,,,,,,,,,,,,,,,,,,,,,,,,,,,,,
,,,,,788879,001,2025-03-15_15h55.58.904,Utility_discrimination_2024_2cat,2024.2.4,MacIntel,59.88023952,,,,,,,,2,"[0.5,0.5]","[0.707,0.707]",s,"[0.5759442066077911,0.6832178770381175]","[0.42405579339220884,0.31678212296188246]",338.9957,341.2078,1,d,1,0.6829,,-0.144421571,0.090121332,0.234542903,341.2105,341.2105,0,120,120,120,1,0.198287746,0.198287746,shape_difference3,1,,TRUE,,intensity,0.1,0.05,0.7,0.3,0.82,20,400,1E-11,3.5,0.01,0.5,0.1,,,,,,,,,,,,,,,,,,,,,,,,,,,,,,,,,,,,,,,,,,,,,,,,,,,,,,,,,,,,,,,,,,,,,,,,,,,,,,,,,
,,,,,788879,001,2025-03-15_15h55.58.904,Utility_discrimination_2024_2cat,2024.2.4,MacIntel,59.88023952,,,,,,,,0,"[0.5,0.5]","[1,0]",d,"[0.48466437190003886,0.48466437190003886]","[0.5153356280999611,0.5153356280999611]",341.2117,343.7081,1,s,1,0.9774,,-0.465071164,-0.2041486,0.260922564,343.7101,343.7101,0,121,121,121,1,-0.021691129,-0.021691129,shape_difference2,1,,TRUE,,intensity,0.1,0.05,0.7,0.3,0.82,20,400,1E-11,3.5,0.01,0.5,0.1,,,,,,,,,,,,,,,,,,,,,,,,,,,,,,,,,,,,,,,,,,,,,,,,,,,,,,,,,,,,,,,,,,,,,,,,,,,,,,,,,
,,,,,788879,001,2025-03-15_15h55.58.904,Utility_discrimination_2024_2cat,2024.2.4,MacIntel,59.88023952,,,,,,,,1,"[0.5,0.5]","[0.924,0.383]",s,"[0.17361931332651326,0.5]","[0.8263806866734867,0.5]",343.7112,346.4088,1,s,1,1.1666,,0.334032282,0.590172109,0.256139827,346.4124,346.4124,0,122,122,122,1,-0.326380687,-0.326380687,shape_difference0,1,,TRUE,,intensity,0.1,0.05,0.7,0.3,0.82,20,400,1E-11,3.5,0.01,0.5,0.1,,,,,,,,,,,,,,,,,,,,,,,,,,,,,,,,,,,,,,,,,,,,,,,,,,,,,,,,,,,,,,,,,,,,,,,,,,,,,,,,,
,,,,,788879,001,2025-03-15_15h55.58.904,Utility_discrimination_2024_2cat,2024.2.4,MacIntel,59.88023952,,,,,,,,4,"[0.5,0.5]","[0,1]",s,"[0.9333150194631508,0.6796100134787735]","[0.06668498053684929,0.3203899865212265]",346.4134,348.492,1,d,1,0.5502,,-0.09051309,0.156249671,0.246762761,348.4942,348.4942,0,123,123,123,1,0.468955649,0.468955649,shape_difference1,1,,TRUE,,intensity,0.1,0.05,0.7,0.3,0.82,20,400,1E-11,3.5,0.01,0.5,0.1,,,,,,,,,,,,,,,,,,,,,,,,,,,,,,,,,,,,,,,,,,,,,,,,,,,,,,,,,,,,,,,,,,,,,,,,,,,,,,,,,
,,,,,788879,001,2025-03-15_15h55.58.904,Utility_discrimination_2024_2cat,2024.2.4,MacIntel,59.88023952,,,,,,,,4,"[0.5,0.5]","[0,1]",d,"[0.5,0.5303216307782848]","[0.5,0.4696783692217153]",348.4953,351.4088,1,d,1,1.3847,,-0.091930477,0.137851829,0.229782306,351.4109,351.4109,0,124,124,124,1,0.030321631,0.030321631,shape_difference4,1,,TRUE,,intensity,0.1,0.05,0.7,0.3,0.82,20,400,1E-11,3.5,0.01,0.5,0.1,,,,,,,,,,,,,,,,,,,,,,,,,,,,,,,,,,,,,,,,,,,,,,,,,,,,,,,,,,,,,,,,,,,,,,,,,,,,,,,,,
,,,,,788879,001,2025-03-15_15h55.58.904,Utility_discrimination_2024_2cat,2024.2.4,MacIntel,59.88023952,,,,,,,,2,"[0.5,0.5]","[0.707,0.707]",d,"[0.5,0.5203249691540108]","[0.5,0.47967503084598917]",351.4121,354.3421,1,d,1,1.4009,,-0.154394318,0.085397075,0.239791393,354.3447,354.3447,0,125,125,125,1,0.020324969,0.020324969,shape_difference4,1,,TRUE,,intensity,0.1,0.05,0.7,0.3,0.82,20,400,1E-11,3.5,0.01,0.5,0.1,,,,,,,,,,,,,,,,,,,,,,,,,,,,,,,,,,,,,,,,,,,,,,,,,,,,,,,,,,,,,,,,,,,,,,,,,,,,,,,,,
,,,,,788879,001,2025-03-15_15h55.58.904,Utility_discrimination_2024_2cat,2024.2.4,MacIntel,59.88023952,,,,,,,,0,"[0.5,0.5]","[1,0]",d,"[0.48092713263488707,0.48092713263488707]","[0.5190728673651129,0.5190728673651129]",354.3459,357.209,0,d,0,1.3443,,-0.470625242,-0.211200705,0.259424537,357.212,357.212,0,126,126,126,1,-0.026977182,-0.026977182,shape_difference2,1,,TRUE,,intensity,0.1,0.05,0.7,0.3,0.82,20,400,1E-11,3.5,0.01,0.5,0.1,,,,,,,,,,,,,,,,,,,,,,,,,,,,,,,,,,,,,,,,,,,,,,,,,,,,,,,,,,,,,,,,,,,,,,,,,,,,,,,,,
,,,,,788879,001,2025-03-15_15h55.58.904,Utility_discrimination_2024_2cat,2024.2.4,MacIntel,59.88023952,,,,,,,,1,"[0.5,0.5]","[0.924,0.383]",s,"[0.167639983074794,0.5]","[0.832360016925206,0.5]",357.2131,359.6254,1,d,1,0.8855,,0.328956378,0.582394247,0.253437869,359.6276,359.6276,0,127,127,127,1,-0.332360017,-0.332360017,shape_difference0,1,,TRUE,,intensity,0.1,0.05,0.7,0.3,0.82,20,400,1E-11,3.5,0.01,0.5,0.1,,,,,,,,,,,,,,,,,,,,,,,,,,,,,,,,,,,,,,,,,,,,,,,,,,,,,,,,,,,,,,,,,,,,,,,,,,,,,,,,,
,,,,,788879,001,2025-03-15_15h55.58.904,Utility_discrimination_2024_2cat,2024.2.4,MacIntel,59.88023952,,,,,,,,3,"[0.5,0.5]","[0.383,0.924]",d,"[0.9286827841016732,0.6776899418949576]","[0.0713172158983269,0.32231005810504243]",359.6287,362.0589,1,s,1,0.9024,,0.103448956,0.294432716,0.190983761,362.0616,362.0617,0,128,128,128,1,0.463942407,0.463942407,shape_difference1,1,,TRUE,,intensity,0.1,0.05,0.7,0.3,0.82,20,400,1E-11,3.5,0.01,0.5,0.1,,,,,,,,,,,,,,,,,,,,,,,,,,,,,,,,,,,,,,,,,,,,,,,,,,,,,,,,,,,,,,,,,,,,,,,,,,,,,,,,,
,,,,,788879,001,2025-03-15_15h55.58.904,Utility_discrimination_2024_2cat,2024.2.4,MacIntel,59.88023952,,,,,,,,0,"[0.5,0.5]","[1,0]",s,"[0.5730480755911859,0.67623086643931]","[0.42695192440881413,0.32376913356069004]",362.0627,364.7255,0,d,0,1.1341,,-0.475003922,-0.21888522,0.256118702,364.7284,364.7285,0,129,129,129,1,0.190726046,0.190726046,shape_difference3,1,,TRUE,,intensity,0.1,0.05,0.7,0.3,0.82,20,400,1E-11,3.5,0.01,0.5,0.1,,,,,,,,,,,,,,,,,,,,,,,,,,,,,,,,,,,,,,,,,,,,,,,,,,,,,,,,,,,,,,,,,,,,,,,,,,,,,,,,,
,,,,,788879,001,2025-03-15_15h55.58.904,Utility_discrimination_2024_2cat,2024.2.4,MacIntel,59.88023952,,,,,,,,1,"[0.5,0.5]","[0.924,0.383]",s,"[0.16233227913569548,0.5]","[0.8376677208643045,0.5]",364.7297,367.1255,1,d,1,0.8774,,0.324908086,0.573706161,0.248798076,367.1277,367.1277,0,130,130,130,1,-0.337667721,-0.337667721,shape_difference0,1,,TRUE,,intensity,0.1,0.05,0.7,0.3,0.82,20,400,1E-11,3.5,0.01,0.5,0.1,,,,,,,,,,,,,,,,,,,,,,,,,,,,,,,,,,,,,,,,,,,,,,,,,,,,,,,,,,,,,,,,,,,,,,,,,,,,,,,,,
,,,,,788879,001,2025-03-15_15h55.58.904,Utility_discrimination_2024_2cat,2024.2.4,MacIntel,59.88023952,,,,,,,,3,"[0.5,0.5]","[0.383,0.924]",d,"[0.9244973372538908,0.6759550651171431]","[0.07550266274610917,0.3240449348828569]",367.1294,369.6588,1,s,1,1.0012,,0.108876538,0.316283423,0.207406885,369.6619,369.662,0,131,131,131,1,0.459412703,0.459412703,shape_difference1,1,,TRUE,,intensity,0.1,0.05,0.7,0.3,0.82,20,400,1E-11,3.5,0.01,0.5,0.1,,,,,,,,,,,,,,,,,,,,,,,,,,,,,,,,,,,,,,,,,,,,,,,,,,,,,,,,,,,,,,,,,,,,,,,,,,,,,,,,,
,,,,,788879,001,2025-03-15_15h55.58.904,Utility_discrimination_2024_2cat,2024.2.4,MacIntel,59.88023952,,,,,,,,2,"[0.5,0.5]","[0.707,0.707]",s,"[0.5847120899518424,0.7043706817637139]","[0.41528791004815757,0.2956293182362861]",369.663,372.4588,1,s,1,1.2714,,-0.096088822,0.09689497,0.192983792,372.461,372.461,0,132,132,132,1,0.221180392,0.221180392,shape_difference3,1,,TRUE,,intensity,0.1,0.05,0.7,0.3,0.82,20,400,1E-11,3.5,0.01,0.5,0.1,,,,,,,,,,,,,,,,,,,,,,,,,,,,,,,,,,,,,,,,,,,,,,,,,,,,,,,,,,,,,,,,,,,,,,,,,,,,,,,,,
,,,,,788879,001,2025-03-15_15h55.58.904,Utility_discrimination_2024_2cat,2024.2.4,MacIntel,59.88023952,,,,,,,,4,"[0.5,0.5]","[0,1]",s,"[0.4958621805659398,0.4958621805659398]","[0.5041378194340602,0.5041378194340602]",372.4621,374.8747,1,d,1,0.8841,,-0.093157654,0.114423593,0.207581247,374.8772,374.8773,0,133,133,133,1,-0.005852644,-0.005852644,shape_difference2,1,,TRUE,,intensity,0.1,0.05,0.7,0.3,0.82,20,400,1E-11,3.5,0.01,0.5,0.1,,,,,,,,,,,,,,,,,,,,,,,,,,,,,,,,,,,,,,,,,,,,,,,,,,,,,,,,,,,,,,,,,,,,,,,,,,,,,,,,,
,,,,,788879,001,2025-03-15_15h55.58.904,Utility_discrimination_2024_2cat,2024.2.4,MacIntel,59.88023952,,,,,,,,3,"[0.5,0.5]","[0.383,0.924]",d,"[0.5,0.5089228193833207]","[0.5,0.49107718061667927]",374.8782,377.3253,0,s,0,0.9201,,0.107749754,0.299006442,0.191256687,377.327,377.327,0,134,134,134,1,0.008922819,0.008922819,shape_difference4,1,,TRUE,,intensity,0.1,0.05,0.7,0.3,0.82,20,400,1E-11,3.5,0.01,0.5,0.1,,,,,,,,,,,,,,,,,,,,,,,,,,,,,,,,,,,,,,,,,,,,,,,,,,,,,,,,,,,,,,,,,,,,,,,,,,,,,,,,,
,,,,,788879,001,2025-03-15_15h55.58.904,Utility_discrimination_2024_2cat,2024.2.4,MacIntel,59.88023952,,,,,,,,1,"[0.5,0.5]","[0.924,0.383]",d,"[0.5807765039185124,0.6948759520122859]","[0.41922349608148757,0.3051240479877141]",377.3275,379.7414,1,s,1,0.8841,,0.321640162,0.563664184,0.242024021,379.7444,379.7445,0,135,135,135,1,0.21090471,0.21090471,shape_difference3,1,,TRUE,,intensity,0.1,0.05,0.7,0.3,0.82,20,400,1E-11,3.5,0.01,0.5,0.1,,,,,,,,,,,,,,,,,,,,,,,,,,,,,,,,,,,,,,,,,,,,,,,,,,,,,,,,,,,,,,,,,,,,,,,,,,,,,,,,,
,,,,,788879,001,2025-03-15_15h55.58.904,Utility_discrimination_2024_2cat,2024.2.4,MacIntel,59.88023952,,,,,,,,4,"[0.5,0.5]","[0,1]",s,"[0.9205881134788023,0.6743346834008455]","[0.07941188652119774,0.3256653165991545]",379.7455,382.2755,1,s,1,0.9992,,-0.088146045,0.158709962,0.246856007,382.2782,382.2783,0,136,136,136,1,0.455181941,0.455181941,shape_difference1,1,,TRUE,,intensity,0.1,0.05,0.7,0.3,0.82,20,400,1E-11,3.5,0.01,0.5,0.1,,,,,,,,,,,,,,,,,,,,,,,,,,,,,,,,,,,,,,,,,,,,,,,,,,,,,,,,,,,,,,,,,,,,,,,,,,,,,,,,,
,,,,,788879,001,2025-03-15_15h55.58.904,Utility_discrimination_2024_2cat,2024.2.4,MacIntel,59.88023952,,,,,,,,2,"[0.5,0.5]","[0.707,0.707]",s,"[0.5,0.5376028846205443]","[0.5,0.46239711537945566]",382.279,385.2256,1,s,1,1.4278,,-0.09730084,0.093359408,0.190660248,385.2279,385.2279,0,137,137,137,1,0.037602885,0.037602885,shape_difference4,1,,TRUE,,intensity,0.1,0.05,0.7,0.3,0.82,20,400,1E-11,3.5,0.01,0.5,0.1,,,,,,,,,,,,,,,,,,,,,,,,,,,,,,,,,,,,,,,,,,,,,,,,,,,,,,,,,,,,,,,,,,,,,,,,,,,,,,,,,
,,,,,788879,001,2025-03-15_15h55.58.904,Utility_discrimination_2024_2cat,2024.2.4,MacIntel,59.88023952,,,,,,,,0,"[0.5,0.5]","[1,0]",s,"[0.49099072099251284,0.49099072099251284]","[0.5090092790074872,0.5090092790074872]",385.2289,387.9255,1,s,1,1.1661,,-0.478502685,-0.227585722,0.250916964,387.9284,387.9284,0,138,138,138,1,-0.012742969,-0.012742969,shape_difference2,1,,TRUE,,intensity,0.1,0.05,0.7,0.3,0.82,20,400,1E-11,3.5,0.01,0.5,0.1,,,,,,,,,,,,,,,,,,,,,,,,,,,,,,,,,,,,,,,,,,,,,,,,,,,,,,,,,,,,,,,,,,,,,,,,,,,,,,,,,
,,,,,788879,001,2025-03-15_15h55.58.904,Utility_discrimination_2024_2cat,2024.2.4,MacIntel,59.88023952,,,,,,,,4,"[0.5,0.5]","[0,1]",s,"[0.15746690328711987,0.5]","[0.8425330967128801,0.5]",387.9295,390.1422,1,d,1,0.6836,,-0.089647039,0.142305951,0.231952989,390.1444,390.1445,0,139,139,139,1,-0.342533097,-0.342533097,shape_difference0,1,,TRUE,,intensity,0.1,0.05,0.7,0.3,0.82,20,400,1E-11,3.5,0.01,0.5,0.1,,,,,,,,,,,,,,,,,,,,,,,,,,,,,,,,,,,,,,,,,,,,,,,,,,,,,,,,,,,,,,,,,,,,,,,,,,,,,,,,,
,,,,,788879,001,2025-03-15_15h55.58.904,Utility_discrimination_2024_2cat,2024.2.4,MacIntel,59.88023952,,,,,,,,1,"[0.5,0.5]","[0.924,0.383]",d,"[0.5,0.5293409887825888]","[0.5,0.4706590112174112]",390.1455,393.1423,1,s,1,1.4684,,0.318973739,0.551719444,0.232745706,393.1451,393.1451,0,140,140,140,1,0.029340989,0.029340989,shape_difference4,1,,TRUE,,intensity,0.1,0.05,0.7,0.3,0.82,20,400,1E-11,3.5,0.01,0.5,0.1,,,,,,,,,,,,,,,,,,,,,,,,,,,,,,,,,,,,,,,,,,,,,,,,,,,,,,,,,,,,,,,,,,,,,,,,,,,,,,,,,
,,,,,788879,001,2025-03-15_15h55.58.904,Utility_discrimination_2024_2cat,2024.2.4,MacIntel,59.88023952,,,,,,,,3,"[0.5,0.5]","[0.383,0.924]",s,"[0.9168121979315824,0.6727695582335456]","[0.08318780206841753,0.32723044176645444]",393.1462,396.1089,1,s,1,1.4339,,0.10676708,0.29614817,0.18938109,396.1115,396.1116,0,141,141,141,1,0.451095452,0.451095452,shape_difference1,1,,TRUE,,intensity,0.1,0.05,0.7,0.3,0.82,20,400,1E-11,3.5,0.01,0.5,0.1,,,,,,,,,,,,,,,,,,,,,,,,,,,,,,,,,,,,,,,,,,,,,,,,,,,,,,,,,,,,,,,,,,,,,,,,,,,,,,,,,
,,,,,788879,001,2025-03-15_15h55.58.904,Utility_discrimination_2024_2cat,2024.2.4,MacIntel,59.88023952,,,,,,,,2,"[0.5,0.5]","[0.707,0.707]",s,"[0.5763375452660374,0.6841668193885602]","[0.42366245473396263,0.31583318061143983]",396.1125,398.7923,1,s,1,1.1506,,-0.09850896,0.089651913,0.188160873,398.7955,398.7955,0,142,142,142,1,0.19931474,0.19931474,shape_difference3,1,,TRUE,,intensity,0.1,0.05,0.7,0.3,0.82,20,400,1E-11,3.5,0.01,0.5,0.1,,,,,,,,,,,,,,,,,,,,,,,,,,,,,,,,,,,,,,,,,,,,,,,,,,,,,,,,,,,,,,,,,,,,,,,,,,,,,,,,,
,,,,,788879,001,2025-03-15_15h55.58.904,Utility_discrimination_2024_2cat,2024.2.4,MacIntel,59.88023952,,,,,,,,0,"[0.5,0.5]","[1,0]",s,"[0.48696018967582094,0.48696018967582094]","[0.5130398103241791,0.5130398103241791]",398.797,402.4418,1,s,1,2.1271,,-0.48133275,-0.237769052,0.243563698,402.4439,402.444,0,143,143,143,1,-0.018443862,-0.018443862,shape_difference2,1,,TRUE,,intensity,0.1,0.05,0.7,0.3,0.82,20,400,1E-11,3.5,0.01,0.5,0.1,,,,,,,,,,,,,,,,,,,,,,,,,,,,,,,,,,,,,,,,,,,,,,,,,,,,,,,,,,,,,,,,,,,,,,,,,,,,,,,,,
,,,,,788879,001,2025-03-15_15h55.58.904,Utility_discrimination_2024_2cat,2024.2.4,MacIntel,59.88023952,,,,,,,,4,"[0.5,0.5]","[0,1]",s,"[0.15285517887577804,0.5]","[0.847144821124222,0.5]",402.4452,405.3756,1,s,1,1.4034,,-0.090886934,0.121637268,0.212524203,405.3779,405.3779,0,144,144,144,1,-0.347144821,-0.347144821,shape_difference0,1,,TRUE,,intensity,0.1,0.05,0.7,0.3,0.82,20,400,1E-11,3.5,0.01,0.5,0.1,,,,,,,,,,,,,,,,,,,,,,,,,,,,,,,,,,,,,,,,,,,,,,,,,,,,,,,,,,,,,,,,,,,,,,,,,,,,,,,,,
,,,,,788879,001,2025-03-15_15h55.58.904,Utility_discrimination_2024_2cat,2024.2.4,MacIntel,59.88023952,,,,,,,,3,"[0.5,0.5]","[0.383,0.924]",s,"[0.5,0.5200186967489557]","[0.5,0.47998130325104427]",405.3791,411.1423,0,s,0,4.2388,,0.10588885,0.293235205,0.187346355,411.1453,411.1453,0,145,145,145,1,0.020018697,0.020018697,shape_difference4,1,,TRUE,,intensity,0.1,0.05,0.7,0.3,0.82,20,400,1E-11,3.5,0.01,0.5,0.1,,,,,,,,,,,,,,,,,,,,,,,,,,,,,,,,,,,,,,,,,,,,,,,,,,,,,,,,,,,,,,,,,,,,,,,,,,,,,,,,,
,,,,,788879,001,2025-03-15_15h55.58.904,Utility_discrimination_2024_2cat,2024.2.4,MacIntel,59.88023952,,,,,,,,2,"[0.5,0.5]","[0.707,0.707]",d,"[0.5735193691933146,0.6773678776360905]","[0.4264806308066854,0.3226321223639095]",411.1467,413.3591,1,d,1,0.6848,,-0.099749452,0.085642231,0.185391683,413.3612,413.3613,0,146,146,146,1,0.191956578,0.191956578,shape_difference3,1,,TRUE,,intensity,0.1,0.05,0.7,0.3,0.82,20,400,1E-11,3.5,0.01,0.5,0.1,,,,,,,,,,,,,,,,,,,,,,,,,,,,,,,,,,,,,,,,,,,,,,,,,,,,,,,,,,,,,,,,,,,,,,,,,,,,,,,,,
,,,,,788879,001,2025-03-15_15h55.58.904,Utility_discrimination_2024_2cat,2024.2.4,MacIntel,59.88023952,,,,,,,,0,"[0.5,0.5]","[1,0]",d,"[0.4835930335926294,0.4835930335926294]","[0.5164069664073706,0.5164069664073706]",413.3624,417.6417,0,d,0,2.7525,,-0.483647345,-0.250021,0.233626345,417.6438,417.6438,0,147,147,147,1,-0.023206459,-0.023206459,shape_difference2,1,,TRUE,,intensity,0.1,0.05,0.7,0.3,0.82,20,400,1E-11,3.5,0.01,0.5,0.1,,,,,,,,,,,,,,,,,,,,,,,,,,,,,,,,,,,,,,,,,,,,,,,,,,,,,,,,,,,,,,,,,,,,,,,,,,,,,,,,,
,,,,,788879,001,2025-03-15_15h55.58.904,Utility_discrimination_2024_2cat,2024.2.4,MacIntel,59.88023952,,,,,,,,1,"[0.5,0.5]","[0.924,0.383]",s,"[0.14833627063326982,0.5]","[0.8516637293667302,0.5]",417.6456,420.659,1,d,1,1.494,,0.316777434,0.537175636,0.220398202,420.6611,420.6612,0,148,148,148,1,-0.351663729,-0.351663729,shape_difference0,1,,TRUE,,intensity,0.1,0.05,0.7,0.3,0.82,20,400,1E-11,3.5,0.01,0.5,0.1,,,,,,,,,,,,,,,,,,,,,,,,,,,,,,,,,,,,,,,,,,,,,,,,,,,,,,,,,,,,,,,,,,,,,,,,,,,,,,,,,
,,,,,788879,001,2025-03-15_15h55.58.904,Utility_discrimination_2024_2cat,2024.2.4,MacIntel,59.88023952,,,,,,,,4,"[0.5,0.5]","[0,1]",d,"[0.9130452567332004,0.6712081529532637]","[0.0869547432667997,0.32879184704673625]",420.6623,423.5258,1,s,1,1.3336,,-0.08611594,0.160294588,0.246410529,423.5285,423.5286,0,149,149,149,1,0.447018676,0.447018676,shape_difference1,1,,TRUE,,intensity,0.1,0.05,0.7,0.3,0.82,20,400,1E-11,3.5,0.01,0.5,0.1,,,,,,,,,,,,,,,,,,,,,,,,,,,,,,,,,,,,,,,,,,,,,,,,,,,,,,,,,,,,,,,,,,,,,,,,,,,,,,,,,
,,,,,788879,001,2025-03-15_15h55.58.904,Utility_discrimination_2024_2cat,2024.2.4,MacIntel,59.88023952,,,,,,,,3,"[0.5,0.5]","[0.383,0.924]",s,"[0.5,0.5432417087537317]","[0.5,0.4567582912462683]",423.5298,425.9079,1,d,1,0.8523,,0.105082231,0.290176445,0.185094215,425.9091,425.9091,0,150,150,150,1,0.043241709,0.043241709,shape_difference4,1,,TRUE,,intensity,0.1,0.05,0.7,0.3,0.82,20,400,1E-11,3.5,0.01,0.5,0.1,,,,,,,,,,,,,,,,,,,,,,,,,,,,,,,,,,,,,,,,,,,,,,,,,,,,,,,,,,,,,,,,,,,,,,,,,,,,,,,,,
,,,,,788879,001,2025-03-15_15h55.58.904,Utility_discrimination_2024_2cat,2024.2.4,MacIntel,59.88023952,,,,,,,,1,"[0.5,0.5]","[0.924,0.383]",d,"[0.571201742388151,0.671776527328072]","[0.4287982576118489,0.328223472671928]",425.9096,428.492,1,d,1,1.0584,,0.314572648,0.521557584,0.206984936,428.4941,428.4941,0,151,151,151,1,0.185905333,0.185905333,shape_difference3,1,,TRUE,,intensity,0.1,0.05,0.7,0.3,0.82,20,400,1E-11,3.5,0.01,0.5,0.1,,,,,,,,,,,,,,,,,,,,,,,,,,,,,,,,,,,,,,,,,,,,,,,,,,,,,,,,,,,,,,,,,,,,,,,,,,,,,,,,,
,,,,,788879,001,2025-03-15_15h55.58.904,Utility_discrimination_2024_2cat,2024.2.4,MacIntel,59.88023952,,,,,,,,0,"[0.5,0.5]","[1,0]",d,"[0.9086061951234384,0.669368152307659]","[0.09139380487656157,0.330631847692341]",428.495,431.5591,1,s,1,1.5435,,-0.485993527,-0.263024753,0.222968773,431.5612,431.5612,0,152,152,152,1,0.442214497,0.442214497,shape_difference1,1,,TRUE,,intensity,0.1,0.05,0.7,0.3,0.82,20,400,1E-11,3.5,0.01,0.5,0.1,,,,,,,,,,,,,,,,,,,,,,,,,,,,,,,,,,,,,,,,,,,,,,,,,,,,,,,,,,,,,,,,,,,,,,,,,,,,,,,,,
,,,,,788879,001,2025-03-15_15h55.58.904,Utility_discrimination_2024_2cat,2024.2.4,MacIntel,59.88023952,,,,,,,,2,"[0.5,0.5]","[0.707,0.707]",s,"[0.1431827819617737,0.5]","[0.8568172180382263,0.5]",431.5624,434.1757,1,s,1,1.0872,,-0.093756179,0.09532249,0.18907867,434.1786,434.1787,0,153,153,153,1,-0.356817218,-0.356817218,shape_difference0,1,,TRUE,,intensity,0.1,0.05,0.7,0.3,0.82,20,400,1E-11,3.5,0.01,0.5,0.1,,,,,,,,,,,,,,,,,,,,,,,,,,,,,,,,,,,,,,,,,,,,,,,,,,,,,,,,,,,,,,,,,,,,,,,,,,,,,,,,,
,,,,,788879,001,2025-03-15_15h55.58.904,Utility_discrimination_2024_2cat,2024.2.4,MacIntel,59.88023952,,,,,,,,2,"[0.5,0.5]","[0.707,0.707]",s,"[0.4966380625597747,0.4966380625597747]","[0.5033619374402253,0.5033619374402253]",434.1798,436.9257,0,s,0,1.2189,,-0.089870155,0.118614327,0.208484481,436.928,436.928,0,154,154,154,1,-0.004755216,-0.004755216,shape_difference2,1,,TRUE,,intensity,0.1,0.05,0.7,0.3,0.82,20,400,1E-11,3.5,0.01,0.5,0.1,,,,,,,,,,,,,,,,,,,,,,,,,,,,,,,,,,,,,,,,,,,,,,,,,,,,,,,,,,,,,,,,,,,,,,,,,,,,,,,,,
,,,,,788879,001,2025-03-15_15h55.58.904,Utility_discrimination_2024_2cat,2024.2.4,MacIntel,59.88023952,,,,,,,,1,"[0.5,0.5]","[0.924,0.383]",d,"[0.5180962589784702,0.5180962589784702]","[0.48190374102152983,0.48190374102152983]",436.9299,439.9921,0,d,0,1.5338,,0.312761945,0.501850751,0.189088805,439.9932,439.9932,0,155,155,155,1,0.02559584,0.02559584,shape_difference2,1,,TRUE,,intensity,0.1,0.05,0.7,0.3,0.82,20,400,1E-11,3.5,0.01,0.5,0.1,,,,,,,,,,,,,,,,,,,,,,,,,,,,,,,,,,,,,,,,,,,,,,,,,,,,,,,,,,,,,,,,,,,,,,,,,,,,,,,,,
,,,,,788879,001,2025-03-15_15h55.58.904,Utility_discrimination_2024_2cat,2024.2.4,MacIntel,59.88023952,,,,,,,,4,"[0.5,0.5]","[0,1]",s,"[0.9035930604306484,0.6672901971265566]","[0.0964069395693517,0.3327098028734434]",439.9937,443.3423,1,s,1,1.8167,,-0.087849548,0.145446195,0.233295743,443.3448,443.3449,0,156,156,156,1,0.436789026,0.436789026,shape_difference1,1,,TRUE,,intensity,0.1,0.05,0.7,0.3,0.82,20,400,1E-11,3.5,0.01,0.5,0.1,,,,,,,,,,,,,,,,,,,,,,,,,,,,,,,,,,,,,,,,,,,,,,,,,,,,,,,,,,,,,,,,,,,,,,,,,,,,,,,,,
,,,,,788879,001,2025-03-15_15h55.58.904,Utility_discrimination_2024_2cat,2024.2.4,MacIntel,59.88023952,,,,,,,,3,"[0.5,0.5]","[0.383,0.924]",s,"[0.5,0.5363135266894915]","[0.5,0.4636864733105085]",443.3463,446.0591,1,s,1,1.1866,,0.104319333,0.286873619,0.182554286,446.0613,446.0613,0,157,157,157,1,0.036313527,0.036313527,shape_difference4,1,,TRUE,,intensity,0.1,0.05,0.7,0.3,0.82,20,400,1E-11,3.5,0.01,0.5,0.1,,,,,,,,,,,,,,,,,,,,,,,,,,,,,,,,,,,,,,,,,,,,,,,,,,,,,,,,,,,,,,,,,,,,,,,,,,,,,,,,,
,,,,,788879,001,2025-03-15_15h55.58.904,Utility_discrimination_2024_2cat,2024.2.4,MacIntel,59.88023952,,,,,,,,0,"[0.5,0.5]","[1,0]",s,"[0.5692859372435913,0.667154584890544]","[0.4307140627564087,0.332845415109456]",446.0624,448.6925,1,s,1,1.1104,,-0.487940334,-0.279397891,0.208542444,448.6951,448.6952,0,158,158,158,1,0.18090323,0.18090323,shape_difference3,1,,TRUE,,intensity,0.1,0.05,0.7,0.3,0.82,20,400,1E-11,3.5,0.01,0.5,0.1,,,,,,,,,,,,,,,,,,,,,,,,,,,,,,,,,,,,,,,,,,,,,,,,,,,,,,,,,,,,,,,,,,,,,,,,,,,,,,,,,
,,,,,788879,001,2025-03-15_15h55.58.904,Utility_discrimination_2024_2cat,2024.2.4,MacIntel,59.88023952,,,,,,,,2,"[0.5,0.5]","[0.707,0.707]",s,"[0.1374149225776079,0.5]","[0.8625850774223921,0.5]",448.6962,451.0259,1,d,1,0.8023,,-0.084794532,0.15539563,0.240190162,451.0286,451.0287,0,159,159,159,1,-0.362585077,-0.362585077,shape_difference0,1,,TRUE,,intensity,0.1,0.05,0.7,0.3,0.82,20,400,1E-11,3.5,0.01,0.5,0.1,,,,,,,,,,,,,,,,,,,,,,,,,,,,,,,,,,,,,,,,,,,,,,,,,,,,,,,,,,,,,,,,,,,,,,,,,,,,,,,,,
,,,,,788879,001,2025-03-15_15h55.58.904,Utility_discrimination_2024_2cat,2024.2.4,MacIntel,59.88023952,,,,,,,,4,"[0.5,0.5]","[0,1]",d,"[0.5323014752073082,0.5323014752073082]","[0.46769852479269186,0.46769852479269186]",451.0298,454.3259,0,s,0,1.7759,,-0.089256422,0.126908455,0.216164877,454.3281,454.3282,0,160,160,160,1,0.045688084,0.045688084,shape_difference2,1,,TRUE,,intensity,0.1,0.05,0.7,0.3,0.82,20,400,1E-11,3.5,0.01,0.5,0.1,,,,,,,,,,,,,,,,,,,,,,,,,,,,,,,,,,,,,,,,,,,,,,,,,,,,,,,,,,,,,,,,,,,,,,,,,,,,,,,,,
,,,,,788879,001,2025-03-15_15h55.58.904,Utility_discrimination_2024_2cat,2024.2.4,MacIntel,59.88023952,,,,,,,,0,"[0.5,0.5]","[1,0]",d,"[0.5,0.5285695034241045]","[0.5,0.4714304965758956]",454.3293,456.7925,1,s,1,0.9343,,-0.48957614,-0.300025193,0.189550947,456.7951,456.7951,0,161,161,161,1,0.028569503,0.028569503,shape_difference4,1,,TRUE,,intensity,0.1,0.05,0.7,0.3,0.82,20,400,1E-11,3.5,0.01,0.5,0.1,,,,,,,,,,,,,,,,,,,,,,,,,,,,,,,,,,,,,,,,,,,,,,,,,,,,,,,,,,,,,,,,,,,,,,,,,,,,,,,,,
,,,,,788879,001,2025-03-15_15h55.58.904,Utility_discrimination_2024_2cat,2024.2.4,MacIntel,59.88023952,,,,,,,,3,"[0.5,0.5]","[0.383,0.924]",s,"[0.130843892020873,0.5]","[0.869156107979127,0.5]",456.7962,459.4425,1,d,1,1.1183,,0.103575762,0.283217463,0.179641701,459.4446,459.4446,0,162,162,162,1,-0.369156108,-0.369156108,shape_difference0,1,,TRUE,,intensity,0.1,0.05,0.7,0.3,0.82,20,400,1E-11,3.5,0.01,0.5,0.1,,,,,,,,,,,,,,,,,,,,,,,,,,,,,,,,,,,,,,,,,,,,,,,,,,,,,,,,,,,,,,,,,,,,,,,,,,,,,,,,,
,,,,,788879,001,2025-03-15_15h55.58.904,Utility_discrimination_2024_2cat,2024.2.4,MacIntel,59.88023952,,,,,,,,1,"[0.5,0.5]","[0.924,0.383]",d,"[0.5676932077231928,0.6633120729405487]","[0.4323067922768072,0.3366879270594513]",459.4457,461.7759,1,d,1,0.8009,,0.311265211,0.498308179,0.187042968,461.7786,461.7787,0,163,163,163,1,0.176744668,0.176744668,shape_difference3,1,,TRUE,,intensity,0.1,0.05,0.7,0.3,0.82,20,400,1E-11,3.5,0.01,0.5,0.1,,,,,,,,,,,,,,,,,,,,,,,,,,,,,,,,,,,,,,,,,,,,,,,,,,,,,,,,,,,,,,,,,,,,,,,,,,,,,,,,,
,,,,,788879,001,2025-03-15_15h55.58.904,Utility_discrimination_2024_2cat,2024.2.4,MacIntel,59.88023952,,,,,,,,0,"[0.5,0.5]","[1,0]",d,"[0.8978447438111856,0.6649075074455456]","[0.10215525618881433,0.3350924925544544]",461.7798,464.5426,1,s,1,1.234,,-0.490971324,-0.302114289,0.188857035,464.5453,464.5453,0,164,164,164,1,0.430567905,0.430567905,shape_difference1,1,,TRUE,,intensity,0.1,0.05,0.7,0.3,0.82,20,400,1E-11,3.5,0.01,0.5,0.1,,,,,,,,,,,,,,,,,,,,,,,,,,,,,,,,,,,,,,,,,,,,,,,,,,,,,,,,,,,,,,,,,,,,,,,,,,,,,,,,,
,,,,,788879,001,2025-03-15_15h55.58.904,Utility_discrimination_2024_2cat,2024.2.4,MacIntel,59.88023952,,,,,,,,2,"[0.5,0.5]","[0.707,0.707]",s,"[0.12325067943634449,0.5]","[0.8767493205636555,0.5]",464.5464,467.2925,1,s,1,1.217,,-0.075967115,0.176106915,0.25207403,467.2958,467.2958,0,165,165,165,1,-0.376749321,-0.376749321,shape_difference0,1,,TRUE,,intensity,0.1,0.05,0.7,0.3,0.82,20,400,1E-11,3.5,0.01,0.5,0.1,,,,,,,,,,,,,,,,,,,,,,,,,,,,,,,,,,,,,,,,,,,,,,,,,,,,,,,,,,,,,,,,,,,,,,,,,,,,,,,,,
,,,,,788879,001,2025-03-15_15h55.58.904,Utility_discrimination_2024_2cat,2024.2.4,MacIntel,59.88023952,,,,,,,,3,"[0.5,0.5]","[0.383,0.924]",s,"[0.5415532075550653,0.5415532075550653]","[0.45844679244493464,0.45844679244493464]",467.2969,469.7093,1,d,1,0.8861,,0.102829471,0.27908333,0.176253859,469.7114,469.7114,0,166,166,166,1,0.058773985,0.058773985,shape_difference2,1,,TRUE,,intensity,0.1,0.05,0.7,0.3,0.82,20,400,1E-11,3.5,0.01,0.5,0.1,,,,,,,,,,,,,,,,,,,,,,,,,,,,,,,,,,,,,,,,,,,,,,,,,,,,,,,,,,,,,,,,,,,,,,,,,,,,,,,,,
,,,,,788879,001,2025-03-15_15h55.58.904,Utility_discrimination_2024_2cat,2024.2.4,MacIntel,59.88023952,,,,,,,,4,"[0.5,0.5]","[0,1]",d,"[0.5663602684098039,0.6600963133437565]","[0.43363973159019614,0.33990368665624343]",469.7127,472.3093,1,s,1,1.0671,,-0.090408201,0.103345907,0.193754107,472.3114,472.3115,0,167,167,167,1,0.173264408,0.173264408,shape_difference3,1,,TRUE,,intensity,0.1,0.05,0.7,0.3,0.82,20,400,1E-11,3.5,0.01,0.5,0.1,,,,,,,,,,,,,,,,,,,,,,,,,,,,,,,,,,,,,,,,,,,,,,,,,,,,,,,,,,,,,,,,,,,,,,,,,,,,,,,,,
,,,,,788879,001,2025-03-15_15h55.58.904,Utility_discrimination_2024_2cat,2024.2.4,MacIntel,59.88023952,,,,,,,,1,"[0.5,0.5]","[0.924,0.383]",s,"[0.5,0.5197551745240873]","[0.5,0.48024482547591274]",472.3125,474.9759,1,s,1,1.134,,0.310018837,0.496493245,0.186474408,474.979,474.9791,0,168,168,168,1,0.019755175,0.019755175,shape_difference4,1,,TRUE,,intensity,0.1,0.05,0.7,0.3,0.82,20,400,1E-11,3.5,0.01,0.5,0.1,,,,,,,,,,,,,,,,,,,,,,,,,,,,,,,,,,,,,,,,,,,,,,,,,,,,,,,,,,,,,,,,,,,,,,,,,,,,,,,,,
,,,,,788879,001,2025-03-15_15h55.58.904,Utility_discrimination_2024_2cat,2024.2.4,MacIntel,59.88023952,,,,,,,,0,"[0.5,0.5]","[1,0]",s,"[0.8911742502368489,0.6621425734206852]","[0.10882574976315101,0.3378574265793148]",474.9802,477.2592,1,s,1,0.7584,,-0.492182723,-0.30419528,0.187987443,477.2617,477.2617,0,169,169,169,1,0.423348756,0.423348756,shape_difference1,1,,TRUE,,intensity,0.1,0.05,0.7,0.3,0.82,20,400,1E-11,3.5,0.01,0.5,0.1,,,,,,,,,,,,,,,,,,,,,,,,,,,,,,,,,,,,,,,,,,,,,,,,,,,,,,,,,,,,,,,,,,,,,,,,,,,,,,,,,
,,,,,788879,001,2025-03-15_15h55.58.904,Utility_discrimination_2024_2cat,2024.2.4,MacIntel,59.88023952,,,,,,,,3,"[0.5,0.5]","[0.383,0.924]",s,"[0.11437783535725854,0.5]","[0.8856221646427415,0.5]",477.2629,479.3422,1,d,1,0.558,,0.102059835,0.274325994,0.172266159,479.3433,479.3433,0,170,170,170,1,-0.385622165,-0.385622165,shape_difference0,1,,TRUE,,intensity,0.1,0.05,0.7,0.3,0.82,20,400,1E-11,3.5,0.01,0.5,0.1,,,,,,,,,,,,,,,,,,,,,,,,,,,,,,,,,,,,,,,,,,,,,,,,,,,,,,,,,,,,,,,,,,,,,,,,,,,,,,,,,
,,,,,788879,001,2025-03-15_15h55.58.904,Utility_discrimination_2024_2cat,2024.2.4,MacIntel,59.88023952,,,,,,,,2,"[0.5,0.5]","[0.707,0.707]",d,"[0.5652358584542158,0.6573836376284475]","[0.4347641415457842,0.34261636237155246]",479.3437,481.8425,1,s,1,0.9771,,-0.079064456,0.164908073,0.243972529,481.8446,481.8446,0,171,171,171,1,0.170328612,0.170328612,shape_difference3,1,,TRUE,,intensity,0.1,0.05,0.7,0.3,0.82,20,400,1E-11,3.5,0.01,0.5,0.1,,,,,,,,,,,,,,,,,,,,,,,,,,,,,,,,,,,,,,,,,,,,,,,,,,,,,,,,,,,,,,,,,,,,,,,,,,,,,,,,,
,,,,,788879,001,2025-03-15_15h55.58.904,Utility_discrimination_2024_2cat,2024.2.4,MacIntel,59.88023952,,,,,,,,4,"[0.5,0.5]","[0,1]",s,"[0.5384369926846707,0.5384369926846707]","[0.46156300731532923,0.46156300731532923]",481.8457,483.9759,1,d,1,0.6035,,-0.091360274,0.097639596,0.188999869,483.9785,483.9786,0,172,172,172,1,0.054366326,0.054366326,shape_difference2,1,,TRUE,,intensity,0.1,0.05,0.7,0.3,0.82,20,400,1E-11,3.5,0.01,0.5,0.1,,,,,,,,,,,,,,,,,,,,,,,,,,,,,,,,,,,,,,,,,,,,,,,,,,,,,,,,,,,,,,,,,,,,,,,,,,,,,,,,,
,,,,,788879,001,2025-03-15_15h55.58.904,Utility_discrimination_2024_2cat,2024.2.4,MacIntel,59.88023952,,,,,,,,1,"[0.5,0.5]","[0.924,0.383]",d,"[0.5,0.5095798885765305]","[0.5,0.49042011142346953]",483.9798,486.2925,0,s,0,0.788,,0.308971887,0.494659074,0.185687186,486.2943,486.2944,0,173,173,173,1,0.009579889,0.009579889,shape_difference4,1,,TRUE,,intensity,0.1,0.05,0.7,0.3,0.82,20,400,1E-11,3.5,0.01,0.5,0.1,,,,,,,,,,,,,,,,,,,,,,,,,,,,,,,,,,,,,,,,,,,,,,,,,,,,,,,,,,,,,,,,,,,,,,,,,,,,,,,,,
,,,,,788879,001,2025-03-15_15h55.58.904,Utility_discrimination_2024_2cat,2024.2.4,MacIntel,59.88023952,,,,,,,,1,"[0.5,0.5]","[0.924,0.383]",d,"[0.8833622553633382,0.6589044846365352]","[0.11663774463666182,0.34109551536346483]",486.2955,488.4759,1,d,1,0.6496,,0.308083202,0.492752544,0.184669342,488.4793,488.4794,0,174,174,174,1,0.414894216,0.414894216,shape_difference1,1,,TRUE,,intensity,0.1,0.05,0.7,0.3,0.82,20,400,1E-11,3.5,0.01,0.5,0.1,,,,,,,,,,,,,,,,,,,,,,,,,,,,,,,,,,,,,,,,,,,,,,,,,,,,,,,,,,,,,,,,,,,,,,,,,,,,,,,,,
,,,,,788879,001,2025-03-15_15h55.58.904,Utility_discrimination_2024_2cat,2024.2.4,MacIntel,59.88023952,,,,,,,,2,"[0.5,0.5]","[0.707,0.707]",d,"[0.8741494686331679,0.6550857645957828]","[0.12585053136683205,0.3449142354042172]",488.4808,490.5929,1,d,1,0.5951,,-0.081581587,0.151809964,0.23339155,490.5948,490.5949,0,175,175,175,1,0.404923667,0.404923667,shape_difference1,1,,TRUE,,intensity,0.1,0.05,0.7,0.3,0.82,20,400,1E-11,3.5,0.01,0.5,0.1,,,,,,,,,,,,,,,,,,,,,,,,,,,,,,,,,,,,,,,,,,,,,,,,,,,,,,,,,,,,,,,,,,,,,,,,,,,,,,,,,
,,,,,788879,001,2025-03-15_15h55.58.904,Utility_discrimination_2024_2cat,2024.2.4,MacIntel,59.88023952,,,,,,,,4,"[0.5,0.5]","[0,1]",d,"[0.535434963597671,0.535434963597671]","[0.4645650364023291,0.4645650364023291]",490.597,492.9426,0,s,0,0.8155,,-0.08771197,0.130850248,0.218562218,492.9448,492.9449,0,176,176,176,1,0.050120175,0.050120175,shape_difference2,1,,TRUE,,intensity,0.1,0.05,0.7,0.3,0.82,20,400,1E-11,3.5,0.01,0.5,0.1,,,,,,,,,,,,,,,,,,,,,,,,,,,,,,,,,,,,,,,,,,,,,,,,,,,,,,,,,,,,,,,,,,,,,,,,,,,,,,,,,
,,,,,788879,001,2025-03-15_15h55.58.904,Utility_discrimination_2024_2cat,2024.2.4,MacIntel,59.88023952,,,,,,,,0,"[0.5,0.5]","[1,0]",d,"[0.5,0.535359068000308]","[0.5,0.464640931999692]",492.9456,495.226,1,d,1,0.7516,,-0.493256986,-0.306329196,0.18692779,495.2281,495.2281,0,177,177,177,1,0.035359068,0.035359068,shape_difference4,1,,TRUE,,intensity,0.1,0.05,0.7,0.3,0.82,20,400,1E-11,3.5,0.01,0.5,0.1,,,,,,,,,,,,,,,,,,,,,,,,,,,,,,,,,,,,,,,,,,,,,,,,,,,,,,,,,,,,,,,,,,,,,,,,,,,,,,,,,
,,,,,788879,001,2025-03-15_15h55.58.904,Utility_discrimination_2024_2cat,2024.2.4,MacIntel,59.88023952,,,,,,,,3,"[0.5,0.5]","[0.383,0.924]",d,"[0.10391955997687174,0.5]","[0.8960804400231283,0.5]",495.2315,498.2926,1,s,1,1.5343,,0.101246881,0.268773337,0.167526456,498.2953,498.2953,0,178,178,178,1,-0.39608044,-0.39608044,shape_difference0,1,,TRUE,,intensity,0.1,0.05,0.7,0.3,0.82,20,400,1E-11,3.5,0.01,0.5,0.1,,,,,,,,,,,,,,,,,,,,,,,,,,,,,,,,,,,,,,,,,,,,,,,,,,,,,,,,,,,,,,,,,,,,,,,,,,,,,,,,,
,,,,,788879,001,2025-03-15_15h55.58.904,Utility_discrimination_2024_2cat,2024.2.4,MacIntel,59.88023952,,,,,,,,3,"[0.5,0.5]","[0.383,0.924]",s,"[0.5642781062822649,0.6550730292553859]","[0.43572189371773506,0.3449269707446141]",498.2969,500.9084,1,d,1,1.088,,0.100370609,0.262218559,0.16184795,500.9106,500.9106,0,179,179,179,1,0.167827954,0.167827954,shape_difference3,1,,TRUE,,intensity,0.1,0.05,0.7,0.3,0.82,20,400,1E-11,3.5,0.01,0.5,0.1,,,,,,,,,,,,,,,,,,,,,,,,,,,,,,,,,,,,,,,,,,,,,,,,,,,,,,,,,,,,,,,,,,,,,,,,,,,,,,,,,
,,,,,788879,001,2025-03-15_15h55.58.904,Utility_discrimination_2024_2cat,2024.2.4,MacIntel,59.88023952,,,,,,,,0,"[0.5,0.5]","[1,0]",d,"[0.5634524891925531,0.6530812010807286]","[0.43654751080744686,0.34691879891927135]",500.9117,503.7423,1,d,1,1.3032,,-0.494233145,-0.308580867,0.185652278,503.7444,503.7444,0,180,180,180,1,0.165672296,0.165672296,shape_difference3,1,,TRUE,,intensity,0.1,0.05,0.7,0.3,0.82,20,400,1E-11,3.5,0.01,0.5,0.1,,,,,,,,,,,,,,,,,,,,,,,,,,,,,,,,,,,,,,,,,,,,,,,,,,,,,,,,,,,,,,,,,,,,,,,,,,,,,,,,,
,,,,,788879,001,2025-03-15_15h55.58.904,Utility_discrimination_2024_2cat,2024.2.4,MacIntel,59.88023952,,,,,,,,2,"[0.5,0.5]","[0.707,0.707]",d,"[0.09494297519023998,0.5]","[0.90505702480976,0.5]",503.7453,506.1014,1,s,1,0.8174,,-0.044417185,0.186047342,0.230464527,506.1028,506.1028,0,181,181,181,1,-0.405057025,-0.405057025,shape_difference0,1,,TRUE,,intensity,0.1,0.05,0.7,0.3,0.82,20,400,1E-11,3.5,0.01,0.5,0.1,,,,,,,,,,,,,,,,,,,,,,,,,,,,,,,,,,,,,,,,,,,,,,,,,,,,,,,,,,,,,,,,,,,,,,,,,,,,,,,,,
,,,,,788879,001,2025-03-15_15h55.58.904,Utility_discrimination_2024_2cat,2024.2.4,MacIntel,59.88023952,,,,,,,,4,"[0.5,0.5]","[0,1]",s,"[0.5491608573228144,0.5491608573228144]","[0.4508391426771856,0.4508391426771856]",506.1033,508.476,1,s,1,0.8531,,-0.089067571,0.109652683,0.198720253,508.479,508.479,0,182,182,182,1,0.069534452,0.069534452,shape_difference2,1,,TRUE,,intensity,0.1,0.05,0.7,0.3,0.82,20,400,1E-11,3.5,0.01,0.5,0.1,,,,,,,,,,,,,,,,,,,,,,,,,,,,,,,,,,,,,,,,,,,,,,,,,,,,,,,,,,,,,,,,,,,,,,,,,,,,,,,,,
,,,,,788879,001,2025-03-15_15h55.58.904,Utility_discrimination_2024_2cat,2024.2.4,MacIntel,59.88023952,,,,,,,,1,"[0.5,0.5]","[0.924,0.383]",s,"[0.5,0.5280310272869386]","[0.5,0.47196897271306143]",508.4801,511.0586,0,s,0,1.0508,,0.30731918,0.490716879,0.183397698,511.0626,511.0626,0,183,183,183,1,0.028031027,0.028031027,shape_difference4,1,,TRUE,,intensity,0.1,0.05,0.7,0.3,0.82,20,400,1E-11,3.5,0.01,0.5,0.1,,,,,,,,,,,,,,,,,,,,,,,,,,,,,,,,,,,,,,,,,,,,,,,,,,,,,,,,,,,,,,,,,,,,,,,,,,,,,,,,,
,,,,,788879,001,2025-03-15_15h55.58.904,Utility_discrimination_2024_2cat,2024.2.4,MacIntel,59.88023952,,,,,,,,0,"[0.5,0.5]","[1,0]",d,"[0.865744257496281,0.6516017863864454]","[0.13425574250371902,0.34839821361355455]",511.0642,513.3094,1,d,1,0.7187,,-0.495144608,-0.311021302,0.184123307,513.3124,513.3125,0,184,184,184,1,0.395827119,0.395827119,shape_difference1,1,,TRUE,,intensity,0.1,0.05,0.7,0.3,0.82,20,400,1E-11,3.5,0.01,0.5,0.1,,,,,,,,,,,,,,,,,,,,,,,,,,,,,,,,,,,,,,,,,,,,,,,,,,,,,,,,,,,,,,,,,,,,,,,,,,,,,,,,,
,,,,,788879,001,2025-03-15_15h55.58.904,Utility_discrimination_2024_2cat,2024.2.4,MacIntel,59.88023952,,,,,,,,1,"[0.5,0.5]","[0.924,0.383]",d,"[0.08842928519262616,0.5]","[0.9115707148073738,0.5]",513.3135,515.476,1,s,1,0.6323,,0.306652073,0.488489755,0.181837681,515.4781,515.4781,0,185,185,185,1,-0.411570715,-0.411570715,shape_difference0,1,,TRUE,,intensity,0.1,0.05,0.7,0.3,0.82,20,400,1E-11,3.5,0.01,0.5,0.1,,,,,,,,,,,,,,,,,,,,,,,,,,,,,,,,,,,,,,,,,,,,,,,,,,,,,,,,,,,,,,,,,,,,,,,,,,,,,,,,,
,,,,,788879,001,2025-03-15_15h55.58.904,Utility_discrimination_2024_2cat,2024.2.4,MacIntel,59.88023952,,,,,,,,3,"[0.5,0.5]","[0.383,0.924]",s,"[0.859824653790216,0.6491480978372866]","[0.140175346209784,0.3508519021627135]",515.4791,517.8093,1,d,1,0.7996,,0.09098735,0.254410412,0.163423063,517.812,517.8121,0,186,186,186,1,0.389420621,0.389420621,shape_difference1,1,,TRUE,,intensity,0.1,0.05,0.7,0.3,0.82,20,400,1E-11,3.5,0.01,0.5,0.1,,,,,,,,,,,,,,,,,,,,,,,,,,,,,,,,,,,,,,,,,,,,,,,,,,,,,,,,,,,,,,,,,,,,,,,,,,,,,,,,,
,,,,,788879,001,2025-03-15_15h55.58.904,Utility_discrimination_2024_2cat,2024.2.4,MacIntel,59.88023952,,,,,,,,2,"[0.5,0.5]","[0.707,0.707]",d,"[0.5627302375725395,0.651338745475265]","[0.43726976242746046,0.34866125452473495]",517.8131,520.3758,1,d,1,1.0346,,-0.052863132,0.17821594,0.231079071,520.3779,520.378,0,187,187,187,1,0.163786521,0.163786521,shape_difference3,1,,TRUE,,intensity,0.1,0.05,0.7,0.3,0.82,20,400,1E-11,3.5,0.01,0.5,0.1,,,,,,,,,,,,,,,,,,,,,,,,,,,,,,,,,,,,,,,,,,,,,,,,,,,,,,,,,,,,,,,,,,,,,,,,,,,,,,,,,
,,,,,788879,001,2025-03-15_15h55.58.904,Utility_discrimination_2024_2cat,2024.2.4,MacIntel,59.88023952,,,,,,,,4,"[0.5,0.5]","[0,1]",d,"[0.546558601746524,0.546558601746524]","[0.453441398253476,0.453441398253476]",520.379,522.5417,1,s,1,0.6417,,-0.083989694,0.149193541,0.233183235,522.5443,522.5443,0,188,188,188,1,0.065853751,0.065853751,shape_difference2,1,,TRUE,,intensity,0.1,0.05,0.7,0.3,0.82,20,400,1E-11,3.5,0.01,0.5,0.1,,,,,,,,,,,,,,,,,,,,,,,,,,,,,,,,,,,,,,,,,,,,,,,,,,,,,,,,,,,,,,,,,,,,,,,,,,,,,,,,,
,,,,,788879,001,2025-03-15_15h55.58.904,Utility_discrimination_2024_2cat,2024.2.4,MacIntel,59.88023952,,,,,,,,2,"[0.5,0.5]","[0.707,0.707]",s,"[0.5,0.546282092795019]","[0.5,0.45371790720498095]",522.5452,524.8927,1,d,1,0.8268,,-0.059667879,0.169509923,0.229177803,524.8946,524.8947,0,189,189,189,1,0.046282093,0.046282093,shape_difference4,1,,TRUE,,intensity,0.1,0.05,0.7,0.3,0.82,20,400,1E-11,3.5,0.01,0.5,0.1,,,,,,,,,,,,,,,,,,,,,,,,,,,,,,,,,,,,,,,,,,,,,,,,,,,,,,,,,,,,,,,,,,,,,,,,,,,,,,,,,
,,,,,788879,001,2025-03-15_15h55.58.904,Utility_discrimination_2024_2cat,2024.2.4,MacIntel,59.88023952,,,,,,,,4,"[0.5,0.5]","[0,1]",d,"[0.5442708641031395,0.5442708641031395]","[0.4557291358968605,0.4557291358968605]",524.8957,528.0928,1,s,1,1.6683,,-0.086001197,0.133771022,0.219772219,528.0957,528.0958,0,190,190,190,1,0.062617912,0.062617912,shape_difference2,1,,TRUE,,intensity,0.1,0.05,0.7,0.3,0.82,20,400,1E-11,3.5,0.01,0.5,0.1,,,,,,,,,,,,,,,,,,,,,,,,,,,,,,,,,,,,,,,,,,,,,,,,,,,,,,,,,,,,,,,,,,,,,,,,,,,,,,,,,
