Consent.started,Consent.stopped,key_resp.keys,key_resp.rt,key_resp.duration,participant,session,date,expName,psychopyVersion,OS,frameRate,SetupExperiment.started,SetupExperiment.stopped,DiscrimInstructions_Pre.started,DiscrimInstructions_Pre.stopped,KeyboardResponse.keys,KeyboardResponse.rt,KeyboardResponse.duration,feature_index,feature_center,feature_vector,correct_answer,coord1,coord2,DiscriminationTrial.started,DiscriminationTrial.stopped,PreTest.response,Resp_s_or_d.keys,Resp_s_or_d.corr,Resp_s_or_d.rt,Resp_s_or_d.duration,PreTest.CI_lower,PreTest.CI_upper,PreTest.CI_width,CrashPretest_2.started,CrashPretest_2.stopped,PreTest.thisRepN,PreTest.thisTrialN,PreTest.thisN,PreTest.thisIndex,PreTest.ran,PreTest.intensity,intensity,PreTest.label,PreTest.nReps,PreTest.method,PreTest.autoLog,PreTest.seed,PreTest.varName,PreTest.startVal,PreTest.minVal,PreTest.maxVal,PreTest.startValSd,PreTest.pThreshold,PreTest.nTrials,PreTest.maxTrials,PreTest.stopInterval,PreTest.beta,PreTest.delta,PreTest.gamma,PreTest.grain,WelcomeToCategorizationTask.started,WelcomeToCategorizationTask.stopped,PressAnyKey3.keys,PressAnyKey3.rt,PressAnyKey3.duration,shape_coordinates,category_center,category_sigma,subspace_center,subspace_vector1,subspace_vector2,CategorizationTrial.started,CategorizationTrial.stopped,Respond_1or2.keys,Respond_1or2.rt,Respond_1or2.duration,Feedback.started,Feedback.stopped,xcoord,ycoord,shape_coord,numeric_response_minus1,correctness,truecategory,mixture_index,respAifA,respBifA,respAifB,respBifB,trial_number,D,muAx,muAy,muBx,muBy,sigmaA,sigmaB,priorA,priorB,TrialLoop.thisRepN,TrialLoop.thisTrialN,TrialLoop.thisN,TrialLoop.thisIndex,TrialLoop.ran,DiscriminationInstructions_Post.started,DiscriminationInstructions_Post.stopped,key_resp_2.keys,key_resp_2.rt,key_resp_2.duration,PostTest.response,PostTest.CI_lower,PostTest.CI_upper,PostTest.CI_width,CrashPosttest.started,CrashPosttest.stopped,PostTest.thisRepN,PostTest.thisTrialN,PostTest.thisN,PostTest.thisIndex,PostTest.ran,PostTest.intensity,PostTest.label,PostTest.nReps,PostTest.method,PostTest.autoLog,PostTest.seed,PostTest.varName,PostTest.startVal,PostTest.minVal,PostTest.maxVal,PostTest.startValSd,PostTest.pThreshold,PostTest.nTrials,PostTest.maxTrials,PostTest.stopInterval,PostTest.beta,PostTest.delta,PostTest.gamma,PostTest.grain,Thanks.started,Thanks.stopped
0.0002,28.7885,y,28.7657,,838091,001,2025-03-13_21h26.42.203,Utility_discrimination_2024_2cat,2024.2.4,Win32,59.52380952,,,,,,,,,,,,,,,,,,,,,,,,,,,,,,,,,,,,,,,,,,,,,,,,,,,,,,,,,,,,,,,,,,,,,,,,,,,,,,,,,,,,,,,,,,,,,,,,,,,,,,,,,,,,,,,,,,,,,,,,,,,,,,,,,,,
,,,,,838091,001,2025-03-13_21h26.42.203,Utility_discrimination_2024_2cat,2024.2.4,Win32,59.52380952,28.7889,28.789,,,,,,,,,,,,,,,,,,,,,,,,,,,,,,,,,,,,,,,,,,,,,,,,,,,,,,,,,,,,,,,,,,,,,,,,,,,,,,,,,,,,,,,,,,,,,,,,,,,,,,,,,,,,,,,,,,,,,,,,,,,,,,,,,
,,,,,838091,001,2025-03-13_21h26.42.203,Utility_discrimination_2024_2cat,2024.2.4,Win32,59.52380952,,,28.789,49.2388,space,20.4205,,,,,,,,,,,,,,,,,,,,,,,,,,,,,,,,,,,,,,,,,,,,,,,,,,,,,,,,,,,,,,,,,,,,,,,,,,,,,,,,,,,,,,,,,,,,,,,,,,,,,,,,,,,,,,,,,,,,,,,,,,,,,
,,,,,838091,001,2025-03-13_21h26.42.203,Utility_discrimination_2024_2cat,2024.2.4,Win32,59.52380952,,,,,,,,4,"[0.5,0.5]","[0,1]",,"[0.6185239449756466,0.5]","[0.3814760550243534,0.5]",49.2576,51.7223,1,s,1,0.9268,,-0.447967632,0.547967632,0.995935263,51.7254,51.7255,0,0,0,0,1,0.118523945,0.118523945,shape_difference0,1,,TRUE,,intensity,0.1,0.05,0.7,0.3,0.82,20,400,1E-11,3.5,0.01,0.5,0.1,,,,,,,,,,,,,,,,,,,,,,,,,,,,,,,,,,,,,,,,,,,,,,,,,,,,,,,,,,,,,,,,,,,,,,,,,,,,,,,,,
,,,,,838091,001,2025-03-13_21h26.42.203,Utility_discrimination_2024_2cat,2024.2.4,Win32,59.52380952,,,,,,,,1,"[0.5,0.5]","[0.924,0.383]",s,"[0.5,0.6185239449756466]","[0.5,0.3814760550243534]",51.7261,54.0384,0,s,0,0.7756,,-0.447967632,0.547967632,0.995935263,54.0405,54.0405,0,1,1,1,1,0.118523945,0.118523945,shape_difference4,1,,TRUE,,intensity,0.1,0.05,0.7,0.3,0.82,20,400,1E-11,3.5,0.01,0.5,0.1,,,,,,,,,,,,,,,,,,,,,,,,,,,,,,,,,,,,,,,,,,,,,,,,,,,,,,,,,,,,,,,,,,,,,,,,,,,,,,,,,
,,,,,838091,001,2025-03-13_21h26.42.203,Utility_discrimination_2024_2cat,2024.2.4,Win32,59.52380952,,,,,,,,3,"[0.5,0.5]","[0.383,0.924]",d,"[0.6095161251574974,0.5453946709256726]","[0.3904838748425025,0.4546053290743273]",54.0411,56.3553,1,s,1,0.768,,-0.447967632,0.547967632,0.995935263,56.3575,56.3575,0,2,2,2,1,0.118523945,0.118523945,shape_difference1,1,,TRUE,,intensity,0.1,0.05,0.7,0.3,0.82,20,400,1E-11,3.5,0.01,0.5,0.1,,,,,,,,,,,,,,,,,,,,,,,,,,,,,,,,,,,,,,,,,,,,,,,,,,,,,,,,,,,,,,,,,,,,,,,,,,,,,,,,,
,,,,,838091,001,2025-03-13_21h26.42.203,Utility_discrimination_2024_2cat,2024.2.4,Win32,59.52380952,,,,,,,,2,"[0.5,0.5]","[0.707,0.707]",s,"[0.5453946709256726,0.6095161251574974]","[0.4546053290743273,0.3904838748425025]",56.3582,58.3721,1,s,1,0.467,,-0.447967632,0.547967632,0.995935263,58.3743,58.3744,0,3,3,3,1,0.118523945,0.118523945,shape_difference3,1,,TRUE,,intensity,0.1,0.05,0.7,0.3,0.82,20,400,1E-11,3.5,0.01,0.5,0.1,,,,,,,,,,,,,,,,,,,,,,,,,,,,,,,,,,,,,,,,,,,,,,,,,,,,,,,,,,,,,,,,,,,,,,,,,,,,,,,,,
,,,,,838091,001,2025-03-13_21h26.42.203,Utility_discrimination_2024_2cat,2024.2.4,Win32,59.52380952,,,,,,,,3,"[0.5,0.5]","[0.383,0.924]",s,"[0.5837964290977822,0.5837964290977822]","[0.4162035709022178,0.4162035709022178]",58.3751,60.8554,1,d,1,0.9349,,-0.479157219,0.478510979,0.957668197,60.8576,60.8576,0,4,4,4,1,0.118523945,0.118523945,shape_difference2,1,,TRUE,,intensity,0.1,0.05,0.7,0.3,0.82,20,400,1E-11,3.5,0.01,0.5,0.1,,,,,,,,,,,,,,,,,,,,,,,,,,,,,,,,,,,,,,,,,,,,,,,,,,,,,,,,,,,,,,,,,,,,,,,,,,,,,,,,,
,,,,,838091,001,2025-03-13_21h26.42.203,Utility_discrimination_2024_2cat,2024.2.4,Win32,59.52380952,,,,,,,,4,"[0.5,0.5]","[0,1]",d,"[0.5141716077151222,0.5341894661325662]","[0.48582839228487784,0.46581053386743376]",60.8581,63.2387,1,s,1,0.8459,,0.008797352,0.664308158,0.655510806,63.2411,63.2411,0,5,5,5,1,0.037001587,0.037001587,shape_difference3,1,,TRUE,,intensity,0.1,0.05,0.7,0.3,0.82,20,400,1E-11,3.5,0.01,0.5,0.1,,,,,,,,,,,,,,,,,,,,,,,,,,,,,,,,,,,,,,,,,,,,,,,,,,,,,,,,,,,,,,,,,,,,,,,,,,,,,,,,,
,,,,,838091,001,2025-03-13_21h26.42.203,Utility_discrimination_2024_2cat,2024.2.4,Win32,59.52380952,,,,,,,,0,"[0.5,0.5]","[1,0]",s,"[0.5,0.8247185585179694]","[0.5,0.17528144148203062]",63.2416,65.6224,1,s,1,0.8413,,-0.479157219,0.478510979,0.957668197,65.6246,65.6247,0,6,6,6,1,0.324718559,0.324718559,shape_difference4,1,,TRUE,,intensity,0.1,0.05,0.7,0.3,0.82,20,400,1E-11,3.5,0.01,0.5,0.1,,,,,,,,,,,,,,,,,,,,,,,,,,,,,,,,,,,,,,,,,,,,,,,,,,,,,,,,,,,,,,,,,,,,,,,,,,,,,,,,,
,,,,,838091,001,2025-03-13_21h26.42.203,Utility_discrimination_2024_2cat,2024.2.4,Win32,59.52380952,,,,,,,,1,"[0.5,0.5]","[0.924,0.383]",s,"[0.5370015867235566,0.5]","[0.4629984132764434,0.5]",65.6251,68.0555,1,s,1,0.8882,,-0.479157219,0.478510979,0.957668197,68.0581,68.0581,0,7,7,7,1,0.037001587,0.037001587,shape_difference0,1,,TRUE,,intensity,0.1,0.05,0.7,0.3,0.82,20,400,1E-11,3.5,0.01,0.5,0.1,,,,,,,,,,,,,,,,,,,,,,,,,,,,,,,,,,,,,,,,,,,,,,,,,,,,,,,,,,,,,,,,,,,,,,,,,,,,,,,,,
,,,,,838091,001,2025-03-13_21h26.42.203,Utility_discrimination_2024_2cat,2024.2.4,Win32,59.52380952,,,,,,,,2,"[0.5,0.5]","[0.707,0.707]",s,"[0.5341894661325662,0.5141716077151222]","[0.46581053386743376,0.48582839228487784]",68.0586,70.4391,0,s,0,0.8352,,-0.479157219,0.478510979,0.957668197,70.4418,70.4418,0,8,8,8,1,0.037001587,0.037001587,shape_difference1,1,,TRUE,,intensity,0.1,0.05,0.7,0.3,0.82,20,400,1E-11,3.5,0.01,0.5,0.1,,,,,,,,,,,,,,,,,,,,,,,,,,,,,,,,,,,,,,,,,,,,,,,,,,,,,,,,,,,,,,,,,,,,,,,,,,,,,,,,,
,,,,,838091,001,2025-03-13_21h26.42.203,Utility_discrimination_2024_2cat,2024.2.4,Win32,59.52380952,,,,,,,,1,"[0.5,0.5]","[0.924,0.383]",d,"[0.5261601218135545,0.5261601218135545]","[0.4738398781864455,0.4738398781864455]",70.4422,72.7888,0,s,0,0.8062,,-0.090065158,0.591798206,0.681863364,72.7909,72.7909,0,9,9,9,1,0.037001587,0.037001587,shape_difference2,1,,TRUE,,intensity,0.1,0.05,0.7,0.3,0.82,20,400,1E-11,3.5,0.01,0.5,0.1,,,,,,,,,,,,,,,,,,,,,,,,,,,,,,,,,,,,,,,,,,,,,,,,,,,,,,,,,,,,,,,,,,,,,,,,,,,,,,,,,
,,,,,838091,001,2025-03-13_21h26.42.203,Utility_discrimination_2024_2cat,2024.2.4,Win32,59.52380952,,,,,,,,0,"[0.5,0.5]","[1,0]",d,"[0.7085118474629236,0.586428612097727]","[0.2914881525370764,0.413571387902273]",72.7913,75.175,0,s,0,0.8499,,-0.510435314,0.404710629,0.915145943,75.1768,75.1768,0,10,10,10,1,0.225662173,0.225662173,shape_difference1,1,,TRUE,,intensity,0.1,0.05,0.7,0.3,0.82,20,400,1E-11,3.5,0.01,0.5,0.1,,,,,,,,,,,,,,,,,,,,,,,,,,,,,,,,,,,,,,,,,,,,,,,,,,,,,,,,,,,,,,,,,,,,,,,,,,,,,,,,,
,,,,,838091,001,2025-03-13_21h26.42.203,Utility_discrimination_2024_2cat,2024.2.4,Win32,59.52380952,,,,,,,,3,"[0.5,0.5]","[0.383,0.924]",d,"[0.4627317496680746,0.5]","[0.5372682503319254,0.5]",75.1772,77.6557,1,s,1,0.9373,,-0.510435314,0.404710629,0.915145943,77.6577,77.6577,0,11,11,11,1,-0.03726825,-0.03726825,shape_difference0,1,,TRUE,,intensity,0.1,0.05,0.7,0.3,0.82,20,400,1E-11,3.5,0.01,0.5,0.1,,,,,,,,,,,,,,,,,,,,,,,,,,,,,,,,,,,,,,,,,,,,,,,,,,,,,,,,,,,,,,,,,,,,,,,,,,,,,,,,,
,,,,,838091,001,2025-03-13_21h26.42.203,Utility_discrimination_2024_2cat,2024.2.4,Win32,59.52380952,,,,,,,,4,"[0.5,0.5]","[0,1]",s,"[0.48572626012287257,0.46556413669330093]","[0.5142737398771274,0.5344358633066991]",77.6583,80.0224,1,s,1,0.8249,,-0.003741292,0.604569979,0.608311271,80.0238,80.0239,0,12,12,12,1,-0.03726825,-0.03726825,shape_difference3,1,,TRUE,,intensity,0.1,0.05,0.7,0.3,0.82,20,400,1E-11,3.5,0.01,0.5,0.1,,,,,,,,,,,,,,,,,,,,,,,,,,,,,,,,,,,,,,,,,,,,,,,,,,,,,,,,,,,,,,,,,,,,,,,,,,,,,,,,,
,,,,,838091,001,2025-03-13_21h26.42.203,Utility_discrimination_2024_2cat,2024.2.4,Win32,59.52380952,,,,,,,,2,"[0.5,0.5]","[0.707,0.707]",s,"[0.5,0.7748173464265704]","[0.5,0.22518265357342954]",80.0242,82.3392,1,s,1,0.7689,,-0.090065158,0.591798206,0.681863364,82.3414,82.3415,0,13,13,13,1,0.274817346,0.274817346,shape_difference4,1,,TRUE,,intensity,0.1,0.05,0.7,0.3,0.82,20,400,1E-11,3.5,0.01,0.5,0.1,,,,,,,,,,,,,,,,,,,,,,,,,,,,,,,,,,,,,,,,,,,,,,,,,,,,,,,,,,,,,,,,,,,,,,,,,,,,,,,,,
,,,,,838091,001,2025-03-13_21h26.42.203,Utility_discrimination_2024_2cat,2024.2.4,Win32,59.52380952,,,,,,,,3,"[0.5,0.5]","[0.383,0.924]",s,"[0.6595431560132976,0.6595431560132976]","[0.3404568439867024,0.3404568439867024]",82.3418,84.689,1,s,1,0.8134,,-0.540713527,0.322166073,0.862879599,84.691,84.691,0,14,14,14,1,0.225662173,0.225662173,shape_difference2,1,,TRUE,,intensity,0.1,0.05,0.7,0.3,0.82,20,400,1E-11,3.5,0.01,0.5,0.1,,,,,,,,,,,,,,,,,,,,,,,,,,,,,,,,,,,,,,,,,,,,,,,,,,,,,,,,,,,,,,,,,,,,,,,,,,,,,,,,,
,,,,,838091,001,2025-03-13_21h26.42.203,Utility_discrimination_2024_2cat,2024.2.4,Win32,59.52380952,,,,,,,,1,"[0.5,0.5]","[0.924,0.383]",s,"[0.4630011812750919,0.410739142292911]","[0.5369988187249081,0.589260857707089]",84.6914,87.0226,1,s,1,0.7863,,0.100128431,0.691751185,0.591622754,87.0248,87.0248,0,15,15,15,1,-0.09660266,-0.09660266,shape_difference3,1,,TRUE,,intensity,0.1,0.05,0.7,0.3,0.82,20,400,1E-11,3.5,0.01,0.5,0.1,,,,,,,,,,,,,,,,,,,,,,,,,,,,,,,,,,,,,,,,,,,,,,,,,,,,,,,,,,,,,,,,,,,,,,,,,,,,,,,,,
,,,,,838091,001,2025-03-13_21h26.42.203,Utility_discrimination_2024_2cat,2024.2.4,Win32,59.52380952,,,,,,,,4,"[0.5,0.5]","[0,1]",s,"[0.8466998224093067,0.6437078268211737]","[0.1533001775906932,0.35629217317882633]",87.0252,89.4726,1,s,1,0.9202,,-0.026700702,0.552121039,0.578821741,89.4742,89.4742,0,16,16,16,1,0.375216258,0.375216258,shape_difference1,1,,TRUE,,intensity,0.1,0.05,0.7,0.3,0.82,20,400,1E-11,3.5,0.01,0.5,0.1,,,,,,,,,,,,,,,,,,,,,,,,,,,,,,,,,,,,,,,,,,,,,,,,,,,,,,,,,,,,,,,,,,,,,,,,,,,,,,,,,
,,,,,838091,001,2025-03-13_21h26.42.203,Utility_discrimination_2024_2cat,2024.2.4,Win32,59.52380952,,,,,,,,0,"[0.5,0.5]","[1,0]",s,"[0.5,0.7361666255365733]","[0.5,0.26383337446342664]",89.4747,91.7228,1,s,1,0.7079,,-0.540713527,0.322166073,0.862879599,91.7246,91.7246,0,17,17,17,1,0.236166626,0.236166626,shape_difference4,1,,TRUE,,intensity,0.1,0.05,0.7,0.3,0.82,20,400,1E-11,3.5,0.01,0.5,0.1,,,,,,,,,,,,,,,,,,,,,,,,,,,,,,,,,,,,,,,,,,,,,,,,,,,,,,,,,,,,,,,,,,,,,,,,,,,,,,,,,
,,,,,838091,001,2025-03-13_21h26.42.203,Utility_discrimination_2024_2cat,2024.2.4,Win32,59.52380952,,,,,,,,2,"[0.5,0.5]","[0.707,0.707]",s,"[0.40339734014384304,0.5]","[0.5966026598561569,0.5]",91.7251,93.8083,1,s,1,0.5505,,-0.09936101,0.537490534,0.636851544,93.8106,93.8106,0,18,18,18,1,-0.09660266,-0.09660266,shape_difference0,1,,TRUE,,intensity,0.1,0.05,0.7,0.3,0.82,20,400,1E-11,3.5,0.01,0.5,0.1,,,,,,,,,,,,,,,,,,,,,,,,,,,,,,,,,,,,,,,,,,,,,,,,,,,,,,,,,,,,,,,,,,,,,,,,,,,,,,,,,
,,,,,838091,001,2025-03-13_21h26.42.203,Utility_discrimination_2024_2cat,2024.2.4,Win32,59.52380952,,,,,,,,0,"[0.5,0.5]","[1,0]",s,"[0.6214082432493439,0.6214082432493439]","[0.37859175675065615,0.37859175675065615]",93.811,96.0228,1,s,1,0.6723,,-0.569624043,0.240042019,0.809666061,96.0248,96.0248,0,19,19,19,1,0.171723116,0.171723116,shape_difference2,1,,TRUE,,intensity,0.1,0.05,0.7,0.3,0.82,20,400,1E-11,3.5,0.01,0.5,0.1,,,,,,,,,,,,,,,,,,,,,,,,,,,,,,,,,,,,,,,,,,,,,,,,,,,,,,,,,,,,,,,,,,,,,,,,,,,,,,,,,
,,,,,838091,001,2025-03-13_21h26.42.203,Utility_discrimination_2024_2cat,2024.2.4,Win32,59.52380952,,,,,,,,4,"[0.5,0.5]","[0,1]",s,"[0.35243994249424015,0.5]","[0.6475600575057598,0.5]",96.0254,98.0395,1,s,1,0.4725,,-0.050981617,0.494068035,0.545049652,98.0416,98.0416,0,20,20,20,1,-0.147560058,-0.147560058,shape_difference0,1,,TRUE,,intensity,0.1,0.05,0.7,0.3,0.82,20,400,1E-11,3.5,0.01,0.5,0.1,,,,,,,,,,,,,,,,,,,,,,,,,,,,,,,,,,,,,,,,,,,,,,,,,,,,,,,,,,,,,,,,,,,,,,,,,,,,,,,,,
,,,,,838091,001,2025-03-13_21h26.42.203,Utility_discrimination_2024_2cat,2024.2.4,Win32,59.52380952,,,,,,,,1,"[0.5,0.5]","[0.924,0.383]",s,"[0.5,0.69671503713367]","[0.5,0.30328496286633]",98.0424,100.3396,1,d,1,0.7521,,0.07990875,0.64259131,0.56268256,100.3419,100.3419,0,21,21,21,1,0.196715037,0.196715037,shape_difference4,1,,TRUE,,intensity,0.1,0.05,0.7,0.3,0.82,20,400,1E-11,3.5,0.01,0.5,0.1,,,,,,,,,,,,,,,,,,,,,,,,,,,,,,,,,,,,,,,,,,,,,,,,,,,,,,,,,,,,,,,,,,,,,,,,,,,,,,,,,
,,,,,838091,001,2025-03-13_21h26.42.203,Utility_discrimination_2024_2cat,2024.2.4,Win32,59.52380952,,,,,,,,3,"[0.5,0.5]","[0.383,0.924]",d,"[0.8099004102361802,0.6284543908230055]","[0.19009958976381974,0.37154560917699453]",100.3423,102.7229,1,d,1,0.8451,,-0.569624043,0.240042019,0.809666061,102.7246,102.7246,0,22,22,22,1,0.335390054,0.335390054,shape_difference1,1,,TRUE,,intensity,0.1,0.05,0.7,0.3,0.82,20,400,1E-11,3.5,0.01,0.5,0.1,,,,,,,,,,,,,,,,,,,,,,,,,,,,,,,,,,,,,,,,,,,,,,,,,,,,,,,,,,,,,,,,,,,,,,,,,,,,,,,,,
,,,,,838091,001,2025-03-13_21h26.42.203,Utility_discrimination_2024_2cat,2024.2.4,Win32,59.52380952,,,,,,,,2,"[0.5,0.5]","[0.707,0.707]",d,"[0.443484497975294,0.36365450686467793]","[0.556515502024706,0.6363454931353221]",102.7249,105.5896,1,d,1,1.3408,,-0.120490743,0.470685176,0.591175919,105.5914,105.5914,0,23,23,23,1,-0.147560058,-0.147560058,shape_difference3,1,,TRUE,,intensity,0.1,0.05,0.7,0.3,0.82,20,400,1E-11,3.5,0.01,0.5,0.1,,,,,,,,,,,,,,,,,,,,,,,,,,,,,,,,,,,,,,,,,,,,,,,,,,,,,,,,,,,,,,,,,,,,,,,,,,,,,,,,,
,,,,,838091,001,2025-03-13_21h26.42.203,Utility_discrimination_2024_2cat,2024.2.4,Win32,59.52380952,,,,,,,,1,"[0.5,0.5]","[0.924,0.383]",d,"[0.5923424124939928,0.5923424124939928]","[0.4076575875060072,0.4076575875060072]",105.5918,108.373,1,s,1,1.2377,,0.058226883,0.589904361,0.531677478,108.375,108.375,0,24,24,24,1,0.130611616,0.130611616,shape_difference2,1,,TRUE,,intensity,0.1,0.05,0.7,0.3,0.82,20,400,1E-11,3.5,0.01,0.5,0.1,,,,,,,,,,,,,,,,,,,,,,,,,,,,,,,,,,,,,,,,,,,,,,,,,,,,,,,,,,,,,,,,,,,,,,,,,,,,,,,,,
,,,,,838091,001,2025-03-13_21h26.42.203,Utility_discrimination_2024_2cat,2024.2.4,Win32,59.52380952,,,,,,,,0,"[0.5,0.5]","[1,0]",s,"[0.7726255931667183,0.6130038984662913]","[0.22737440683328164,0.3869961015337087]",108.3753,110.7922,1,d,1,0.8835,,-0.588261172,0.151848651,0.740109824,110.7932,110.7933,0,25,25,25,1,0.295049343,0.295049343,shape_difference1,1,,TRUE,,intensity,0.1,0.05,0.7,0.3,0.82,20,400,1E-11,3.5,0.01,0.5,0.1,,,,,,,,,,,,,,,,,,,,,,,,,,,,,,,,,,,,,,,,,,,,,,,,,,,,,,,,,,,,,,,,,,,,,,,,,,,,,,,,,
,,,,,838091,001,2025-03-13_21h26.42.203,Utility_discrimination_2024_2cat,2024.2.4,Win32,59.52380952,,,,,,,,3,"[0.5,0.5]","[0.383,0.924]",d,"[0.3089903613102919,0.5]","[0.6910096386897081,0.5]",110.7936,113.3732,1,s,1,1.0497,,-0.588261172,0.151848651,0.740109824,113.3747,113.3747,0,26,26,26,1,-0.191009639,-0.191009639,shape_difference0,1,,TRUE,,intensity,0.1,0.05,0.7,0.3,0.82,20,400,1E-11,3.5,0.01,0.5,0.1,,,,,,,,,,,,,,,,,,,,,,,,,,,,,,,,,,,,,,,,,,,,,,,,,,,,,,,,,,,,,,,,,,,,,,,,,,,,,,,,,
,,,,,838091,001,2025-03-13_21h26.42.203,Utility_discrimination_2024_2cat,2024.2.4,Win32,59.52380952,,,,,,,,2,"[0.5,0.5]","[0.707,0.707]",s,"[0.4268433083818418,0.32350709385070975]","[0.5731566916181582,0.6764929061492903]",113.3753,115.7732,1,d,1,0.8701,,-0.144584963,0.406347617,0.550932581,115.7759,115.7759,0,27,27,27,1,-0.191009639,-0.191009639,shape_difference3,1,,TRUE,,intensity,0.1,0.05,0.7,0.3,0.82,20,400,1E-11,3.5,0.01,0.5,0.1,,,,,,,,,,,,,,,,,,,,,,,,,,,,,,,,,,,,,,,,,,,,,,,,,,,,,,,,,,,,,,,,,,,,,,,,,,,,,,,,,
,,,,,838091,001,2025-03-13_21h26.42.203,Utility_discrimination_2024_2cat,2024.2.4,Win32,59.52380952,,,,,,,,4,"[0.5,0.5]","[0,1]",d,"[0.5648616644488356,0.5648616644488356]","[0.4351383355511645,0.4351383355511645]",115.7774,118.1567,1,s,1,0.8442,,-0.067097964,0.445046575,0.512144539,118.1587,118.1587,0,28,28,28,1,0.0917421,0.0917421,shape_difference2,1,,TRUE,,intensity,0.1,0.05,0.7,0.3,0.82,20,400,1E-11,3.5,0.01,0.5,0.1,,,,,,,,,,,,,,,,,,,,,,,,,,,,,,,,,,,,,,,,,,,,,,,,,,,,,,,,,,,,,,,,,,,,,,,,,,,,,,,,,
,,,,,838091,001,2025-03-13_21h26.42.203,Utility_discrimination_2024_2cat,2024.2.4,Win32,59.52380952,,,,,,,,1,"[0.5,0.5]","[0.924,0.383]",s,"[0.5,0.6700952157765088]","[0.5,0.3299047842234913]",118.1593,120.5067,1,s,1,0.8109,,0.043850706,0.54273529,0.498884584,120.5088,120.5088,0,29,29,29,1,0.170095216,0.170095216,shape_difference4,1,,TRUE,,intensity,0.1,0.05,0.7,0.3,0.82,20,400,1E-11,3.5,0.01,0.5,0.1,,,,,,,,,,,,,,,,,,,,,,,,,,,,,,,,,,,,,,,,,,,,,,,,,,,,,,,,,,,,,,,,,,,,,,,,,,,,,,,,,
,,,,,838091,001,2025-03-13_21h26.42.203,Utility_discrimination_2024_2cat,2024.2.4,Win32,59.52380952,,,,,,,,4,"[0.5,0.5]","[0,1]",s,"[0.7472624573667571,0.602490823778645]","[0.2527375426332429,0.397509176221355]",120.5093,123.2596,1,s,1,1.2167,,-0.078138993,0.387434732,0.465573725,123.2616,123.2616,0,30,30,30,1,0.267600062,0.267600062,shape_difference1,1,,TRUE,,intensity,0.1,0.05,0.7,0.3,0.82,20,400,1E-11,3.5,0.01,0.5,0.1,,,,,,,,,,,,,,,,,,,,,,,,,,,,,,,,,,,,,,,,,,,,,,,,,,,,,,,,,,,,,,,,,,,,,,,,,,,,,,,,,
,,,,,838091,001,2025-03-13_21h26.42.203,Utility_discrimination_2024_2cat,2024.2.4,Win32,59.52380952,,,,,,,,2,"[0.5,0.5]","[0.707,0.707]",s,"[0.5,0.6474032266493467]","[0.5,0.3525967733506533]",123.2619,126.1902,1,s,1,1.3854,,-0.160589475,0.350306654,0.510896129,126.1921,126.1921,0,31,31,31,1,0.147403227,0.147403227,shape_difference4,1,,TRUE,,intensity,0.1,0.05,0.7,0.3,0.82,20,400,1E-11,3.5,0.01,0.5,0.1,,,,,,,,,,,,,,,,,,,,,,,,,,,,,,,,,,,,,,,,,,,,,,,,,,,,,,,,,,,,,,,,,,,,,,,,,,,,,,,,,
,,,,,838091,001,2025-03-13_21h26.42.203,Utility_discrimination_2024_2cat,2024.2.4,Win32,59.52380952,,,,,,,,0,"[0.5,0.5]","[1,0]",s,"[0.5467724281057327,0.5467724281057327]","[0.4532275718942674,0.4532275718942674]",126.1927,128.5927,1,s,1,0.8669,,-0.616056949,0.077962516,0.694019466,128.5945,128.5945,0,32,32,32,1,0.066156193,0.066156193,shape_difference2,1,,TRUE,,intensity,0.1,0.05,0.7,0.3,0.82,20,400,1E-11,3.5,0.01,0.5,0.1,,,,,,,,,,,,,,,,,,,,,,,,,,,,,,,,,,,,,,,,,,,,,,,,,,,,,,,,,,,,,,,,,,,,,,,,,,,,,,,,,
,,,,,838091,001,2025-03-13_21h26.42.203,Utility_discrimination_2024_2cat,2024.2.4,Win32,59.52380952,,,,,,,,3,"[0.5,0.5]","[0.383,0.924]",s,"[0.2663877560171044,0.5]","[0.7336122439828956,0.5]",128.5951,130.9402,1,s,1,0.8041,,-0.616056949,0.077962516,0.694019466,130.942,130.942,0,33,33,33,1,-0.233612244,-0.233612244,shape_difference0,1,,TRUE,,intensity,0.1,0.05,0.7,0.3,0.82,20,400,1E-11,3.5,0.01,0.5,0.1,,,,,,,,,,,,,,,,,,,,,,,,,,,,,,,,,,,,,,,,,,,,,,,,,,,,,,,,,,,,,,,,,,,,,,,,,,,,,,,,,
,,,,,838091,001,2025-03-13_21h26.42.203,Utility_discrimination_2024_2cat,2024.2.4,Win32,59.52380952,,,,,,,,2,"[0.5,0.5]","[0.707,0.707]",s,"[0.410526510554551,0.28414228655980445]","[0.589473489445449,0.7158577134401956]",130.9424,133.2571,1,d,1,0.7748,,-0.171576622,0.286796614,0.458373237,133.2595,133.2595,0,34,34,34,1,-0.233612244,-0.233612244,shape_difference3,1,,TRUE,,intensity,0.1,0.05,0.7,0.3,0.82,20,400,1E-11,3.5,0.01,0.5,0.1,,,,,,,,,,,,,,,,,,,,,,,,,,,,,,,,,,,,,,,,,,,,,,,,,,,,,,,,,,,,,,,,,,,,,,,,,,,,,,,,,
,,,,,838091,001,2025-03-13_21h26.42.203,Utility_discrimination_2024_2cat,2024.2.4,Win32,59.52380952,,,,,,,,3,"[0.5,0.5]","[0.383,0.924]",d,"[0.5313192191480777,0.5313192191480777]","[0.46868078085192233,0.46868078085192233]",133.26,135.707,1,d,1,0.9062,,-0.642600146,0.003859163,0.64645931,135.7088,135.7088,0,35,35,35,1,0.044298754,0.044298754,shape_difference2,1,,TRUE,,intensity,0.1,0.05,0.7,0.3,0.82,20,400,1E-11,3.5,0.01,0.5,0.1,,,,,,,,,,,,,,,,,,,,,,,,,,,,,,,,,,,,,,,,,,,,,,,,,,,,,,,,,,,,,,,,,,,,,,,,,,,,,,,,,
,,,,,838091,001,2025-03-13_21h26.42.203,Utility_discrimination_2024_2cat,2024.2.4,Win32,59.52380952,,,,,,,,1,"[0.5,0.5]","[0.924,0.383]",d,"[0.3967329646643764,0.2508649069187566]","[0.6032670353356236,0.7491350930812434]",135.7093,138.5904,0,d,0,1.3408,,0.034012922,0.48723303,0.453220108,138.5921,138.5921,0,36,36,36,1,-0.269626724,-0.269626724,shape_difference3,1,,TRUE,,intensity,0.1,0.05,0.7,0.3,0.82,20,400,1E-11,3.5,0.01,0.5,0.1,,,,,,,,,,,,,,,,,,,,,,,,,,,,,,,,,,,,,,,,,,,,,,,,,,,,,,,,,,,,,,,,,,,,,,,,,,,,,,,,,
,,,,,838091,001,2025-03-13_21h26.42.203,Utility_discrimination_2024_2cat,2024.2.4,Win32,59.52380952,,,,,,,,0,"[0.5,0.5]","[1,0]",s,"[0.725572306020939,0.5935002090974238]","[0.27442769397906097,0.40649979090257615]",138.5926,141.0904,1,d,1,0.9516,,-0.642600146,0.003859163,0.64645931,141.0925,141.0925,0,37,37,37,1,0.244125872,0.244125872,shape_difference1,1,,TRUE,,intensity,0.1,0.05,0.7,0.3,0.82,20,400,1E-11,3.5,0.01,0.5,0.1,,,,,,,,,,,,,,,,,,,,,,,,,,,,,,,,,,,,,,,,,,,,,,,,,,,,,,,,,,,,,,,,,,,,,,,,,,,,,,,,,
,,,,,838091,001,2025-03-13_21h26.42.203,Utility_discrimination_2024_2cat,2024.2.4,Win32,59.52380952,,,,,,,,4,"[0.5,0.5]","[0,1]",d,"[0.23037327588610024,0.5]","[0.7696267241138998,0.5]",141.093,143.4904,1,s,1,0.8626,,-0.090658615,0.352456116,0.443114731,143.492,143.492,0,38,38,38,1,-0.269626724,-0.269626724,shape_difference0,1,,TRUE,,intensity,0.1,0.05,0.7,0.3,0.82,20,400,1E-11,3.5,0.01,0.5,0.1,,,,,,,,,,,,,,,,,,,,,,,,,,,,,,,,,,,,,,,,,,,,,,,,,,,,,,,,,,,,,,,,,,,,,,,,,,,,,,,,,
,,,,,838091,001,2025-03-13_21h26.42.203,Utility_discrimination_2024_2cat,2024.2.4,Win32,59.52380952,,,,,,,,1,"[0.5,0.5]","[0.924,0.383]",s,"[0.5,0.6243517438122936]","[0.5,0.3756482561877064]",143.4924,146.6934,0,d,0,1.6674,,0.023404223,0.452615447,0.429211224,146.6954,146.6954,0,39,39,39,1,0.124351744,0.124351744,shape_difference4,1,,TRUE,,intensity,0.1,0.05,0.7,0.3,0.82,20,400,1E-11,3.5,0.01,0.5,0.1,,,,,,,,,,,,,,,,,,,,,,,,,,,,,,,,,,,,,,,,,,,,,,,,,,,,,,,,,,,,,,,,,,,,,,,,,,,,,,,,,
,,,,,838091,001,2025-03-13_21h26.42.203,Utility_discrimination_2024_2cat,2024.2.4,Win32,59.52380952,,,,,,,,2,"[0.5,0.5]","[0.707,0.707]",s,"[0.7035871320365169,0.5843873068939242]","[0.2964128679634831,0.4156126931060758]",146.6959,149.1074,1,d,1,0.8712,,-0.18394784,0.248316998,0.432264838,149.1095,149.1095,0,40,40,40,1,0.220332394,0.220332394,shape_difference1,1,,TRUE,,intensity,0.1,0.05,0.7,0.3,0.82,20,400,1E-11,3.5,0.01,0.5,0.1,,,,,,,,,,,,,,,,,,,,,,,,,,,,,,,,,,,,,,,,,,,,,,,,,,,,,,,,,,,,,,,,,,,,,,,,,,,,,,,,,
,,,,,838091,001,2025-03-13_21h26.42.203,Utility_discrimination_2024_2cat,2024.2.4,Win32,59.52380952,,,,,,,,0,"[0.5,0.5]","[1,0]",d,"[0.5155626957923205,0.5155626957923205]","[0.4844373042076795,0.4844373042076795]",149.11,151.7576,1,d,1,1.1047,,-0.67113939,-0.036541485,0.634597904,151.7594,151.7594,0,41,41,41,1,0.0220123,0.0220123,shape_difference2,1,,TRUE,,intensity,0.1,0.05,0.7,0.3,0.82,20,400,1E-11,3.5,0.01,0.5,0.1,,,,,,,,,,,,,,,,,,,,,,,,,,,,,,,,,,,,,,,,,,,,,,,,,,,,,,,,,,,,,,,,,,,,,,,,,,,,,,,,,
,,,,,838091,001,2025-03-13_21h26.42.203,Utility_discrimination_2024_2cat,2024.2.4,Win32,59.52380952,,,,,,,,4,"[0.5,0.5]","[0,1]",d,"[0.1898285633172705,0.5]","[0.8101714366827295,0.5]",151.7599,154.1908,1,s,1,0.8838,,0.008070822,0.430403835,0.422333013,154.1931,154.1931,0,42,42,42,1,-0.310171437,-0.310171437,shape_difference0,1,,TRUE,,intensity,0.1,0.05,0.7,0.3,0.82,20,400,1E-11,3.5,0.01,0.5,0.1,,,,,,,,,,,,,,,,,,,,,,,,,,,,,,,,,,,,,,,,,,,,,,,,,,,,,,,,,,,,,,,,,,,,,,,,,,,,,,,,,
,,,,,838091,001,2025-03-13_21h26.42.203,Utility_discrimination_2024_2cat,2024.2.4,Win32,59.52380952,,,,,,,,3,"[0.5,0.5]","[0.383,0.924]",s,"[0.5,0.6806970180940667]","[0.5,0.3193029819059333]",154.1935,156.5741,1,d,1,0.8406,,-0.393332692,0.123667621,0.517000313,156.5758,156.5758,0,43,43,43,1,0.180697018,0.180697018,shape_difference4,1,,TRUE,,intensity,0.1,0.05,0.7,0.3,0.82,20,400,1E-11,3.5,0.01,0.5,0.1,,,,,,,,,,,,,,,,,,,,,,,,,,,,,,,,,,,,,,,,,,,,,,,,,,,,,,,,,,,,,,,,,,,,,,,,,,,,,,,,,
,,,,,838091,001,2025-03-13_21h26.42.203,Utility_discrimination_2024_2cat,2024.2.4,Win32,59.52380952,,,,,,,,1,"[0.5,0.5]","[0.924,0.383]",d,"[0.43414526569969053,0.34112330419455367]","[0.5658547343003095,0.6588766958054464]",156.5763,159.3577,0,d,0,1.2406,,0.01583844,0.402784744,0.386946304,159.3596,159.3596,0,44,44,44,1,-0.171944476,-0.171944476,shape_difference3,1,,TRUE,,intensity,0.1,0.05,0.7,0.3,0.82,20,400,1E-11,3.5,0.01,0.5,0.1,,,,,,,,,,,,,,,,,,,,,,,,,,,,,,,,,,,,,,,,,,,,,,,,,,,,,,,,,,,,,,,,,,,,,,,,,,,,,,,,,
,,,,,838091,001,2025-03-13_21h26.42.203,Utility_discrimination_2024_2cat,2024.2.4,Win32,59.52380952,,,,,,,,0,"[0.5,0.5]","[1,0]",s,"[0.681131245881304,0.5750792934767743]","[0.318868754118696,0.4249207065232257]",159.3601,161.7578,1,d,1,0.8553,,-0.689998991,-0.095065821,0.594933171,161.7596,161.7596,0,45,45,45,1,0.196029487,0.196029487,shape_difference1,1,,TRUE,,intensity,0.1,0.05,0.7,0.3,0.82,20,400,1E-11,3.5,0.01,0.5,0.1,,,,,,,,,,,,,,,,,,,,,,,,,,,,,,,,,,,,,,,,,,,,,,,,,,,,,,,,,,,,,,,,,,,,,,,,,,,,,,,,,
,,,,,838091,001,2025-03-13_21h26.42.203,Utility_discrimination_2024_2cat,2024.2.4,Win32,59.52380952,,,,,,,,2,"[0.5,0.5]","[0.707,0.707]",d,"[0.1555533146123892,0.5]","[0.8444466853876108,0.5]",161.7604,164.2745,1,d,1,0.9719,,-0.192940399,0.197833049,0.390773448,164.276,164.276,0,46,46,46,1,-0.344446685,-0.344446685,shape_difference0,1,,TRUE,,intensity,0.1,0.05,0.7,0.3,0.82,20,400,1E-11,3.5,0.01,0.5,0.1,,,,,,,,,,,,,,,,,,,,,,,,,,,,,,,,,,,,,,,,,,,,,,,,,,,,,,,,,,,,,,,,,,,,,,,,,,,,,,,,,
,,,,,838091,001,2025-03-13_21h26.42.203,Utility_discrimination_2024_2cat,2024.2.4,Win32,59.52380952,,,,,,,,3,"[0.5,0.5]","[0.383,0.924]",d,"[0.4985560457376941,0.4985560457376941]","[0.5014439542623059,0.5014439542623059]",164.2764,166.7078,1,s,1,0.8879,,-0.29498519,0.25137259,0.54635778,166.7094,166.7094,0,47,47,47,1,-0.002042368,-0.002042368,shape_difference2,1,,TRUE,,intensity,0.1,0.05,0.7,0.3,0.82,20,400,1E-11,3.5,0.01,0.5,0.1,,,,,,,,,,,,,,,,,,,,,,,,,,,,,,,,,,,,,,,,,,,,,,,,,,,,,,,,,,,,,,,,,,,,,,,,,,,,,,,,,
,,,,,838091,001,2025-03-13_21h26.42.203,Utility_discrimination_2024_2cat,2024.2.4,Win32,59.52380952,,,,,,,,4,"[0.5,0.5]","[0,1]",s,"[0.46248036562452977,0.40948265753803]","[0.5375196343754702,0.59051734246197]",166.7098,169.1244,1,s,1,0.8667,,0.004441546,0.382823497,0.37838195,169.1272,169.1272,0,48,48,48,1,-0.097962492,-0.097962492,shape_difference3,1,,TRUE,,intensity,0.1,0.05,0.7,0.3,0.82,20,400,1E-11,3.5,0.01,0.5,0.1,,,,,,,,,,,,,,,,,,,,,,,,,,,,,,,,,,,,,,,,,,,,,,,,,,,,,,,,,,,,,,,,,,,,,,,,,,,,,,,,,
,,,,,838091,001,2025-03-13_21h26.42.203,Utility_discrimination_2024_2cat,2024.2.4,Win32,59.52380952,,,,,,,,0,"[0.5,0.5]","[1,0]",s,"[0.5,0.6636995454382429]","[0.5,0.33630045456175706]",169.1276,171.9248,0,d,0,1.2733,,-0.706498112,-0.130139369,0.576358744,171.9263,171.9263,0,49,49,49,1,0.163699545,0.163699545,shape_difference4,1,,TRUE,,intensity,0.1,0.05,0.7,0.3,0.82,20,400,1E-11,3.5,0.01,0.5,0.1,,,,,,,,,,,,,,,,,,,,,,,,,,,,,,,,,,,,,,,,,,,,,,,,,,,,,,,,,,,,,,,,,,,,,,,,,,,,,,,,,
,,,,,838091,001,2025-03-13_21h26.42.203,Utility_discrimination_2024_2cat,2024.2.4,Win32,59.52380952,,,,,,,,2,"[0.5,0.5]","[0.707,0.707]",s,"[0.12491841427140571,0.5]","[0.8750815857285943,0.5]",171.9268,174.3581,1,s,1,0.8979,,-0.199712991,0.174544142,0.374257133,174.3597,174.3597,0,50,50,50,1,-0.375081586,-0.375081586,shape_difference0,1,,TRUE,,intensity,0.1,0.05,0.7,0.3,0.82,20,400,1E-11,3.5,0.01,0.5,0.1,,,,,,,,,,,,,,,,,,,,,,,,,,,,,,,,,,,,,,,,,,,,,,,,,,,,,,,,,,,,,,,,,,,,,,,,,,,,,,,,,
,,,,,838091,001,2025-03-13_21h26.42.203,Utility_discrimination_2024_2cat,2024.2.4,Win32,59.52380952,,,,,,,,1,"[0.5,0.5]","[0.924,0.383]",s,"[0.487227516415315,0.487227516415315]","[0.5127724835846851,0.5127724835846851]",174.3601,176.7413,0,s,0,0.8441,,0.010274572,0.377888212,0.367613641,176.7432,176.7432,0,51,51,51,1,-0.018065748,-0.018065748,shape_difference2,1,,TRUE,,intensity,0.1,0.05,0.7,0.3,0.82,20,400,1E-11,3.5,0.01,0.5,0.1,,,,,,,,,,,,,,,,,,,,,,,,,,,,,,,,,,,,,,,,,,,,,,,,,,,,,,,,,,,,,,,,,,,,,,,,,,,,,,,,,
,,,,,838091,001,2025-03-13_21h26.42.203,Utility_discrimination_2024_2cat,2024.2.4,Win32,59.52380952,,,,,,,,3,"[0.5,0.5]","[0.383,0.924]",d,"[0.6666859815758961,0.5690917001553768]","[0.33331401842410396,0.4309082998446232]",176.7437,178.958,1,s,1,0.6733,,-0.299880974,0.176709002,0.476589976,178.9603,178.9603,0,52,52,52,1,0.180396084,0.180396084,shape_difference1,1,,TRUE,,intensity,0.1,0.05,0.7,0.3,0.82,20,400,1E-11,3.5,0.01,0.5,0.1,,,,,,,,,,,,,,,,,,,,,,,,,,,,,,,,,,,,,,,,,,,,,,,,,,,,,,,,,,,,,,,,,,,,,,,,,,,,,,,,,
,,,,,838091,001,2025-03-13_21h26.42.203,Utility_discrimination_2024_2cat,2024.2.4,Win32,59.52380952,,,,,,,,4,"[0.5,0.5]","[0,1]",s,"[0.4529854924108964,0.3865759660252436]","[0.5470145075891035,0.6134240339747564]",178.9608,180.9749,0,s,0,0.468,,0.054608036,0.494452033,0.439843997,180.9771,180.9771,0,53,53,53,1,-0.122753284,-0.122753284,shape_difference3,1,,TRUE,,intensity,0.1,0.05,0.7,0.3,0.82,20,400,1E-11,3.5,0.01,0.5,0.1,,,,,,,,,,,,,,,,,,,,,,,,,,,,,,,,,,,,,,,,,,,,,,,,,,,,,,,,,,,,,,,,,,,,,,,,,,,,,,,,,
,,,,,838091,001,2025-03-13_21h26.42.203,Utility_discrimination_2024_2cat,2024.2.4,Win32,59.52380952,,,,,,,,4,"[0.5,0.5]","[0,1]",d,"[0.5,0.7404306747198532]","[0.5,0.25956932528014676]",180.9776,183.3415,1,d,1,0.8309,,0.04175177,0.458844494,0.417092723,183.3439,183.3439,0,54,54,54,1,0.240430675,0.240430675,shape_difference4,1,,TRUE,,intensity,0.1,0.05,0.7,0.3,0.82,20,400,1E-11,3.5,0.01,0.5,0.1,,,,,,,,,,,,,,,,,,,,,,,,,,,,,,,,,,,,,,,,,,,,,,,,,,,,,,,,,,,,,,,,,,,,,,,,,,,,,,,,,
,,,,,838091,001,2025-03-13_21h26.42.203,Utility_discrimination_2024_2cat,2024.2.4,Win32,59.52380952,,,,,,,,1,"[0.5,0.5]","[0.924,0.383]",d,"[0.5,0.7170818755637512]","[0.5,0.28291812443624875]",183.3444,186.0415,1,d,1,1.1623,,0.006049607,0.347692498,0.341642891,186.0433,186.0433,0,55,55,55,1,0.217081876,0.217081876,shape_difference4,1,,TRUE,,intensity,0.1,0.05,0.7,0.3,0.82,20,400,1E-11,3.5,0.01,0.5,0.1,,,,,,,,,,,,,,,,,,,,,,,,,,,,,,,,,,,,,,,,,,,,,,,,,,,,,,,,,,,,,,,,,,,,,,,,,,,,,,,,,
,,,,,838091,001,2025-03-13_21h26.42.203,Utility_discrimination_2024_2cat,2024.2.4,Win32,59.52380952,,,,,,,,0,"[0.5,0.5]","[1,0]",d,"[0.6544765633640655,0.5640308698792609]","[0.3455234366359345,0.43596913012073907]",186.0438,188.5916,1,s,1,1.0008,,-0.740475113,-0.170023005,0.570452108,188.5943,188.5943,0,56,56,56,1,0.167182428,0.167182428,shape_difference1,1,,TRUE,,intensity,0.1,0.05,0.7,0.3,0.82,20,400,1E-11,3.5,0.01,0.5,0.1,,,,,,,,,,,,,,,,,,,,,,,,,,,,,,,,,,,,,,,,,,,,,,,,,,,,,,,,,,,,,,,,,,,,,,,,,,,,,,,,,
,,,,,838091,001,2025-03-13_21h26.42.203,Utility_discrimination_2024_2cat,2024.2.4,Win32,59.52380952,,,,,,,,3,"[0.5,0.5]","[0.383,0.924]",s,"[0.08949394097392083,0.5]","[0.9105060590260792,0.5]",188.5948,191.8423,1,d,1,1.7149,,-0.234004803,0.338000222,0.572005025,191.844,191.844,0,57,57,57,1,-0.410506059,-0.410506059,shape_difference0,1,,TRUE,,intensity,0.1,0.05,0.7,0.3,0.82,20,400,1E-11,3.5,0.01,0.5,0.1,,,,,,,,,,,,,,,,,,,,,,,,,,,,,,,,,,,,,,,,,,,,,,,,,,,,,,,,,,,,,,,,,,,,,,,,,,,,,,,,,
,,,,,838091,001,2025-03-13_21h26.42.203,Utility_discrimination_2024_2cat,2024.2.4,Win32,59.52380952,,,,,,,,2,"[0.5,0.5]","[0.707,0.707]",d,"[0.48959134806763777,0.47488878750521496]","[0.5104086519323622,0.5251112124947851]",191.8449,194.428,0,s,0,1.066,,-0.104534558,0.259595869,0.364130427,194.4303,194.4303,0,58,58,58,1,-0.027176637,-0.027176637,shape_difference3,1,,TRUE,,intensity,0.1,0.05,0.7,0.3,0.82,20,400,1E-11,3.5,0.01,0.5,0.1,,,,,,,,,,,,,,,,,,,,,,,,,,,,,,,,,,,,,,,,,,,,,,,,,,,,,,,,,,,,,,,,,,,,,,,,,,,,,,,,,
,,,,,838091,001,2025-03-13_21h26.42.203,Utility_discrimination_2024_2cat,2024.2.4,Win32,59.52380952,,,,,,,,4,"[0.5,0.5]","[0,1]",d,"[0.5320754173037051,0.5320754173037051]","[0.4679245826962949,0.4679245826962949]",194.4309,198.3251,0,s,0,2.3624,,0.032707501,0.40836736,0.375659859,198.3269,198.327,0,59,59,59,1,0.045368341,0.045368341,shape_difference2,1,,TRUE,,intensity,0.1,0.05,0.7,0.3,0.82,20,400,1E-11,3.5,0.01,0.5,0.1,,,,,,,,,,,,,,,,,,,,,,,,,,,,,,,,,,,,,,,,,,,,,,,,,,,,,,,,,,,,,,,,,,,,,,,,,,,,,,,,,
,,,,,838091,001,2025-03-13_21h26.42.203,Utility_discrimination_2024_2cat,2024.2.4,Win32,59.52380952,,,,,,,,3,"[0.5,0.5]","[0.383,0.924]",d,"[0.5,0.69528252590829]","[0.5,0.30471747409171]",198.3278,200.7584,1,s,1,0.8881,,-0.142601208,0.488413616,0.631014824,200.76,200.76,0,60,60,60,1,0.195282526,0.195282526,shape_difference4,1,,TRUE,,intensity,0.1,0.05,0.7,0.3,0.82,20,400,1E-11,3.5,0.01,0.5,0.1,,,,,,,,,,,,,,,,,,,,,,,,,,,,,,,,,,,,,,,,,,,,,,,,,,,,,,,,,,,,,,,,,,,,,,,,,,,,,,,,,
,,,,,838091,001,2025-03-13_21h26.42.203,Utility_discrimination_2024_2cat,2024.2.4,Win32,59.52380952,,,,,,,,1,"[0.5,0.5]","[0.924,0.383]",s,"[0.5380015888762935,0.5916800734247915]","[0.4619984111237066,0.40831992657520855]",200.7604,203.592,0,s,0,1.2842,,0.002734621,0.306477788,0.303743167,203.5943,203.5943,0,61,61,61,1,0.099220859,0.099220859,shape_difference3,1,,TRUE,,intensity,0.1,0.05,0.7,0.3,0.82,20,400,1E-11,3.5,0.01,0.5,0.1,,,,,,,,,,,,,,,,,,,,,,,,,,,,,,,,,,,,,,,,,,,,,,,,,,,,,,,,,,,,,,,,,,,,,,,,,,,,,,,,,
,,,,,838091,001,2025-03-13_21h26.42.203,Utility_discrimination_2024_2cat,2024.2.4,Win32,59.52380952,,,,,,,,0,"[0.5,0.5]","[1,0]",d,"[0.6437076836486608,0.5595671459279622]","[0.3562923163513391,0.44043285407203775]",203.595,205.9255,1,s,1,0.7957,,-0.763304889,-0.210959736,0.552345154,205.9278,205.9278,0,62,62,62,1,0.155527796,0.155527796,shape_difference1,1,,TRUE,,intensity,0.1,0.05,0.7,0.3,0.82,20,400,1E-11,3.5,0.01,0.5,0.1,,,,,,,,,,,,,,,,,,,,,,,,,,,,,,,,,,,,,,,,,,,,,,,,,,,,,,,,,,,,,,,,,,,,,,,,,,,,,,,,,
,,,,,838091,001,2025-03-13_21h26.42.203,Utility_discrimination_2024_2cat,2024.2.4,Win32,59.52380952,,,,,,,,2,"[0.5,0.5]","[0.707,0.707]",s,"[0.05999979575992709,0.5]","[0.9400002042400729,0.5]",205.9283,208.242,1,d,1,0.7747,,-0.083413541,0.324945584,0.408359125,208.2441,208.2441,0,63,63,63,1,-0.440000204,-0.440000204,shape_difference0,1,,TRUE,,intensity,0.1,0.05,0.7,0.3,0.82,20,400,1E-11,3.5,0.01,0.5,0.1,,,,,,,,,,,,,,,,,,,,,,,,,,,,,,,,,,,,,,,,,,,,,,,,,,,,,,,,,,,,,,,,,,,,,,,,,,,,,,,,,
,,,,,838091,001,2025-03-13_21h26.42.203,Utility_discrimination_2024_2cat,2024.2.4,Win32,59.52380952,,,,,,,,0,"[0.5,0.5]","[1,0]",d,"[0.5571262934669041,0.5571262934669041]","[0.4428737065330959,0.4428737065330959]",208.2446,210.6921,1,s,1,0.9258,,-0.779061589,-0.241211791,0.537849798,210.6935,210.6936,0,64,64,64,1,0.080800981,0.080800981,shape_difference2,1,,TRUE,,intensity,0.1,0.05,0.7,0.3,0.82,20,400,1E-11,3.5,0.01,0.5,0.1,,,,,,,,,,,,,,,,,,,,,,,,,,,,,,,,,,,,,,,,,,,,,,,,,,,,,,,,,,,,,,,,,,,,,,,,,,,,,,,,,
,,,,,838091,001,2025-03-13_21h26.42.203,Utility_discrimination_2024_2cat,2024.2.4,Win32,59.52380952,,,,,,,,2,"[0.5,0.5]","[0.707,0.707]",s,"[0.0335558258797376,0.5]","[0.9664441741202624,0.5]",210.694,213.7088,1,s,1,1.4815,,-0.086967906,0.278349441,0.365317346,213.7108,213.7108,0,65,65,65,1,-0.466444174,-0.466444174,shape_difference0,1,,TRUE,,intensity,0.1,0.05,0.7,0.3,0.82,20,400,1E-11,3.5,0.01,0.5,0.1,,,,,,,,,,,,,,,,,,,,,,,,,,,,,,,,,,,,,,,,,,,,,,,,,,,,,,,,,,,,,,,,,,,,,,,,,,,,,,,,,
,,,,,838091,001,2025-03-13_21h26.42.203,Utility_discrimination_2024_2cat,2024.2.4,Win32,59.52380952,,,,,,,,1,"[0.5,0.5]","[0.924,0.383]",s,"[0.5470328670984718,0.5470328670984718]","[0.4529671329015283,0.4529671329015283]",213.7111,217.5256,1,d,1,2.2683,,4.74666E-05,0.289646778,0.289599311,217.5276,217.5276,0,66,66,66,1,0.066524564,0.066524564,shape_difference2,1,,TRUE,,intensity,0.1,0.05,0.7,0.3,0.82,20,400,1E-11,3.5,0.01,0.5,0.1,,,,,,,,,,,,,,,,,,,,,,,,,,,,,,,,,,,,,,,,,,,,,,,,,,,,,,,,,,,,,,,,,,,,,,,,,,,,,,,,,
,,,,,838091,001,2025-03-13_21h26.42.203,Utility_discrimination_2024_2cat,2024.2.4,Win32,59.52380952,,,,,,,,4,"[0.5,0.5]","[0,1]",d,"[0.6337750279840019,0.5554500386557064]","[0.36622497201599813,0.4445499613442936]",217.5279,220.1257,1,d,1,1.0507,,0.026188077,0.378494694,0.352306616,220.1271,220.1271,0,67,67,67,1,0.144778169,0.144778169,shape_difference1,1,,TRUE,,intensity,0.1,0.05,0.7,0.3,0.82,20,400,1E-11,3.5,0.01,0.5,0.1,,,,,,,,,,,,,,,,,,,,,,,,,,,,,,,,,,,,,,,,,,,,,,,,,,,,,,,,,,,,,,,,,,,,,,,,,,,,,,,,,
,,,,,838091,001,2025-03-13_21h26.42.203,Utility_discrimination_2024_2cat,2024.2.4,Win32,59.52380952,,,,,,,,3,"[0.5,0.5]","[0.383,0.924]",d,"[0.5,0.6826494563373288]","[0.5,0.31735054366267124]",220.1278,222.459,1,s,1,0.7918,,-0.025016846,0.601495007,0.626511854,222.4607,222.4607,0,68,68,68,1,0.182649456,0.182649456,shape_difference4,1,,TRUE,,intensity,0.1,0.05,0.7,0.3,0.82,20,400,1E-11,3.5,0.01,0.5,0.1,,,,,,,,,,,,,,,,,,,,,,,,,,,,,,,,,,,,,,,,,,,,,,,,,,,,,,,,,,,,,,,,,,,,,,,,,,,,,,,,,
,,,,,838091,001,2025-03-13_21h26.42.203,Utility_discrimination_2024_2cat,2024.2.4,Win32,59.52380952,,,,,,,,4,"[0.5,0.5]","[0,1]",s,"[0.5965253997584209,0.732870677223971]","[0.4034746002415791,0.26712932277602897]",222.461,224.8092,1,d,1,0.8014,,0.021374734,0.347058635,0.325683901,224.8118,224.8118,0,69,69,69,1,0.252024542,0.252024542,shape_difference3,1,,TRUE,,intensity,0.1,0.05,0.7,0.3,0.82,20,400,1E-11,3.5,0.01,0.5,0.1,,,,,,,,,,,,,,,,,,,,,,,,,,,,,,,,,,,,,,,,,,,,,,,,,,,,,,,,,,,,,,,,,,,,,,,,,,,,,,,,,
,,,,,838091,001,2025-03-13_21h26.42.203,Utility_discrimination_2024_2cat,2024.2.4,Win32,59.52380952,,,,,,,,3,"[0.5,0.5]","[0.383,0.924]",d,"[0.5,0.6722360881300758]","[0.5,0.32776391186992415]",224.8122,227.176,1,d,1,0.827,,-0.038393559,0.544891035,0.583284594,227.1782,227.1782,0,70,70,70,1,0.172236088,0.172236088,shape_difference4,1,,TRUE,,intensity,0.1,0.05,0.7,0.3,0.82,20,400,1E-11,3.5,0.01,0.5,0.1,,,,,,,,,,,,,,,,,,,,,,,,,,,,,,,,,,,,,,,,,,,,,,,,,,,,,,,,,,,,,,,,,,,,,,,,,,,,,,,,,
,,,,,838091,001,2025-03-13_21h26.42.203,Utility_discrimination_2024_2cat,2024.2.4,Win32,59.52380952,,,,,,,,2,"[0.5,0.5]","[0.707,0.707]",d,"[0.5788150302837712,0.6901438328517093]","[0.4211849697162287,0.3098561671482907]",227.1787,229.5259,1,d,1,0.8115,,-0.089621303,0.236526423,0.326147726,229.5284,229.5284,0,71,71,71,1,0.205783369,0.205783369,shape_difference3,1,,TRUE,,intensity,0.1,0.05,0.7,0.3,0.82,20,400,1E-11,3.5,0.01,0.5,0.1,,,,,,,,,,,,,,,,,,,,,,,,,,,,,,,,,,,,,,,,,,,,,,,,,,,,,,,,,,,,,,,,,,,,,,,,,,,,,,,,,
,,,,,838091,001,2025-03-13_21h26.42.203,Utility_discrimination_2024_2cat,2024.2.4,Win32,59.52380952,,,,,,,,1,"[0.5,0.5]","[0.924,0.383]",d,"[0.5383434154207174,0.5383434154207174]","[0.46165658457928266,0.46165658457928266]",229.5288,232.0426,0,s,0,0.9788,,-0.028823568,0.278463574,0.307287141,232.0447,232.0447,0,72,72,72,1,0.054233968,0.054233968,shape_difference2,1,,TRUE,,intensity,0.1,0.05,0.7,0.3,0.82,20,400,1E-11,3.5,0.01,0.5,0.1,,,,,,,,,,,,,,,,,,,,,,,,,,,,,,,,,,,,,,,,,,,,,,,,,,,,,,,,,,,,,,,,,,,,,,,,,,,,,,,,,
,,,,,838091,001,2025-03-13_21h26.42.203,Utility_discrimination_2024_2cat,2024.2.4,Win32,59.52380952,,,,,,,,0,"[0.5,0.5]","[1,0]",d,"[0.6229493498116632,0.5509627716210682]","[0.3770506501883368,0.4490372283789318]",232.0453,234.4261,1,s,1,0.848,,-0.797573468,-0.278899126,0.518674342,234.4285,234.4285,0,73,73,73,1,0.133062067,0.133062067,shape_difference1,1,,TRUE,,intensity,0.1,0.05,0.7,0.3,0.82,20,400,1E-11,3.5,0.01,0.5,0.1,,,,,,,,,,,,,,,,,,,,,,,,,,,,,,,,,,,,,,,,,,,,,,,,,,,,,,,,,,,,,,,,,,,,,,,,,,,,,,,,,
,,,,,838091,001,2025-03-13_21h26.42.203,Utility_discrimination_2024_2cat,2024.2.4,Win32,59.52380952,,,,,,,,0,"[0.5,0.5]","[1,0]",s,"[0.0017110158371279605,0.5]","[0.998288984162872,0.5]",234.4291,236.8427,1,d,1,0.8675,,-0.825856923,-0.311772,0.514084923,236.8452,236.8452,0,74,74,74,1,-0.498288984,-0.498288984,shape_difference0,1,,TRUE,,intensity,0.1,0.05,0.7,0.3,0.82,20,400,1E-11,3.5,0.01,0.5,0.1,,,,,,,,,,,,,,,,,,,,,,,,,,,,,,,,,,,,,,,,,,,,,,,,,,,,,,,,,,,,,,,,,,,,,,,,,,,,,,,,,
,,,,,838091,001,2025-03-13_21h26.42.203,Utility_discrimination_2024_2cat,2024.2.4,Win32,59.52380952,,,,,,,,1,"[0.5,0.5]","[0.924,0.383]",d,"[-0.026430620101685176,0.5]","[1.026430620101685,0.5]",236.8457,239.26,1,d,1,0.881,,-0.050178292,0.26451963,0.314697922,239.261,239.261,0,75,75,75,1,-0.52643062,-0.52643062,shape_difference0,1,,TRUE,,intensity,0.1,0.05,0.7,0.3,0.82,20,400,1E-11,3.5,0.01,0.5,0.1,,,,,,,,,,,,,,,,,,,,,,,,,,,,,,,,,,,,,,,,,,,,,,,,,,,,,,,,,,,,,,,,,,,,,,,,,,,,,,,,,
,,,,,838091,001,2025-03-13_21h26.42.203,Utility_discrimination_2024_2cat,2024.2.4,Win32,59.52380952,,,,,,,,3,"[0.5,0.5]","[0.383,0.924]",d,"[0.6107729084124521,0.5459156103051614]","[0.38922709158754787,0.45408438969483855]",239.2614,242.0094,0,s,0,1.214,,-0.052755392,0.484095502,0.536850894,242.0109,242.0109,0,76,76,76,1,0.1198841,0.1198841,shape_difference1,1,,TRUE,,intensity,0.1,0.05,0.7,0.3,0.82,20,400,1E-11,3.5,0.01,0.5,0.1,,,,,,,,,,,,,,,,,,,,,,,,,,,,,,,,,,,,,,,,,,,,,,,,,,,,,,,,,,,,,,,,,,,,,,,,,,,,,,,,,
,,,,,838091,001,2025-03-13_21h26.42.203,Utility_discrimination_2024_2cat,2024.2.4,Win32,59.52380952,,,,,,,,2,"[0.5,0.5]","[0.707,0.707]",d,"[0.5657604736670294,0.658649288951267]","[0.4342395263329705,0.34135071104873305]",242.0112,244.3629,1,s,1,0.8173,,-0.052915523,0.352169802,0.405085325,244.3644,244.3644,0,77,77,77,1,0.171698365,0.171698365,shape_difference3,1,,TRUE,,intensity,0.1,0.05,0.7,0.3,0.82,20,400,1E-11,3.5,0.01,0.5,0.1,,,,,,,,,,,,,,,,,,,,,,,,,,,,,,,,,,,,,,,,,,,,,,,,,,,,,,,,,,,,,,,,,,,,,,,,,,,,,,,,,
,,,,,838091,001,2025-03-13_21h26.42.203,Utility_discrimination_2024_2cat,2024.2.4,Win32,59.52380952,,,,,,,,4,"[0.5,0.5]","[0,1]",s,"[0.576951290713399,0.576951290713399]","[0.423048709286601,0.423048709286601]",244.3647,246.8931,1,d,1,0.987,,0.017738041,0.305096971,0.287358931,246.8952,246.8952,0,78,78,78,1,0.108841995,0.108841995,shape_difference2,1,,TRUE,,intensity,0.1,0.05,0.7,0.3,0.82,20,400,1E-11,3.5,0.01,0.5,0.1,,,,,,,,,,,,,,,,,,,,,,,,,,,,,,,,,,,,,,,,,,,,,,,,,,,,,,,,,,,,,,,,,,,,,,,,,,,,,,,,,
,,,,,838091,001,2025-03-13_21h26.42.203,Utility_discrimination_2024_2cat,2024.2.4,Win32,59.52380952,,,,,,,,3,"[0.5,0.5]","[0.383,0.924]",d,"[0.5,0.6633247911079678]","[0.5,0.3366752088920322]",246.8955,249.8294,1,s,1,1.3998,,-0.062375981,0.422600331,0.484976312,249.831,249.8311,0,79,79,79,1,0.163324791,0.163324791,shape_difference4,1,,TRUE,,intensity,0.1,0.05,0.7,0.3,0.82,20,400,1E-11,3.5,0.01,0.5,0.1,,,,,,,,,,,,,,,,,,,,,,,,,,,,,,,,,,,,,,,,,,,,,,,,,,,,,,,,,,,,,,,,,,,,,,,,,,,,,,,,,
,,,,,838091,001,2025-03-13_21h26.42.203,Utility_discrimination_2024_2cat,2024.2.4,Win32,59.52380952,,,,,,,,4,"[0.5,0.5]","[0,1]",s,"[0.5553840631108494,0.6336158598287855]","[0.4446159368891506,0.36638414017121446]",249.8315,252.3266,1,s,1,0.9576,,0.014929681,0.290161024,0.275231343,252.329,252.329,0,80,80,80,1,0.144605909,0.144605909,shape_difference3,1,,TRUE,,intensity,0.1,0.05,0.7,0.3,0.82,20,400,1E-11,3.5,0.01,0.5,0.1,,,,,,,,,,,,,,,,,,,,,,,,,,,,,,,,,,,,,,,,,,,,,,,,,,,,,,,,,,,,,,,,,,,,,,,,,,,,,,,,,
,,,,,838091,001,2025-03-13_21h26.42.203,Utility_discrimination_2024_2cat,2024.2.4,Win32,59.52380952,,,,,,,,0,"[0.5,0.5]","[1,0]",s,"[0.5,0.6553827689661077]","[0.5,0.3446172310338923]",252.3296,254.843,1,s,1,1.0112,,-0.848016174,-0.337659314,0.51035686,254.8444,254.8444,0,81,81,81,1,0.155382769,0.155382769,shape_difference4,1,,TRUE,,intensity,0.1,0.05,0.7,0.3,0.82,20,400,1E-11,3.5,0.01,0.5,0.1,,,,,,,,,,,,,,,,,,,,,,,,,,,,,,,,,,,,,,,,,,,,,,,,,,,,,,,,,,,,,,,,,,,,,,,,,,,,,,,,,
,,,,,838091,001,2025-03-13_21h26.42.203,Utility_discrimination_2024_2cat,2024.2.4,Win32,59.52380952,,,,,,,,1,"[0.5,0.5]","[0.924,0.383]",s,"[-0.05098213323522749,0.5]","[1.0509821332352276,0.5]",254.8448,257.3099,1,d,1,0.9311,,0.011060664,0.290705829,0.279645166,257.3111,257.3111,0,82,82,82,1,-0.550982133,-0.550982133,shape_difference0,1,,TRUE,,intensity,0.1,0.05,0.7,0.3,0.82,20,400,1E-11,3.5,0.01,0.5,0.1,,,,,,,,,,,,,,,,,,,,,,,,,,,,,,,,,,,,,,,,,,,,,,,,,,,,,,,,,,,,,,,,,,,,,,,,,,,,,,,,,
,,,,,838091,001,2025-03-13_21h26.42.203,Utility_discrimination_2024_2cat,2024.2.4,Win32,59.52380952,,,,,,,,2,"[0.5,0.5]","[0.707,0.707]",d,"[0.6414275757068715,0.558622036250792]","[0.3585724242931285,0.44137796374920807]",257.3119,259.7266,0,d,0,0.884,,-0.062594425,0.297805271,0.360399696,259.7289,259.7289,0,83,83,83,1,0.153060147,0.153060147,shape_difference1,1,,TRUE,,intensity,0.1,0.05,0.7,0.3,0.82,20,400,1E-11,3.5,0.01,0.5,0.1,,,,,,,,,,,,,,,,,,,,,,,,,,,,,,,,,,,,,,,,,,,,,,,,,,,,,,,,,,,,,,,,,,,,,,,,,,,,,,,,,
,,,,,838091,001,2025-03-13_21h26.42.203,Utility_discrimination_2024_2cat,2024.2.4,Win32,59.52380952,,,,,,,,0,"[0.5,0.5]","[1,0]",s,"[0.564688701620089,0.564688701620089]","[0.435311298379911,0.435311298379911]",259.7293,262.5266,1,d,1,1.2617,,-0.873461133,-0.368757096,0.504704037,262.529,262.529,0,84,84,84,1,0.091497456,0.091497456,shape_difference2,1,,TRUE,,intensity,0.1,0.05,0.7,0.3,0.82,20,400,1E-11,3.5,0.01,0.5,0.1,,,,,,,,,,,,,,,,,,,,,,,,,,,,,,,,,,,,,,,,,,,,,,,,,,,,,,,,,,,,,,,,,,,,,,,,,,,,,,,,,
,,,,,838091,001,2025-03-13_21h26.42.203,Utility_discrimination_2024_2cat,2024.2.4,Win32,59.52380952,,,,,,,,4,"[0.5,0.5]","[0,1]",d,"[-0.07834298263666717,0.5]","[1.0783429826366673,0.5]",262.5293,265.0599,0,d,0,0.9963,,0.012716317,0.278271676,0.26555536,265.0617,265.0617,0,85,85,85,1,-0.578342983,-0.578342983,shape_difference0,1,,TRUE,,intensity,0.1,0.05,0.7,0.3,0.82,20,400,1E-11,3.5,0.01,0.5,0.1,,,,,,,,,,,,,,,,,,,,,,,,,,,,,,,,,,,,,,,,,,,,,,,,,,,,,,,,,,,,,,,,,,,,,,,,,,,,,,,,,
,,,,,838091,001,2025-03-13_21h26.42.203,Utility_discrimination_2024_2cat,2024.2.4,Win32,59.52380952,,,,,,,,1,"[0.5,0.5]","[0.924,0.383]",s,"[0.5,0.6480017976536985]","[0.5,0.3519982023463015]",265.0626,268.7101,0,s,0,2.1107,,0.049128396,0.365359082,0.316230685,268.7115,268.7116,0,86,86,86,1,0.148001798,0.148001798,shape_difference4,1,,TRUE,,intensity,0.1,0.05,0.7,0.3,0.82,20,400,1E-11,3.5,0.01,0.5,0.1,,,,,,,,,,,,,,,,,,,,,,,,,,,,,,,,,,,,,,,,,,,,,,,,,,,,,,,,,,,,,,,,,,,,,,,,,,,,,,,,,
,,,,,838091,001,2025-03-13_21h26.42.203,Utility_discrimination_2024_2cat,2024.2.4,Win32,59.52380952,,,,,,,,2,"[0.5,0.5]","[0.707,0.707]",d,"[0.6774264905355417,0.5735436643670049]","[0.3225735094644583,0.4264563356329951]",268.7119,271.1128,1,d,1,0.8669,,-0.069619321,0.270376766,0.339996087,271.115,271.115,0,87,87,87,1,0.192020011,0.192020011,shape_difference1,1,,TRUE,,intensity,0.1,0.05,0.7,0.3,0.82,20,400,1E-11,3.5,0.01,0.5,0.1,,,,,,,,,,,,,,,,,,,,,,,,,,,,,,,,,,,,,,,,,,,,,,,,,,,,,,,,,,,,,,,,,,,,,,,,,,,,,,,,,
,,,,,838091,001,2025-03-13_21h26.42.203,Utility_discrimination_2024_2cat,2024.2.4,Win32,59.52380952,,,,,,,,3,"[0.5,0.5]","[0.383,0.924]",d,"[0.5569682552981251,0.5569682552981251]","[0.44303174470187484,0.44303174470187484]",271.1154,274.6437,0,d,0,1.9963,,-0.072163711,0.377267899,0.44943161,274.6452,274.6452,0,88,88,88,1,0.080577447,0.080577447,shape_difference2,1,,TRUE,,intensity,0.1,0.05,0.7,0.3,0.82,20,400,1E-11,3.5,0.01,0.5,0.1,,,,,,,,,,,,,,,,,,,,,,,,,,,,,,,,,,,,,,,,,,,,,,,,,,,,,,,,,,,,,,,,,,,,,,,,,,,,,,,,,
,,,,,838091,001,2025-03-13_21h26.42.203,Utility_discrimination_2024_2cat,2024.2.4,Win32,59.52380952,,,,,,,,0,"[0.5,0.5]","[1,0]",s,"[0.5452538730294655,0.6091764456376662]","[0.45474612697053446,0.3908235543623338]",274.6464,277.4936,0,s,0,1.3003,,-0.695275081,-0.312620402,0.382654679,277.495,277.495,0,89,89,89,1,0.118156326,0.118156326,shape_difference3,1,,TRUE,,intensity,0.1,0.05,0.7,0.3,0.82,20,400,1E-11,3.5,0.01,0.5,0.1,,,,,,,,,,,,,,,,,,,,,,,,,,,,,,,,,,,,,,,,,,,,,,,,,,,,,,,,,,,,,,,,,,,,,,,,,,,,,,,,,
,,,,,838091,001,2025-03-13_21h26.42.203,Utility_discrimination_2024_2cat,2024.2.4,Win32,59.52380952,,,,,,,,1,"[0.5,0.5]","[0.924,0.383]",d,"[-0.008825040239469395,0.5]","[1.0088250402394694,0.5]",277.4955,280.0272,1,d,1,1.0064,,0.039951726,0.338598162,0.298646437,280.0287,280.0287,0,90,90,90,1,-0.50882504,-0.50882504,shape_difference0,1,,TRUE,,intensity,0.1,0.05,0.7,0.3,0.82,20,400,1E-11,3.5,0.01,0.5,0.1,,,,,,,,,,,,,,,,,,,,,,,,,,,,,,,,,,,,,,,,,,,,,,,,,,,,,,,,,,,,,,,,,,,,,,,,,,,,,,,,,
,,,,,838091,001,2025-03-13_21h26.42.203,Utility_discrimination_2024_2cat,2024.2.4,Win32,59.52380952,,,,,,,,4,"[0.5,0.5]","[0,1]",d,"[0.6687768835964865,0.5699583835686735]","[0.33122311640351354,0.43004161643132655]",280.029,282.5603,1,s,1,1.007,,0.023064312,0.294769992,0.271705679,282.5627,282.5627,0,91,91,91,1,0.182658965,0.182658965,shape_difference1,1,,TRUE,,intensity,0.1,0.05,0.7,0.3,0.82,20,400,1E-11,3.5,0.01,0.5,0.1,,,,,,,,,,,,,,,,,,,,,,,,,,,,,,,,,,,,,,,,,,,,,,,,,,,,,,,,,,,,,,,,,,,,,,,,,,,,,,,,,
,,,,,838091,001,2025-03-13_21h26.42.203,Utility_discrimination_2024_2cat,2024.2.4,Win32,59.52380952,,,,,,,,3,"[0.5,0.5]","[0.383,0.924]",s,"[0.5,0.664905396057361]","[0.5,0.33509460394263896]",282.5632,284.9771,1,s,1,0.8759,,0.005997995,0.471108221,0.465110226,284.9787,284.9787,0,92,92,92,1,0.164905396,0.164905396,shape_difference4,1,,TRUE,,intensity,0.1,0.05,0.7,0.3,0.82,20,400,1E-11,3.5,0.01,0.5,0.1,,,,,,,,,,,,,,,,,,,,,,,,,,,,,,,,,,,,,,,,,,,,,,,,,,,,,,,,,,,,,,,,,,,,,,,,,,,,,,,,,
,,,,,838091,001,2025-03-13_21h26.42.203,Utility_discrimination_2024_2cat,2024.2.4,Win32,59.52380952,,,,,,,,2,"[0.5,0.5]","[0.707,0.707]",s,"[0.5696469803363755,0.6680256131352768]","[0.4303530196636245,0.33197438686472325]",284.9791,287.2107,1,d,1,0.6967,,0.002157714,0.359718812,0.357561098,287.213,287.213,0,93,93,93,1,0.181845902,0.181845902,shape_difference3,1,,TRUE,,intensity,0.1,0.05,0.7,0.3,0.82,20,400,1E-11,3.5,0.01,0.5,0.1,,,,,,,,,,,,,,,,,,,,,,,,,,,,,,,,,,,,,,,,,,,,,,,,,,,,,,,,,,,,,,,,,,,,,,,,,,,,,,,,,
,,,,,838091,001,2025-03-13_21h26.42.203,Utility_discrimination_2024_2cat,2024.2.4,Win32,59.52380952,,,,,,,,2,"[0.5,0.5]","[0.707,0.707]",d,"[0.5921016994382748,0.5921016994382748]","[0.4078983005617252,0.4078983005617252]",287.2136,290.6107,1,s,1,1.8553,,-0.003627598,0.311007145,0.314634742,290.6124,290.6124,0,94,94,94,1,0.130271145,0.130271145,shape_difference2,1,,TRUE,,intensity,0.1,0.05,0.7,0.3,0.82,20,400,1E-11,3.5,0.01,0.5,0.1,,,,,,,,,,,,,,,,,,,,,,,,,,,,,,,,,,,,,,,,,,,,,,,,,,,,,,,,,,,,,,,,,,,,,,,,,,,,,,,,,
,,,,,838091,001,2025-03-13_21h26.42.203,Utility_discrimination_2024_2cat,2024.2.4,Win32,59.52380952,,,,,,,,3,"[0.5,0.5]","[0.383,0.924]",s,"[0.5786814183316609,0.5786814183316609]","[0.4213185816683392,0.4213185816683392]",290.613,293.444,1,d,1,1.2883,,0.002553937,0.409441026,0.406887089,293.4461,293.4461,0,95,95,95,1,0.111289135,0.111289135,shape_difference2,1,,TRUE,,intensity,0.1,0.05,0.7,0.3,0.82,20,400,1E-11,3.5,0.01,0.5,0.1,,,,,,,,,,,,,,,,,,,,,,,,,,,,,,,,,,,,,,,,,,,,,,,,,,,,,,,,,,,,,,,,,,,,,,,,,,,,,,,,,
,,,,,838091,001,2025-03-13_21h26.42.203,Utility_discrimination_2024_2cat,2024.2.4,Win32,59.52380952,,,,,,,,0,"[0.5,0.5]","[1,0]",d,"[0.5618126271062277,0.6491249802771655]","[0.43818737289377235,0.3508750197228345]",293.4464,295.8442,1,s,1,0.8552,,-0.700110711,-0.334363273,0.365747438,295.8457,295.8457,0,96,96,96,1,0.161390671,0.161390671,shape_difference3,1,,TRUE,,intensity,0.1,0.05,0.7,0.3,0.82,20,400,1E-11,3.5,0.01,0.5,0.1,,,,,,,,,,,,,,,,,,,,,,,,,,,,,,,,,,,,,,,,,,,,,,,,,,,,,,,,,,,,,,,,,,,,,,,,,,,,,,,,,
,,,,,838091,001,2025-03-13_21h26.42.203,Utility_discrimination_2024_2cat,2024.2.4,Win32,59.52380952,,,,,,,,1,"[0.5,0.5]","[0.924,0.383]",s,"[-0.026349043666743954,0.5]","[1.026349043666744,0.5]",295.8461,298.2775,1,s,1,0.8913,,0.033015088,0.303201053,0.270185965,298.2796,298.2796,0,97,97,97,1,-0.526349044,-0.526349044,shape_difference0,1,,TRUE,,intensity,0.1,0.05,0.7,0.3,0.82,20,400,1E-11,3.5,0.01,0.5,0.1,,,,,,,,,,,,,,,,,,,,,,,,,,,,,,,,,,,,,,,,,,,,,,,,,,,,,,,,,,,,,,,,,,,,,,,,,,,,,,,,,
,,,,,838091,001,2025-03-13_21h26.42.203,Utility_discrimination_2024_2cat,2024.2.4,Win32,59.52380952,,,,,,,,4,"[0.5,0.5]","[0,1]",s,"[0.6615969596237007,0.5669822895409928]","[0.3384030403762993,0.43301771045900717]",298.2801,300.761,1,d,1,0.9378,,0.019722617,0.284996887,0.26527427,300.7626,300.7626,0,98,98,98,1,0.174888484,0.174888484,shape_difference1,1,,TRUE,,intensity,0.1,0.05,0.7,0.3,0.82,20,400,1E-11,3.5,0.01,0.5,0.1,,,,,,,,,,,,,,,,,,,,,,,,,,,,,,,,,,,,,,,,,,,,,,,,,,,,,,,,,,,,,,,,,,,,,,,,,,,,,,,,,
,,,,,838091,001,2025-03-13_21h26.42.203,Utility_discrimination_2024_2cat,2024.2.4,Win32,59.52380952,,,,,,,,3,"[0.5,0.5]","[0.383,0.924]",d,"[0.5,0.6585816897002928]","[0.5,0.34141831029970715]",300.7631,303.3943,0,d,0,1.0974,,-0.00052482,0.365353308,0.365878128,303.3969,303.3969,0,99,99,99,1,0.15858169,0.15858169,shape_difference4,1,,TRUE,,intensity,0.1,0.05,0.7,0.3,0.82,20,400,1E-11,3.5,0.01,0.5,0.1,,,,,,,,,,,,,,,,,,,,,,,,,,,,,,,,,,,,,,,,,,,,,,,,,,,,,,,,,,,,,,,,,,,,,,,,,,,,,,,,,
,,,,,838091,001,2025-03-13_21h26.42.203,Utility_discrimination_2024_2cat,2024.2.4,Win32,59.52380952,,,,,,,,1,"[0.5,0.5]","[0.924,0.383]",s,"[0.5550490292604301,0.6328075797301239]","[0.44495097073956985,0.3671924202698761]",303.3974,306.0278,1,s,1,1.0874,,0.027678718,0.292892416,0.265213698,306.0287,306.0287,0,100,100,100,1,0.143731147,0.143731147,shape_difference3,1,,TRUE,,intensity,0.1,0.05,0.7,0.3,0.82,20,400,1E-11,3.5,0.01,0.5,0.1,,,,,,,,,,,,,,,,,,,,,,,,,,,,,,,,,,,,,,,,,,,,,,,,,,,,,,,,,,,,,,,,,,,,,,,,,,,,,,,,,
,,,,,838091,001,2025-03-13_21h26.42.203,Utility_discrimination_2024_2cat,2024.2.4,Win32,59.52380952,,,,,,,,4,"[0.5,0.5]","[0,1]",s,"[0.6554659346275509,0.5644409664094718]","[0.3445340653724491,0.43555903359052817]",306.0294,310.0112,0,s,0,2.4499,,0.067291997,0.341560899,0.274268902,310.013,310.013,0,101,101,101,1,0.168253176,0.168253176,shape_difference1,1,,TRUE,,intensity,0.1,0.05,0.7,0.3,0.82,20,400,1E-11,3.5,0.01,0.5,0.1,,,,,,,,,,,,,,,,,,,,,,,,,,,,,,,,,,,,,,,,,,,,,,,,,,,,,,,,,,,,,,,,,,,,,,,,,,,,,,,,,
,,,,,838091,001,2025-03-13_21h26.42.203,Utility_discrimination_2024_2cat,2024.2.4,Win32,59.52380952,,,,,,,,0,"[0.5,0.5]","[1,0]",d,"[0.5,0.6853729729071005]","[0.5,0.3146270270928994]",310.0136,312.3778,1,s,1,0.8273,,-0.719963162,-0.364050013,0.355913149,312.3786,312.3786,0,102,102,102,1,0.185372973,0.185372973,shape_difference4,1,,TRUE,,intensity,0.1,0.05,0.7,0.3,0.82,20,400,1E-11,3.5,0.01,0.5,0.1,,,,,,,,,,,,,,,,,,,,,,,,,,,,,,,,,,,,,,,,,,,,,,,,,,,,,,,,,,,,,,,,,,,,,,,,,,,,,,,,,
,,,,,838091,001,2025-03-13_21h26.42.203,Utility_discrimination_2024_2cat,2024.2.4,Win32,59.52380952,,,,,,,,2,"[0.5,0.5]","[0.707,0.707]",s,"[-0.04165113515664709,0.5]","[1.041651135156647,0.5]",312.3795,314.528,1,d,1,0.6061,,-0.023663411,0.282338297,0.306001708,314.5299,314.5299,0,103,103,103,1,-0.541651135,-0.541651135,shape_difference0,1,,TRUE,,intensity,0.1,0.05,0.7,0.3,0.82,20,400,1E-11,3.5,0.01,0.5,0.1,,,,,,,,,,,,,,,,,,,,,,,,,,,,,,,,,,,,,,,,,,,,,,,,,,,,,,,,,,,,,,,,,,,,,,,,,,,,,,,,,
,,,,,838091,001,2025-03-13_21h26.42.203,Utility_discrimination_2024_2cat,2024.2.4,Win32,59.52380952,,,,,,,,3,"[0.5,0.5]","[0.383,0.924]",d,"[0.5672823336655136,0.5672823336655136]","[0.43271766633448633,0.43271766633448633]",314.5304,316.9279,0,d,0,0.8612,,-0.023954906,0.324872448,0.348827354,316.9296,316.9296,0,104,104,104,1,0.09516596,0.09516596,shape_difference2,1,,TRUE,,intensity,0.1,0.05,0.7,0.3,0.82,20,400,1E-11,3.5,0.01,0.5,0.1,,,,,,,,,,,,,,,,,,,,,,,,,,,,,,,,,,,,,,,,,,,,,,,,,,,,,,,,,,,,,,,,,,,,,,,,,,,,,,,,,
,,,,,838091,001,2025-03-13_21h26.42.203,Utility_discrimination_2024_2cat,2024.2.4,Win32,59.52380952,,,,,,,,1,"[0.5,0.5]","[0.924,0.383]",s,"[0.548421449329449,0.616818326841804]","[0.4515785506705509,0.38318167315819596]",316.93,319.8614,0,s,0,1.3923,,0.100231609,0.352079534,0.251847925,319.8634,319.8634,0,105,105,105,1,0.126426761,0.126426761,shape_difference3,1,,TRUE,,intensity,0.1,0.05,0.7,0.3,0.82,20,400,1E-11,3.5,0.01,0.5,0.1,,,,,,,,,,,,,,,,,,,,,,,,,,,,,,,,,,,,,,,,,,,,,,,,,,,,,,,,,,,,,,,,,,,,,,,,,,,,,,,,,
,,,,,838091,001,2025-03-13_21h26.42.203,Utility_discrimination_2024_2cat,2024.2.4,Win32,59.52380952,,,,,,,,4,"[0.5,0.5]","[0,1]",d,"[0.6802395955352023,0.574709702478336]","[0.3197604044647977,0.42529029752166403]",319.8638,322.0112,1,s,1,0.6122,,0.055294573,0.306715806,0.251421233,322.0131,322.0131,0,106,106,106,1,0.195064497,0.195064497,shape_difference1,1,,TRUE,,intensity,0.1,0.05,0.7,0.3,0.82,20,400,1E-11,3.5,0.01,0.5,0.1,,,,,,,,,,,,,,,,,,,,,,,,,,,,,,,,,,,,,,,,,,,,,,,,,,,,,,,,,,,,,,,,,,,,,,,,,,,,,,,,,
,,,,,838091,001,2025-03-13_21h26.42.203,Utility_discrimination_2024_2cat,2024.2.4,Win32,59.52380952,,,,,,,,0,"[0.5,0.5]","[1,0]",s,"[0.5,0.6784577072354339]","[0.5,0.32154229276456614]",322.0136,324.078,1,s,1,0.5215,,-0.734504193,-0.401473566,0.333030627,324.0799,324.0799,0,107,107,107,1,0.178457707,0.178457707,shape_difference4,1,,TRUE,,intensity,0.1,0.05,0.7,0.3,0.82,20,400,1E-11,3.5,0.01,0.5,0.1,,,,,,,,,,,,,,,,,,,,,,,,,,,,,,,,,,,,,,,,,,,,,,,,,,,,,,,,,,,,,,,,,,,,,,,,,,,,,,,,,
,,,,,838091,001,2025-03-13_21h26.42.203,Utility_discrimination_2024_2cat,2024.2.4,Win32,59.52380952,,,,,,,,2,"[0.5,0.5]","[0.707,0.707]",s,"[-0.05562027523712354,0.5]","[1.0556202752371235,0.5]",324.0803,326.1615,1,d,1,0.5591,,0.008429714,0.360258858,0.351829143,326.1639,326.1639,0,108,108,108,1,-0.555620275,-0.555620275,shape_difference0,1,,TRUE,,intensity,0.1,0.05,0.7,0.3,0.82,20,400,1E-11,3.5,0.01,0.5,0.1,,,,,,,,,,,,,,,,,,,,,,,,,,,,,,,,,,,,,,,,,,,,,,,,,,,,,,,,,,,,,,,,,,,,,,,,,,,,,,,,,
,,,,,838091,001,2025-03-13_21h26.42.203,Utility_discrimination_2024_2cat,2024.2.4,Win32,59.52380952,,,,,,,,0,"[0.5,0.5]","[1,0]",d,"[0.6004758950202523,0.6004758950202523]","[0.39952410497974766,0.39952410497974766]",326.1642,328.5615,0,s,0,0.8604,,-0.751679736,-0.41222395,0.339455785,328.5636,328.5637,0,109,109,109,1,0.142115835,0.142115835,shape_difference2,1,,TRUE,,intensity,0.1,0.05,0.7,0.3,0.82,20,400,1E-11,3.5,0.01,0.5,0.1,,,,,,,,,,,,,,,,,,,,,,,,,,,,,,,,,,,,,,,,,,,,,,,,,,,,,,,,,,,,,,,,,,,,,,,,,,,,,,,,,
,,,,,838091,001,2025-03-13_21h26.42.203,Utility_discrimination_2024_2cat,2024.2.4,Win32,59.52380952,,,,,,,,3,"[0.5,0.5]","[0.383,0.924]",d,"[-0.0707206263405028,0.5]","[1.0707206263405027,0.5]",328.5641,330.8949,1,d,1,0.784,,0.01206317,0.392647233,0.380584063,330.8973,330.8973,0,110,110,110,1,-0.570720626,-0.570720626,shape_difference0,1,,TRUE,,intensity,0.1,0.05,0.7,0.3,0.82,20,400,1E-11,3.5,0.01,0.5,0.1,,,,,,,,,,,,,,,,,,,,,,,,,,,,,,,,,,,,,,,,,,,,,,,,,,,,,,,,,,,,,,,,,,,,,,,,,,,,,,,,,
,,,,,838091,001,2025-03-13_21h26.42.203,Utility_discrimination_2024_2cat,2024.2.4,Win32,59.52380952,,,,,,,,1,"[0.5,0.5]","[0.924,0.383]",d,"[0.5641238812664107,0.6547009563711839]","[0.43587611873358934,0.3452990436288161]",330.8977,333.1617,1,s,1,0.7229,,0.083059373,0.324992583,0.24193321,333.1634,333.1634,0,111,111,111,1,0.167425277,0.167425277,shape_difference3,1,,TRUE,,intensity,0.1,0.05,0.7,0.3,0.82,20,400,1E-11,3.5,0.01,0.5,0.1,,,,,,,,,,,,,,,,,,,,,,,,,,,,,,,,,,,,,,,,,,,,,,,,,,,,,,,,,,,,,,,,,,,,,,,,,,,,,,,,,
,,,,,838091,001,2025-03-13_21h26.42.203,Utility_discrimination_2024_2cat,2024.2.4,Win32,59.52380952,,,,,,,,4,"[0.5,0.5]","[0,1]",s,"[0.6726509825613523,0.5715642059751059]","[0.32734901743864775,0.42843579402489407]",333.1639,335.4449,0,s,0,0.7396,,0.046060731,0.293968333,0.247907603,335.4468,335.4468,0,112,112,112,1,0.186851713,0.186851713,shape_difference1,1,,TRUE,,intensity,0.1,0.05,0.7,0.3,0.82,20,400,1E-11,3.5,0.01,0.5,0.1,,,,,,,,,,,,,,,,,,,,,,,,,,,,,,,,,,,,,,,,,,,,,,,,,,,,,,,,,,,,,,,,,,,,,,,,,,,,,,,,,
,,,,,838091,001,2025-03-13_21h26.42.203,Utility_discrimination_2024_2cat,2024.2.4,Win32,59.52380952,,,,,,,,2,"[0.5,0.5]","[0.707,0.707]",d,"[0.5,0.6727243083006413]","[0.5,0.3272756916993586]",335.4472,337.6784,1,s,1,0.6842,,0.017417299,0.428682564,0.411265265,337.6795,337.6795,0,113,113,113,1,0.172724308,0.172724308,shape_difference4,1,,TRUE,,intensity,0.1,0.05,0.7,0.3,0.82,20,400,1E-11,3.5,0.01,0.5,0.1,,,,,,,,,,,,,,,,,,,,,,,,,,,,,,,,,,,,,,,,,,,,,,,,,,,,,,,,,,,,,,,,,,,,,,,,,,,,,,,,,
,,,,,838091,001,2025-03-13_21h26.42.203,Utility_discrimination_2024_2cat,2024.2.4,Win32,59.52380952,,,,,,,,0,"[0.5,0.5]","[1,0]",s,"[0.6237373211986259,0.6237373211986259]","[0.37626267880137415,0.37626267880137415]",337.68,339.9451,1,s,1,0.7388,,-0.764067694,-0.425604391,0.338463303,339.9472,339.9474,0,114,114,114,1,0.175017427,0.175017427,shape_difference2,1,,TRUE,,intensity,0.1,0.05,0.7,0.3,0.82,20,400,1E-11,3.5,0.01,0.5,0.1,,,,,,,,,,,,,,,,,,,,,,,,,,,,,,,,,,,,,,,,,,,,,,,,,,,,,,,,,,,,,,,,,,,,,,,,,,,,,,,,,
,,,,,838091,001,2025-03-13_21h26.42.203,Utility_discrimination_2024_2cat,2024.2.4,Win32,59.52380952,,,,,,,,2,"[0.5,0.5]","[0.707,0.707]",s,"[-0.08772999507228729,0.5]","[1.0877299950722872,0.5]",339.9479,342.3118,1,d,1,0.8418,,0.014475448,0.378316644,0.363841195,342.3135,342.3135,0,115,115,115,1,-0.587729995,-0.587729995,shape_difference0,1,,TRUE,,intensity,0.1,0.05,0.7,0.3,0.82,20,400,1E-11,3.5,0.01,0.5,0.1,,,,,,,,,,,,,,,,,,,,,,,,,,,,,,,,,,,,,,,,,,,,,,,,,,,,,,,,,,,,,,,,,,,,,,,,,,,,,,,,,
,,,,,838091,001,2025-03-13_21h26.42.203,Utility_discrimination_2024_2cat,2024.2.4,Win32,59.52380952,,,,,,,,1,"[0.5,0.5]","[0.924,0.383]",d,"[0.6139557618099901,0.6139557618099901]","[0.3860442381900099,0.3860442381900099]",342.3143,346.962,1,d,1,3.1146,,0.107307716,0.37687676,0.269569045,346.9638,346.9638,0,116,116,116,1,0.161182124,0.161182124,shape_difference2,1,,TRUE,,intensity,0.1,0.05,0.7,0.3,0.82,20,400,1E-11,3.5,0.01,0.5,0.1,,,,,,,,,,,,,,,,,,,,,,,,,,,,,,,,,,,,,,,,,,,,,,,,,,,,,,,,,,,,,,,,,,,,,,,,,,,,,,,,,
,,,,,838091,001,2025-03-13_21h26.42.203,Utility_discrimination_2024_2cat,2024.2.4,Win32,59.52380952,,,,,,,,3,"[0.5,0.5]","[0.383,0.924]",d,"[0.7057020597345798,0.5852639490025369]","[0.2942979402654203,0.4147360509974632]",346.9644,348.9786,1,s,1,0.4723,,0.009488172,0.354659213,0.345171041,348.9805,348.9805,0,117,117,117,1,0.222621277,0.222621277,shape_difference1,1,,TRUE,,intensity,0.1,0.05,0.7,0.3,0.82,20,400,1E-11,3.5,0.01,0.5,0.1,,,,,,,,,,,,,,,,,,,,,,,,,,,,,,,,,,,,,,,,,,,,,,,,,,,,,,,,,,,,,,,,,,,,,,,,,,,,,,,,,
,,,,,838091,001,2025-03-13_21h26.42.203,Utility_discrimination_2024_2cat,2024.2.4,Win32,59.52380952,,,,,,,,4,"[0.5,0.5]","[0,1]",s,"[0.5587551317651251,0.6417486729790488]","[0.4412448682348748,0.3582513270209512]",348.9809,350.9789,1,s,1,0.4539,,0.038839933,0.286476737,0.247636803,350.9814,350.9814,0,118,118,118,1,0.153407655,0.153407655,shape_difference3,1,,TRUE,,intensity,0.1,0.05,0.7,0.3,0.82,20,400,1E-11,3.5,0.01,0.5,0.1,,,,,,,,,,,,,,,,,,,,,,,,,,,,,,,,,,,,,,,,,,,,,,,,,,,,,,,,,,,,,,,,,,,,,,,,,,,,,,,,,
,,,,,838091,001,2025-03-13_21h26.42.203,Utility_discrimination_2024_2cat,2024.2.4,Win32,59.52380952,,,,,,,,2,"[0.5,0.5]","[0.707,0.707]",s,"[0.5,0.6678501349130783]","[0.5,0.3321498650869216]",350.9818,352.9788,1,s,1,0.4591,,0.012309269,0.332774022,0.320464753,352.9806,352.9806,0,119,119,119,1,0.167850135,0.167850135,shape_difference4,1,,TRUE,,intensity,0.1,0.05,0.7,0.3,0.82,20,400,1E-11,3.5,0.01,0.5,0.1,,,,,,,,,,,,,,,,,,,,,,,,,,,,,,,,,,,,,,,,,,,,,,,,,,,,,,,,,,,,,,,,,,,,,,,,,,,,,,,,,
,,,,,838091,001,2025-03-13_21h26.42.203,Utility_discrimination_2024_2cat,2024.2.4,Win32,59.52380952,,,,,,,,1,"[0.5,0.5]","[0.924,0.383]",s,"[0.6054658116742726,0.6054658116742726]","[0.39453418832572734,0.39453418832572734]",352.9813,354.8984,0,s,0,0.3837,,0.105888152,0.358923037,0.253034885,354.9005,354.9006,0,120,120,120,1,0.149173708,0.149173708,shape_difference2,1,,TRUE,,intensity,0.1,0.05,0.7,0.3,0.82,20,400,1E-11,3.5,0.01,0.5,0.1,,,,,,,,,,,,,,,,,,,,,,,,,,,,,,,,,,,,,,,,,,,,,,,,,,,,,,,,,,,,,,,,,,,,,,,,,,,,,,,,,
,,,,,838091,001,2025-03-13_21h26.42.203,Utility_discrimination_2024_2cat,2024.2.4,Win32,59.52380952,,,,,,,,3,"[0.5,0.5]","[0.383,0.924]",d,"[0.6928053689519148,0.5799182427582071]","[0.3071946310480852,0.42008175724179286]",354.901,356.7288,0,s,0,0.2966,,0.007525232,0.302931711,0.29540648,356.7303,356.7304,0,121,121,121,1,0.208663819,0.208663819,shape_difference1,1,,TRUE,,intensity,0.1,0.05,0.7,0.3,0.82,20,400,1E-11,3.5,0.01,0.5,0.1,,,,,,,,,,,,,,,,,,,,,,,,,,,,,,,,,,,,,,,,,,,,,,,,,,,,,,,,,,,,,,,,,,,,,,,,,,,,,,,,,
,,,,,838091,001,2025-03-13_21h26.42.203,Utility_discrimination_2024_2cat,2024.2.4,Win32,59.52380952,,,,,,,,4,"[0.5,0.5]","[0,1]",d,"[0.5539310766099022,0.6301104824740199]","[0.44606892339009785,0.3698895175259801]",356.7308,358.9622,1,s,1,0.7079,,0.033111679,0.278367948,0.245256269,358.9635,358.9635,0,122,122,122,1,0.14081221,0.14081221,shape_difference3,1,,TRUE,,intensity,0.1,0.05,0.7,0.3,0.82,20,400,1E-11,3.5,0.01,0.5,0.1,,,,,,,,,,,,,,,,,,,,,,,,,,,,,,,,,,,,,,,,,,,,,,,,,,,,,,,,,,,,,,,,,,,,,,,,,,,,,,,,,
,,,,,838091,001,2025-03-13_21h26.42.203,Utility_discrimination_2024_2cat,2024.2.4,Win32,59.52380952,,,,,,,,0,"[0.5,0.5]","[1,0]",s,"[0.5,0.6635881721418784]","[0.5,0.3364118278581216]",358.964,360.8457,0,s,0,0.3612,,-0.773186582,-0.442886869,0.330299713,360.8474,360.8475,0,123,123,123,1,0.163588172,0.163588172,shape_difference4,1,,TRUE,,intensity,0.1,0.05,0.7,0.3,0.82,20,400,1E-11,3.5,0.01,0.5,0.1,,,,,,,,,,,,,,,,,,,,,,,,,,,,,,,,,,,,,,,,,,,,,,,,,,,,,,,,,,,,,,,,,,,,,,,,,,,,,,,,,
,,,,,838091,001,2025-03-13_21h26.42.203,Utility_discrimination_2024_2cat,2024.2.4,Win32,59.52380952,,,,,,,,4,"[0.5,0.5]","[0,1]",d,"[-0.10483208937869803,0.5]","[1.104832089378698,0.5]",360.8479,362.7125,1,s,1,0.323,,0.101017597,0.298143902,0.197126305,362.7145,362.7145,0,124,124,124,1,-0.604832089,-0.604832089,shape_difference0,1,,TRUE,,intensity,0.1,0.05,0.7,0.3,0.82,20,400,1E-11,3.5,0.01,0.5,0.1,,,,,,,,,,,,,,,,,,,,,,,,,,,,,,,,,,,,,,,,,,,,,,,,,,,,,,,,,,,,,,,,,,,,,,,,,,,,,,,,,
,,,,,838091,001,2025-03-13_21h26.42.203,Utility_discrimination_2024_2cat,2024.2.4,Win32,59.52380952,,,,,,,,3,"[0.5,0.5]","[0.383,0.924]",s,"[0.5,0.6812117356062117]","[0.5,0.31878826439378827]",362.715,364.7789,0,s,0,0.5269,,0.005360798,0.287088307,0.281727509,364.781,364.781,0,125,125,125,1,0.181211736,0.181211736,shape_difference4,1,,TRUE,,intensity,0.1,0.05,0.7,0.3,0.82,20,400,1E-11,3.5,0.01,0.5,0.1,,,,,,,,,,,,,,,,,,,,,,,,,,,,,,,,,,,,,,,,,,,,,,,,,,,,,,,,,,,,,,,,,,,,,,,,,,,,,,,,,
,,,,,838091,001,2025-03-13_21h26.42.203,Utility_discrimination_2024_2cat,2024.2.4,Win32,59.52380952,,,,,,,,0,"[0.5,0.5]","[1,0]",d,"[0.5489861432247229,0.6181806692941098]","[0.451013856775277,0.38181933070589025]",364.7814,366.6626,1,s,1,0.3415,,-0.780043027,-0.465926265,0.314116762,366.6646,366.6646,0,126,126,126,1,0.127901157,0.127901157,shape_difference3,1,,TRUE,,intensity,0.1,0.05,0.7,0.3,0.82,20,400,1E-11,3.5,0.01,0.5,0.1,,,,,,,,,,,,,,,,,,,,,,,,,,,,,,,,,,,,,,,,,,,,,,,,,,,,,,,,,,,,,,,,,,,,,,,,,,,,,,,,,
,,,,,838091,001,2025-03-13_21h26.42.203,Utility_discrimination_2024_2cat,2024.2.4,Win32,59.52380952,,,,,,,,1,"[0.5,0.5]","[0.924,0.383]",s,"[-0.1167071178048602,0.5]","[1.1167071178048602,0.5]",366.6649,368.8957,1,d,1,0.7017,,0.111723262,0.391855765,0.280132503,368.8974,368.8975,0,127,127,127,1,-0.616707118,-0.616707118,shape_difference0,1,,TRUE,,intensity,0.1,0.05,0.7,0.3,0.82,20,400,1E-11,3.5,0.01,0.5,0.1,,,,,,,,,,,,,,,,,,,,,,,,,,,,,,,,,,,,,,,,,,,,,,,,,,,,,,,,,,,,,,,,,,,,,,,,,,,,,,,,,
,,,,,838091,001,2025-03-13_21h26.42.203,Utility_discrimination_2024_2cat,2024.2.4,Win32,59.52380952,,,,,,,,2,"[0.5,0.5]","[0.707,0.707]",d,"[0.7245334231431977,0.5930695898959358]","[0.27546657685680237,0.40693041010406417]",368.898,371.0791,1,s,1,0.6371,,0.021032328,0.388307606,0.367275278,371.0816,371.0816,0,128,128,128,1,0.24300154,0.24300154,shape_difference1,1,,TRUE,,intensity,0.1,0.05,0.7,0.3,0.82,20,400,1E-11,3.5,0.01,0.5,0.1,,,,,,,,,,,,,,,,,,,,,,,,,,,,,,,,,,,,,,,,,,,,,,,,,,,,,,,,,,,,,,,,,,,,,,,,,,,,,,,,,
,,,,,838091,001,2025-03-13_21h26.42.203,Utility_discrimination_2024_2cat,2024.2.4,Win32,59.52380952,,,,,,,,4,"[0.5,0.5]","[0,1]",s,"[0.6228840253217097,0.6228840253217097]","[0.3771159746782903,0.3771159746782903]",371.0822,373.2459,1,s,1,0.618,,0.107119126,0.358252026,0.2511329,373.2485,373.2485,0,129,129,129,1,0.173810503,0.173810503,shape_difference2,1,,TRUE,,intensity,0.1,0.05,0.7,0.3,0.82,20,400,1E-11,3.5,0.01,0.5,0.1,,,,,,,,,,,,,,,,,,,,,,,,,,,,,,,,,,,,,,,,,,,,,,,,,,,,,,,,,,,,,,,,,,,,,,,,,,,,,,,,,
,,,,,838091,001,2025-03-13_21h26.42.203,Utility_discrimination_2024_2cat,2024.2.4,Win32,59.52380952,,,,,,,,3,"[0.5,0.5]","[0.383,0.924]",s,"[0.5,0.7069594066450009]","[0.5,0.29304059335499916]",373.2489,375.4958,1,d,1,0.71,,0.003416884,0.270652145,0.267235262,375.4976,375.4976,0,130,130,130,1,0.206959407,0.206959407,shape_difference4,1,,TRUE,,intensity,0.1,0.05,0.7,0.3,0.82,20,400,1E-11,3.5,0.01,0.5,0.1,,,,,,,,,,,,,,,,,,,,,,,,,,,,,,,,,,,,,,,,,,,,,,,,,,,,,,,,,,,,,,,,,,,,,,,,,,,,,,,,,
,,,,,838091,001,2025-03-13_21h26.42.203,Utility_discrimination_2024_2cat,2024.2.4,Win32,59.52380952,,,,,,,,2,"[0.5,0.5]","[0.707,0.707]",d,"[0.5435667755273693,0.6051062678519302]","[0.4564332244726307,0.3948937321480698]",375.4979,377.8793,0,d,0,0.8412,,0.017691229,0.351021112,0.333329884,377.8811,377.8811,0,131,131,131,1,0.113751372,0.113751372,shape_difference3,1,,TRUE,,intensity,0.1,0.05,0.7,0.3,0.82,20,400,1E-11,3.5,0.01,0.5,0.1,,,,,,,,,,,,,,,,,,,,,,,,,,,,,,,,,,,,,,,,,,,,,,,,,,,,,,,,,,,,,,,,,,,,,,,,,,,,,,,,,
,,,,,838091,001,2025-03-13_21h26.42.203,Utility_discrimination_2024_2cat,2024.2.4,Win32,59.52380952,,,,,,,,1,"[0.5,0.5]","[0.924,0.383]",s,"[0.6153376348056583,0.6153376348056583]","[0.38466236519434166,0.38466236519434166]",377.8814,380.3459,0,d,0,0.9332,,0.110051021,0.378781217,0.268730196,380.3486,380.3487,0,132,132,132,1,0.163136683,0.163136683,shape_difference2,1,,TRUE,,intensity,0.1,0.05,0.7,0.3,0.82,20,400,1E-11,3.5,0.01,0.5,0.1,,,,,,,,,,,,,,,,,,,,,,,,,,,,,,,,,,,,,,,,,,,,,,,,,,,,,,,,,,,,,,,,,,,,,,,,,,,,,,,,,
,,,,,838091,001,2025-03-13_21h26.42.203,Utility_discrimination_2024_2cat,2024.2.4,Win32,59.52380952,,,,,,,,0,"[0.5,0.5]","[1,0]",s,"[0.7148255972293176,0.5890456750420223]","[0.2851744027706824,0.4109543249579777]",380.3491,382.496,0,s,0,0.6033,,-0.78531257,-0.497456556,0.287856013,382.4977,382.4977,0,133,133,133,1,0.232495235,0.232495235,shape_difference1,1,,TRUE,,intensity,0.1,0.05,0.7,0.3,0.82,20,400,1E-11,3.5,0.01,0.5,0.1,,,,,,,,,,,,,,,,,,,,,,,,,,,,,,,,,,,,,,,,,,,,,,,,,,,,,,,,,,,,,,,,,,,,,,,,,,,,,,,,,
,,,,,838091,001,2025-03-13_21h26.42.203,Utility_discrimination_2024_2cat,2024.2.4,Win32,59.52380952,,,,,,,,1,"[0.5,0.5]","[0.924,0.383]",d,"[-0.12687252341040256,0.5]","[1.1268725234104027,0.5]",382.4981,384.9795,1,s,1,0.9394,,0.116298364,0.40738504,0.291086676,384.9812,384.9812,0,134,134,134,1,-0.626872523,-0.626872523,shape_difference0,1,,TRUE,,intensity,0.1,0.05,0.7,0.3,0.82,20,400,1E-11,3.5,0.01,0.5,0.1,,,,,,,,,,,,,,,,,,,,,,,,,,,,,,,,,,,,,,,,,,,,,,,,,,,,,,,,,,,,,,,,,,,,,,,,,,,,,,,,,
,,,,,838091,001,2025-03-13_21h26.42.203,Utility_discrimination_2024_2cat,2024.2.4,Win32,59.52380952,,,,,,,,2,"[0.5,0.5]","[0.707,0.707]",s,"[0.7378111668635516,0.5985732434077276]","[0.2621888331364483,0.4014267565922724]",384.9815,387.1961,0,d,0,0.6736,,0.062734768,0.458433432,0.395698664,387.1986,387.1986,0,135,135,135,1,0.257371393,0.257371393,shape_difference1,1,,TRUE,,intensity,0.1,0.05,0.7,0.3,0.82,20,400,1E-11,3.5,0.01,0.5,0.1,,,,,,,,,,,,,,,,,,,,,,,,,,,,,,,,,,,,,,,,,,,,,,,,,,,,,,,,,,,,,,,,,,,,,,,,,,,,,,,,,
,,,,,838091,001,2025-03-13_21h26.42.203,Utility_discrimination_2024_2cat,2024.2.4,Win32,59.52380952,,,,,,,,3,"[0.5,0.5]","[0.383,0.924]",s,"[0.6488158098393555,0.6488158098393555]","[0.35118419016064445,0.35118419016064445]",387.199,389.3961,1,s,1,0.6575,,0.01177059,0.301717297,0.289946708,389.3979,389.398,0,136,136,136,1,0.210489123,0.210489123,shape_difference2,1,,TRUE,,intensity,0.1,0.05,0.7,0.3,0.82,20,400,1E-11,3.5,0.01,0.5,0.1,,,,,,,,,,,,,,,,,,,,,,,,,,,,,,,,,,,,,,,,,,,,,,,,,,,,,,,,,,,,,,,,,,,,,,,,,,,,,,,,,
,,,,,838091,001,2025-03-13_21h26.42.203,Utility_discrimination_2024_2cat,2024.2.4,Win32,59.52380952,,,,,,,,0,"[0.5,0.5]","[1,0]",s,"[0.5568294672563163,0.637102944503489]","[0.4431705327436837,0.36289705549651097]",389.3984,391.9296,1,d,1,0.9956,,-0.789454352,-0.506856299,0.282598053,391.9313,391.9313,0,137,137,137,1,0.14837981,0.14837981,shape_difference3,1,,TRUE,,intensity,0.1,0.05,0.7,0.3,0.82,20,400,1E-11,3.5,0.01,0.5,0.1,,,,,,,,,,,,,,,,,,,,,,,,,,,,,,,,,,,,,,,,,,,,,,,,,,,,,,,,,,,,,,,,,,,,,,,,,,,,,,,,,
,,,,,838091,001,2025-03-13_21h26.42.203,Utility_discrimination_2024_2cat,2024.2.4,Win32,59.52380952,,,,,,,,4,"[0.5,0.5]","[0,1]",d,"[-0.13585576746703942,0.5]","[1.1358557674670395,0.5]",391.9317,394.3296,1,d,1,0.8596,,0.106090813,0.33423357,0.228142757,394.3314,394.3314,0,138,138,138,1,-0.635855767,-0.635855767,shape_difference0,1,,TRUE,,intensity,0.1,0.05,0.7,0.3,0.82,20,400,1E-11,3.5,0.01,0.5,0.1,,,,,,,,,,,,,,,,,,,,,,,,,,,,,,,,,,,,,,,,,,,,,,,,,,,,,,,,,,,,,,,,,,,,,,,,,,,,,,,,,
,,,,,838091,001,2025-03-13_21h26.42.203,Utility_discrimination_2024_2cat,2024.2.4,Win32,59.52380952,,,,,,,,2,"[0.5,0.5]","[0.707,0.707]",d,"[0.5,0.6953410595214635]","[0.5,0.3046589404785365]",394.3318,396.5797,1,s,1,0.7,,0.049728374,0.405663183,0.355934809,396.5825,396.5826,0,139,139,139,1,0.19534106,0.19534106,shape_difference4,1,,TRUE,,intensity,0.1,0.05,0.7,0.3,0.82,20,400,1E-11,3.5,0.01,0.5,0.1,,,,,,,,,,,,,,,,,,,,,,,,,,,,,,,,,,,,,,,,,,,,,,,,,,,,,,,,,,,,,,,,,,,,,,,,,,,,,,,,,
,,,,,838091,001,2025-03-13_21h26.42.203,Utility_discrimination_2024_2cat,2024.2.4,Win32,59.52380952,,,,,,,,1,"[0.5,0.5]","[0.924,0.383]",s,"[0.636366334754596,0.636366334754596]","[0.36363366524540397,0.36363366524540397]",396.5831,398.8465,0,s,0,0.7341,,0.154726114,0.497194032,0.342467919,398.8485,398.8486,0,140,140,140,1,0.192880247,0.192880247,shape_difference2,1,,TRUE,,intensity,0.1,0.05,0.7,0.3,0.82,20,400,1E-11,3.5,0.01,0.5,0.1,,,,,,,,,,,,,,,,,,,,,,,,,,,,,,,,,,,,,,,,,,,,,,,,,,,,,,,,,,,,,,,,,,,,,,,,,,,,,,,,,
,,,,,838091,001,2025-03-13_21h26.42.203,Utility_discrimination_2024_2cat,2024.2.4,Win32,59.52380952,,,,,,,,3,"[0.5,0.5]","[0.383,0.924]",d,"[0.7736507692474609,0.6134288361707549]","[0.2263492307525391,0.3865711638292451]",398.8489,401.0297,1,s,1,0.6434,,0.009750791,0.288327692,0.278576901,401.0318,401.0318,0,141,141,141,1,0.296158841,0.296158841,shape_difference1,1,,TRUE,,intensity,0.1,0.05,0.7,0.3,0.82,20,400,1E-11,3.5,0.01,0.5,0.1,,,,,,,,,,,,,,,,,,,,,,,,,,,,,,,,,,,,,,,,,,,,,,,,,,,,,,,,,,,,,,,,,,,,,,,,,,,,,,,,,
,,,,,838091,001,2025-03-13_21h26.42.203,Utility_discrimination_2024_2cat,2024.2.4,Win32,59.52380952,,,,,,,,4,"[0.5,0.5]","[0,1]",s,"[0.5527522266480602,0.6272664684668606]","[0.44724777335193977,0.3727335315331394]",401.0322,402.9299,1,s,1,0.3537,,0.105176394,0.303421443,0.198245049,402.9318,402.9319,0,142,142,142,1,0.137734273,0.137734273,shape_difference3,1,,TRUE,,intensity,0.1,0.05,0.7,0.3,0.82,20,400,1E-11,3.5,0.01,0.5,0.1,,,,,,,,,,,,,,,,,,,,,,,,,,,,,,,,,,,,,,,,,,,,,,,,,,,,,,,,,,,,,,,,,,,,,,,,,,,,,,,,,
,,,,,838091,001,2025-03-13_21h26.42.203,Utility_discrimination_2024_2cat,2024.2.4,Win32,59.52380952,,,,,,,,0,"[0.5,0.5]","[1,0]",s,"[0.5,0.6881711289404577]","[0.5,0.3118288710595422]",402.9325,404.9973,0,s,0,0.5309,,-0.792784541,-0.514911489,0.277873053,404.9992,404.9993,0,143,143,143,1,0.188171129,0.188171129,shape_difference4,1,,TRUE,,intensity,0.1,0.05,0.7,0.3,0.82,20,400,1E-11,3.5,0.01,0.5,0.1,,,,,,,,,,,,,,,,,,,,,,,,,,,,,,,,,,,,,,,,,,,,,,,,,,,,,,,,,,,,,,,,,,,,,,,,,,,,,,,,,
,,,,,838091,001,2025-03-13_21h26.42.203,Utility_discrimination_2024_2cat,2024.2.4,Win32,59.52380952,,,,,,,,1,"[0.5,0.5]","[0.924,0.383]",d,"[-0.1440754158396288,0.5]","[1.144075415839629,0.5]",404.9996,407.1632,0,s,0,0.6201,,0.144156253,0.473530195,0.329373942,407.1644,407.1644,0,144,144,144,1,-0.644075416,-0.644075416,shape_difference0,1,,TRUE,,intensity,0.1,0.05,0.7,0.3,0.82,20,400,1E-11,3.5,0.01,0.5,0.1,,,,,,,,,,,,,,,,,,,,,,,,,,,,,,,,,,,,,,,,,,,,,,,,,,,,,,,,,,,,,,,,,,,,,,,,,,,,,,,,,
,,,,,838091,001,2025-03-13_21h26.42.203,Utility_discrimination_2024_2cat,2024.2.4,Win32,59.52380952,,,,,,,,3,"[0.5,0.5]","[0.383,0.924]",d,"[0.7639220658000281,0.6093962675339943]","[0.23607793419997192,0.39060373246600566]",407.1649,410.2655,1,s,1,1.5658,,0.008077132,0.274015556,0.265938424,410.2677,410.2677,0,145,145,145,1,0.285629941,0.285629941,shape_difference1,1,,TRUE,,intensity,0.1,0.05,0.7,0.3,0.82,20,400,1E-11,3.5,0.01,0.5,0.1,,,,,,,,,,,,,,,,,,,,,,,,,,,,,,,,,,,,,,,,,,,,,,,,,,,,,,,,,,,,,,,,,,,,,,,,,,,,,,,,,
,,,,,838091,001,2025-03-13_21h26.42.203,Utility_discrimination_2024_2cat,2024.2.4,Win32,59.52380952,,,,,,,,2,"[0.5,0.5]","[0.707,0.707]",s,"[0.5483719106284505,0.6166988131088467]","[0.4516280893715495,0.38330118689115333]",410.2683,412.7633,0,s,0,0.9667,,0.106693234,0.496555988,0.389862754,412.7661,412.7661,0,146,146,146,1,0.126297417,0.126297417,shape_difference3,1,,TRUE,,intensity,0.1,0.05,0.7,0.3,0.82,20,400,1E-11,3.5,0.01,0.5,0.1,,,,,,,,,,,,,,,,,,,,,,,,,,,,,,,,,,,,,,,,,,,,,,,,,,,,,,,,,,,,,,,,,,,,,,,,,,,,,,,,,
,,,,,838091,001,2025-03-13_21h26.42.203,Utility_discrimination_2024_2cat,2024.2.4,Win32,59.52380952,,,,,,,,0,"[0.5,0.5]","[1,0]",d,"[0.6755916216168538,0.6755916216168538]","[0.3244083783831462,0.3244083783831462]",412.7667,416.0136,1,d,1,1.7059,,-0.743528101,-0.472173467,0.271354634,416.0161,416.0161,0,147,147,147,1,0.248361558,0.248361558,shape_difference2,1,,TRUE,,intensity,0.1,0.05,0.7,0.3,0.82,20,400,1E-11,3.5,0.01,0.5,0.1,,,,,,,,,,,,,,,,,,,,,,,,,,,,,,,,,,,,,,,,,,,,,,,,,,,,,,,,,,,,,,,,,,,,,,,,,,,,,,,,,
,,,,,838091,001,2025-03-13_21h26.42.203,Utility_discrimination_2024_2cat,2024.2.4,Win32,59.52380952,,,,,,,,4,"[0.5,0.5]","[0,1]",d,"[-0.10831568291013705,0.5]","[1.108315682910137,0.5]",416.0164,418.433,1,d,1,0.9005,,0.109040354,0.362186152,0.253145798,418.4348,418.4348,0,148,148,148,1,-0.608315683,-0.608315683,shape_difference0,1,,TRUE,,intensity,0.1,0.05,0.7,0.3,0.82,20,400,1E-11,3.5,0.01,0.5,0.1,,,,,,,,,,,,,,,,,,,,,,,,,,,,,,,,,,,,,,,,,,,,,,,,,,,,,,,,,,,,,,,,,,,,,,,,,,,,,,,,,
,,,,,838091,001,2025-03-13_21h26.42.203,Utility_discrimination_2024_2cat,2024.2.4,Win32,59.52380952,,,,,,,,0,"[0.5,0.5]","[1,0]",d,"[0.5,0.7191464590763132]","[0.5,0.28085354092368675]",418.4352,420.8803,1,d,1,0.9219,,-0.754084934,-0.50027798,0.253806953,420.8822,420.8822,0,149,149,149,1,0.219146459,0.219146459,shape_difference4,1,,TRUE,,intensity,0.1,0.05,0.7,0.3,0.82,20,400,1E-11,3.5,0.01,0.5,0.1,,,,,,,,,,,,,,,,,,,,,,,,,,,,,,,,,,,,,,,,,,,,,,,,,,,,,,,,,,,,,,,,,,,,,,,,,,,,,,,,,
,,,,,838091,001,2025-03-13_21h26.42.203,Utility_discrimination_2024_2cat,2024.2.4,Win32,59.52380952,,,,,,,,3,"[0.5,0.5]","[0.383,0.924]",d,"[-0.11670481193028914,0.5]","[1.1167048119302891,0.5]",420.8826,423.2637,1,d,1,0.8517,,0.014631315,0.299525203,0.284893888,423.2661,423.2661,0,150,150,150,1,-0.616704812,-0.616704812,shape_difference0,1,,TRUE,,intensity,0.1,0.05,0.7,0.3,0.82,20,400,1E-11,3.5,0.01,0.5,0.1,,,,,,,,,,,,,,,,,,,,,,,,,,,,,,,,,,,,,,,,,,,,,,,,,,,,,,,,,,,,,,,,,,,,,,,,,,,,,,,,,
,,,,,838091,001,2025-03-13_21h26.42.203,Utility_discrimination_2024_2cat,2024.2.4,Win32,59.52380952,,,,,,,,4,"[0.5,0.5]","[0,1]",d,"[0.5588851080562709,0.6420622450234839]","[0.4411148919437291,0.35793775497651614]",423.2665,427.6637,1,d,1,2.8505,,0.108025817,0.341155463,0.233129646,427.6654,427.6654,0,151,151,151,1,0.153747018,0.153747018,shape_difference3,1,,TRUE,,intensity,0.1,0.05,0.7,0.3,0.82,20,400,1E-11,3.5,0.01,0.5,0.1,,,,,,,,,,,,,,,,,,,,,,,,,,,,,,,,,,,,,,,,,,,,,,,,,,,,,,,,,,,,,,,,,,,,,,,,,,,,,,,,,
,,,,,838091,001,2025-03-13_21h26.42.203,Utility_discrimination_2024_2cat,2024.2.4,Win32,59.52380952,,,,,,,,1,"[0.5,0.5]","[0.924,0.383]",d,"[0.5,0.7060885881763341]","[0.5,0.2939114118236659]",427.6659,430.0638,1,d,1,0.8603,,0.136317881,0.443440577,0.307122697,430.0658,430.0658,0,152,152,152,1,0.206088588,0.206088588,shape_difference4,1,,TRUE,,intensity,0.1,0.05,0.7,0.3,0.82,20,400,1E-11,3.5,0.01,0.5,0.1,,,,,,,,,,,,,,,,,,,,,,,,,,,,,,,,,,,,,,,,,,,,,,,,,,,,,,,,,,,,,,,,,,,,,,,,,,,,,,,,,
,,,,,838091,001,2025-03-13_21h26.42.203,Utility_discrimination_2024_2cat,2024.2.4,Win32,59.52380952,,,,,,,,2,"[0.5,0.5]","[0.707,0.707]",d,"[0.7560743105917922,0.6061433560136974]","[0.24392568940820786,0.3938566439863026]",430.0664,432.0472,1,s,1,0.4379,,0.104281021,0.463508362,0.359227341,432.0492,432.0492,0,153,153,153,1,0.2771367,0.2771367,shape_difference1,1,,TRUE,,intensity,0.1,0.05,0.7,0.3,0.82,20,400,1E-11,3.5,0.01,0.5,0.1,,,,,,,,,,,,,,,,,,,,,,,,,,,,,,,,,,,,,,,,,,,,,,,,,,,,,,,,,,,,,,,,,,,,,,,,,,,,,,,,,
,,,,,838091,001,2025-03-13_21h26.42.203,Utility_discrimination_2024_2cat,2024.2.4,Win32,59.52380952,,,,,,,,2,"[0.5,0.5]","[0.707,0.707]",s,"[0.6625518934794614,0.6625518934794614]","[0.3374481065205386,0.3374481065205386]",432.0496,434.2971,1,s,1,0.7087,,0.102143969,0.418195498,0.316051529,434.2985,434.2986,0,154,154,154,1,0.229917813,0.229917813,shape_difference2,1,,TRUE,,intensity,0.1,0.05,0.7,0.3,0.82,20,400,1E-11,3.5,0.01,0.5,0.1,,,,,,,,,,,,,,,,,,,,,,,,,,,,,,,,,,,,,,,,,,,,,,,,,,,,,,,,,,,,,,,,,,,,,,,,,,,,,,,,,
,,,,,838091,001,2025-03-13_21h26.42.203,Utility_discrimination_2024_2cat,2024.2.4,Win32,59.52380952,,,,,,,,1,"[0.5,0.5]","[0.924,0.383]",s,"[0.6487881380969961,0.6487881380969961]","[0.3512118619030039,0.3512118619030039]",434.299,436.55,1,s,1,0.717,,0.1303845,0.403811016,0.273426516,436.5526,436.5527,0,155,155,155,1,0.210449983,0.210449983,shape_difference2,1,,TRUE,,intensity,0.1,0.05,0.7,0.3,0.82,20,400,1E-11,3.5,0.01,0.5,0.1,,,,,,,,,,,,,,,,,,,,,,,,,,,,,,,,,,,,,,,,,,,,,,,,,,,,,,,,,,,,,,,,,,,,,,,,,,,,,,,,,
,,,,,838091,001,2025-03-13_21h26.42.203,Utility_discrimination_2024_2cat,2024.2.4,Win32,59.52380952,,,,,,,,4,"[0.5,0.5]","[0,1]",s,"[0.7495542353854634,0.6034407707279572]","[0.25044576461453655,0.39655922927204273]",436.5531,438.8808,0,s,0,0.786,,0.10718122,0.314449727,0.207268507,438.8821,438.8821,0,156,156,156,1,0.270080341,0.270080341,shape_difference1,1,,TRUE,,intensity,0.1,0.05,0.7,0.3,0.82,20,400,1E-11,3.5,0.01,0.5,0.1,,,,,,,,,,,,,,,,,,,,,,,,,,,,,,,,,,,,,,,,,,,,,,,,,,,,,,,,,,,,,,,,,,,,,,,,,,,,,,,,,
,,,,,838091,001,2025-03-13_21h26.42.203,Utility_discrimination_2024_2cat,2024.2.4,Win32,59.52380952,,,,,,,,3,"[0.5,0.5]","[0.383,0.924]",d,"[0.5,0.6953302581125029]","[0.5,0.304669741887497]",438.8827,441.364,1,d,1,0.9387,,0.012720706,0.28556459,0.272843884,441.366,441.366,0,157,157,157,1,0.195330258,0.195330258,shape_difference4,1,,TRUE,,intensity,0.1,0.05,0.7,0.3,0.82,20,400,1E-11,3.5,0.01,0.5,0.1,,,,,,,,,,,,,,,,,,,,,,,,,,,,,,,,,,,,,,,,,,,,,,,,,,,,,,,,,,,,,,,,,,,,,,,,,,,,,,,,,
,,,,,838091,001,2025-03-13_21h26.42.203,Utility_discrimination_2024_2cat,2024.2.4,Win32,59.52380952,,,,,,,,0,"[0.5,0.5]","[1,0]",d,"[0.5555204202744736,0.6339448259363278]","[0.44447957972552643,0.36605517406367216]",441.3665,443.9308,1,d,1,1.0374,,-0.76219102,-0.505808765,0.256382255,443.9322,443.9322,0,158,158,158,1,0.144961933,0.144961933,shape_difference3,1,,TRUE,,intensity,0.1,0.05,0.7,0.3,0.82,20,400,1E-11,3.5,0.01,0.5,0.1,,,,,,,,,,,,,,,,,,,,,,,,,,,,,,,,,,,,,,,,,,,,,,,,,,,,,,,,,,,,,,,,,,,,,,,,,,,,,,,,,
,,,,,838091,001,2025-03-13_21h26.42.203,Utility_discrimination_2024_2cat,2024.2.4,Win32,59.52380952,,,,,,,,2,"[0.5,0.5]","[0.707,0.707]",d,"[-0.12377638668492508,0.5]","[1.123776386684925,0.5]",443.9328,446.4976,1,d,1,1.0373,,0.100151066,0.385283606,0.28513254,446.4998,446.4998,0,159,159,159,1,-0.623776387,-0.623776387,shape_difference0,1,,TRUE,,intensity,0.1,0.05,0.7,0.3,0.82,20,400,1E-11,3.5,0.01,0.5,0.1,,,,,,,,,,,,,,,,,,,,,,,,,,,,,,,,,,,,,,,,,,,,,,,,,,,,,,,,,,,,,,,,,,,,,,,,,,,,,,,,,
,,,,,838091,001,2025-03-13_21h26.42.203,Utility_discrimination_2024_2cat,2024.2.4,Win32,59.52380952,,,,,,,,4,"[0.5,0.5]","[0,1]",d,"[0.6377559492523045,0.6377559492523045]","[0.3622440507476955,0.3622440507476955]",446.5003,449.2476,1,s,1,1.22,,0.106461948,0.297591257,0.191129309,449.2498,449.2498,0,160,160,160,1,0.194845756,0.194845756,shape_difference2,1,,TRUE,,intensity,0.1,0.05,0.7,0.3,0.82,20,400,1E-11,3.5,0.01,0.5,0.1,,,,,,,,,,,,,,,,,,,,,,,,,,,,,,,,,,,,,,,,,,,,,,,,,,,,,,,,,,,,,,,,,,,,,,,,,,,,,,,,,
,,,,,838091,001,2025-03-13_21h26.42.203,Utility_discrimination_2024_2cat,2024.2.4,Win32,59.52380952,,,,,,,,0,"[0.5,0.5]","[1,0]",s,"[0.5,0.6884807643896493]","[0.5,0.3115192356103506]",449.2507,451.8643,1,d,1,1.0672,,-0.768505693,-0.511688165,0.256817528,451.8661,451.8661,0,161,161,161,1,0.188480764,0.188480764,shape_difference4,1,,TRUE,,intensity,0.1,0.05,0.7,0.3,0.82,20,400,1E-11,3.5,0.01,0.5,0.1,,,,,,,,,,,,,,,,,,,,,,,,,,,,,,,,,,,,,,,,,,,,,,,,,,,,,,,,,,,,,,,,,,,,,,,,,,,,,,,,,
,,,,,838091,001,2025-03-13_21h26.42.203,Utility_discrimination_2024_2cat,2024.2.4,Win32,59.52380952,,,,,,,,1,"[0.5,0.5]","[0.924,0.383]",d,"[-0.12987369169945573,0.5]","[1.1298736916994558,0.5]",451.8665,454.4004,1,s,1,1.0006,,0.201009921,0.48208573,0.281075809,454.4021,454.4021,0,162,162,162,1,-0.629873692,-0.629873692,shape_difference0,1,,TRUE,,intensity,0.1,0.05,0.7,0.3,0.82,20,400,1E-11,3.5,0.01,0.5,0.1,,,,,,,,,,,,,,,,,,,,,,,,,,,,,,,,,,,,,,,,,,,,,,,,,,,,,,,,,,,,,,,,,,,,,,,,,,,,,,,,,
,,,,,838091,001,2025-03-13_21h26.42.203,Utility_discrimination_2024_2cat,2024.2.4,Win32,59.52380952,,,,,,,,3,"[0.5,0.5]","[0.383,0.924]",s,"[0.775229671499327,0.6140832945716908]","[0.22477032850067308,0.3859167054283093]",454.4026,456.831,1,d,1,0.8855,,0.010952503,0.272904944,0.261952441,456.833,456.833,0,163,163,163,1,0.29786761,0.29786761,shape_difference1,1,,TRUE,,intensity,0.1,0.05,0.7,0.3,0.82,20,400,1E-11,3.5,0.01,0.5,0.1,,,,,,,,,,,,,,,,,,,,,,,,,,,,,,,,,,,,,,,,,,,,,,,,,,,,,,,,,,,,,,,,,,,,,,,,,,,,,,,,,
,,,,,838091,001,2025-03-13_21h26.42.203,Utility_discrimination_2024_2cat,2024.2.4,Win32,59.52380952,,,,,,,,0,"[0.5,0.5]","[1,0]",d,"[0.5520290496450003,0.6255217803445963]","[0.4479709503549996,0.3744782196554038]",456.8336,459.3312,1,d,1,0.9564,,-0.773492936,-0.51817905,0.255313885,459.3332,459.3332,0,164,164,164,1,0.135846083,0.135846083,shape_difference3,1,,TRUE,,intensity,0.1,0.05,0.7,0.3,0.82,20,400,1E-11,3.5,0.01,0.5,0.1,,,,,,,,,,,,,,,,,,,,,,,,,,,,,,,,,,,,,,,,,,,,,,,,,,,,,,,,,,,,,,,,,,,,,,,,,,,,,,,,,
,,,,,838091,001,2025-03-13_21h26.42.203,Utility_discrimination_2024_2cat,2024.2.4,Win32,59.52380952,,,,,,,,2,"[0.5,0.5]","[0.707,0.707]",d,"[-0.13526879164198824,0.5]","[1.1352687916419884,0.5]",459.3338,462.2979,1,d,1,1.4239,,0.081920766,0.359402217,0.27748145,462.2994,462.2994,0,165,165,165,1,-0.635268792,-0.635268792,shape_difference0,1,,TRUE,,intensity,0.1,0.05,0.7,0.3,0.82,20,400,1E-11,3.5,0.01,0.5,0.1,,,,,,,,,,,,,,,,,,,,,,,,,,,,,,,,,,,,,,,,,,,,,,,,,,,,,,,,,,,,,,,,,,,,,,,,,,,,,,,,,
,,,,,838091,001,2025-03-13_21h26.42.203,Utility_discrimination_2024_2cat,2024.2.4,Win32,59.52380952,,,,,,,,1,"[0.5,0.5]","[0.924,0.383]",d,"[0.6316274231619541,0.6316274231619541]","[0.3683725768380459,0.3683725768380459]",462.3002,465.5149,1,s,1,1.6717,,0.190383471,0.458523522,0.268140051,465.5168,465.5168,0,166,166,166,1,0.186177402,0.186177402,shape_difference2,1,,TRUE,,intensity,0.1,0.05,0.7,0.3,0.82,20,400,1E-11,3.5,0.01,0.5,0.1,,,,,,,,,,,,,,,,,,,,,,,,,,,,,,,,,,,,,,,,,,,,,,,,,,,,,,,,,,,,,,,,,,,,,,,,,,,,,,,,,
,,,,,838091,001,2025-03-13_21h26.42.203,Utility_discrimination_2024_2cat,2024.2.4,Win32,59.52380952,,,,,,,,4,"[0.5,0.5]","[0,1]",s,"[0.7668185914717905,0.610596883694476]","[0.23318140852820946,0.38940311630552404]",465.5172,468.0813,1,d,1,1.0179,,0.105833433,0.293198365,0.187364932,468.0841,468.0841,0,167,167,167,1,0.288764709,0.288764709,shape_difference1,1,,TRUE,,intensity,0.1,0.05,0.7,0.3,0.82,20,400,1E-11,3.5,0.01,0.5,0.1,,,,,,,,,,,,,,,,,,,,,,,,,,,,,,,,,,,,,,,,,,,,,,,,,,,,,,,,,,,,,,,,,,,,,,,,,,,,,,,,,
,,,,,838091,001,2025-03-13_21h26.42.203,Utility_discrimination_2024_2cat,2024.2.4,Win32,59.52380952,,,,,,,,3,"[0.5,0.5]","[0.383,0.924]",d,"[0.5,0.6829534713003511]","[0.5,0.3170465286996489]",468.0847,470.9314,1,d,1,1.3011,,0.009517496,0.257533693,0.248016197,470.9333,470.9333,0,168,168,168,1,0.182953471,0.182953471,shape_difference4,1,,TRUE,,intensity,0.1,0.05,0.7,0.3,0.82,20,400,1E-11,3.5,0.01,0.5,0.1,,,,,,,,,,,,,,,,,,,,,,,,,,,,,,,,,,,,,,,,,,,,,,,,,,,,,,,,,,,,,,,,,,,,,,,,,,,,,,,,,
,,,,,838091,001,2025-03-13_21h26.42.203,Utility_discrimination_2024_2cat,2024.2.4,Win32,59.52380952,,,,,,,,2,"[0.5,0.5]","[0.707,0.707]",d,"[0.5482152726526455,0.6163209188800114]","[0.4517847273473546,0.3836790811199886]",470.9341,473.698,0,s,0,1.2343,,0.067021813,0.326530426,0.259508613,473.6999,473.6999,0,169,169,169,1,0.12588844,0.12588844,shape_difference3,1,,TRUE,,intensity,0.1,0.05,0.7,0.3,0.82,20,400,1E-11,3.5,0.01,0.5,0.1,,,,,,,,,,,,,,,,,,,,,,,,,,,,,,,,,,,,,,,,,,,,,,,,,,,,,,,,,,,,,,,,,,,,,,,,,,,,,,,,,
,,,,,838091,001,2025-03-13_21h26.42.203,Utility_discrimination_2024_2cat,2024.2.4,Win32,59.52380952,,,,,,,,1,"[0.5,0.5]","[0.924,0.383]",d,"[0.6267451428199808,0.6267451428199808]","[0.37325485718001916,0.37325485718001916]",473.7008,476.8817,1,s,1,1.647,,0.173654887,0.428506114,0.254851227,476.8836,476.8836,0,170,170,170,1,0.179271772,0.179271772,shape_difference2,1,,TRUE,,intensity,0.1,0.05,0.7,0.3,0.82,20,400,1E-11,3.5,0.01,0.5,0.1,,,,,,,,,,,,,,,,,,,,,,,,,,,,,,,,,,,,,,,,,,,,,,,,,,,,,,,,,,,,,,,,,,,,,,,,,,,,,,,,,
,,,,,838091,001,2025-03-13_21h26.42.203,Utility_discrimination_2024_2cat,2024.2.4,Win32,59.52380952,,,,,,,,3,"[0.5,0.5]","[0.383,0.924]",s,"[0.760115345233159,0.6078183736193722]","[0.239884654766841,0.3921816263806278]",476.8839,483.3316,1,s,1,4.9274,,0.014955114,0.285477439,0.270522326,483.3345,483.3345,0,171,171,171,1,0.281510114,0.281510114,shape_difference1,1,,TRUE,,intensity,0.1,0.05,0.7,0.3,0.82,20,400,1E-11,3.5,0.01,0.5,0.1,,,,,,,,,,,,,,,,,,,,,,,,,,,,,,,,,,,,,,,,,,,,,,,,,,,,,,,,,,,,,,,,,,,,,,,,,,,,,,,,,
,,,,,838091,001,2025-03-13_21h26.42.203,Utility_discrimination_2024_2cat,2024.2.4,Win32,59.52380952,,,,,,,,4,"[0.5,0.5]","[0,1]",s,"[0.5574789133358714,0.6386697543664366]","[0.44252108666412854,0.3613302456335634]",483.3349,486.0483,0,s,0,1.1698,,0.105268258,0.288669015,0.183400757,486.0496,486.0496,0,172,172,172,1,0.150075492,0.150075492,shape_difference3,1,,TRUE,,intensity,0.1,0.05,0.7,0.3,0.82,20,400,1E-11,3.5,0.01,0.5,0.1,,,,,,,,,,,,,,,,,,,,,,,,,,,,,,,,,,,,,,,,,,,,,,,,,,,,,,,,,,,,,,,,,,,,,,,,,,,,,,,,,
,,,,,838091,001,2025-03-13_21h26.42.203,Utility_discrimination_2024_2cat,2024.2.4,Win32,59.52380952,,,,,,,,0,"[0.5,0.5]","[1,0]",d,"[0.5,0.6784637217083557]","[0.5,0.32153627829164433]",486.0501,488.9485,1,d,1,1.3511,,-0.777483292,-0.525595823,0.251887468,488.9512,488.9512,0,173,173,173,1,0.178463722,0.178463722,shape_difference4,1,,TRUE,,intensity,0.1,0.05,0.7,0.3,0.82,20,400,1E-11,3.5,0.01,0.5,0.1,,,,,,,,,,,,,,,,,,,,,,,,,,,,,,,,,,,,,,,,,,,,,,,,,,,,,,,,,,,,,,,,,,,,,,,,,,,,,,,,,
,,,,,838091,001,2025-03-13_21h26.42.203,Utility_discrimination_2024_2cat,2024.2.4,Win32,59.52380952,,,,,,,,3,"[0.5,0.5]","[0.383,0.924]",d,"[-0.14018225923932592,0.5]","[1.1401822592393258,0.5]",488.9517,491.582,1,d,1,1.0891,,0.046745998,0.365185493,0.318439495,491.5843,491.5843,0,174,174,174,1,-0.640182259,-0.640182259,shape_difference0,1,,TRUE,,intensity,0.1,0.05,0.7,0.3,0.82,20,400,1E-11,3.5,0.01,0.5,0.1,,,,,,,,,,,,,,,,,,,,,,,,,,,,,,,,,,,,,,,,,,,,,,,,,,,,,,,,,,,,,,,,,,,,,,,,,,,,,,,,,
,,,,,838091,001,2025-03-13_21h26.42.203,Utility_discrimination_2024_2cat,2024.2.4,Win32,59.52380952,,,,,,,,1,"[0.5,0.5]","[0.924,0.383]",d,"[0.5703034454023188,0.6696093565319648]","[0.42969655459768125,0.33039064346803515]",491.5847,494.6182,0,s,0,1.5005,,0.160873738,0.398150806,0.237277068,494.6205,494.6205,0,175,175,175,1,0.18355991,0.18355991,shape_difference3,1,,TRUE,,intensity,0.1,0.05,0.7,0.3,0.82,20,400,1E-11,3.5,0.01,0.5,0.1,,,,,,,,,,,,,,,,,,,,,,,,,,,,,,,,,,,,,,,,,,,,,,,,,,,,,,,,,,,,,,,,,,,,,,,,,,,,,,,,,
,,,,,838091,001,2025-03-13_21h26.42.203,Utility_discrimination_2024_2cat,2024.2.4,Win32,59.52380952,,,,,,,,4,"[0.5,0.5]","[0,1]",d,"[0.7546682351500549,0.605560534699644]","[0.24533176484994512,0.39443946530035606]",494.621,497.0321,1,s,1,0.8812,,0.104744087,0.283851594,0.179107507,497.0338,497.0339,0,176,176,176,1,0.275614973,0.275614973,shape_difference1,1,,TRUE,,intensity,0.1,0.05,0.7,0.3,0.82,20,400,1E-11,3.5,0.01,0.5,0.1,,,,,,,,,,,,,,,,,,,,,,,,,,,,,,,,,,,,,,,,,,,,,,,,,,,,,,,,,,,,,,,,,,,,,,,,,,,,,,,,,
,,,,,838091,001,2025-03-13_21h26.42.203,Utility_discrimination_2024_2cat,2024.2.4,Win32,59.52380952,,,,,,,,2,"[0.5,0.5]","[0.707,0.707]",s,"[0.5,0.6747927301685251]","[0.5,0.32520726983147485]",497.0342,499.5656,1,d,1,1.0011,,0.055612523,0.297180932,0.241568409,499.5684,499.5685,0,177,177,177,1,0.17479273,0.17479273,shape_difference4,1,,TRUE,,intensity,0.1,0.05,0.7,0.3,0.82,20,400,1E-11,3.5,0.01,0.5,0.1,,,,,,,,,,,,,,,,,,,,,,,,,,,,,,,,,,,,,,,,,,,,,,,,,,,,,,,,,,,,,,,,,,,,,,,,,,,,,,,,,
,,,,,838091,001,2025-03-13_21h26.42.203,Utility_discrimination_2024_2cat,2024.2.4,Win32,59.52380952,,,,,,,,0,"[0.5,0.5]","[1,0]",d,"[0.6227707057161345,0.6227707057161345]","[0.3772292942838655,0.3772292942838655]",499.5689,501.9989,1,s,1,0.8879,,-0.780715175,-0.534326791,0.246388384,502.0007,502.0007,0,178,178,178,1,0.17365022,0.17365022,shape_difference2,1,,TRUE,,intensity,0.1,0.05,0.7,0.3,0.82,20,400,1E-11,3.5,0.01,0.5,0.1,,,,,,,,,,,,,,,,,,,,,,,,,,,,,,,,,,,,,,,,,,,,,,,,,,,,,,,,,,,,,,,,,,,,,,,,,,,,,,,,,
,,,,,838091,001,2025-03-13_21h26.42.203,Utility_discrimination_2024_2cat,2024.2.4,Win32,59.52380952,,,,,,,,4,"[0.5,0.5]","[0,1]",s,"[-0.1447977785409934,0.5]","[1.1447977785409935,0.5]",502.0013,504.4989,1,s,1,0.9522,,0.104242145,0.278583919,0.174341774,504.5003,504.5003,0,179,179,179,1,-0.644797779,-0.644797779,shape_difference0,1,,TRUE,,intensity,0.1,0.05,0.7,0.3,0.82,20,400,1E-11,3.5,0.01,0.5,0.1,,,,,,,,,,,,,,,,,,,,,,,,,,,,,,,,,,,,,,,,,,,,,,,,,,,,,,,,,,,,,,,,,,,,,,,,,,,,,,,,,
,,,,,838091,001,2025-03-13_21h26.42.203,Utility_discrimination_2024_2cat,2024.2.4,Win32,59.52380952,,,,,,,,2,"[0.5,0.5]","[0.707,0.707]",s,"[0.5,0.6717706175782936]","[0.5,0.32822938242170635]",504.5011,506.8658,1,d,1,0.8312,,0.046722352,0.289019416,0.242297065,506.8677,506.8677,0,180,180,180,1,0.171770618,0.171770618,shape_difference4,1,,TRUE,,intensity,0.1,0.05,0.7,0.3,0.82,20,400,1E-11,3.5,0.01,0.5,0.1,,,,,,,,,,,,,,,,,,,,,,,,,,,,,,,,,,,,,,,,,,,,,,,,,,,,,,,,,,,,,,,,,,,,,,,,,,,,,,,,,
,,,,,838091,001,2025-03-13_21h26.42.203,Utility_discrimination_2024_2cat,2024.2.4,Win32,59.52380952,,,,,,,,0,"[0.5,0.5]","[1,0]",d,"[0.6194555714840477,0.6194555714840477]","[0.3805444285159523,0.3805444285159523]",506.8681,509.701,1,s,1,1.2961,,-0.783362714,-0.544863503,0.238499211,509.7029,509.703,0,181,181,181,1,0.168961204,0.168961204,shape_difference2,1,,TRUE,,intensity,0.1,0.05,0.7,0.3,0.82,20,400,1E-11,3.5,0.01,0.5,0.1,,,,,,,,,,,,,,,,,,,,,,,,,,,,,,,,,,,,,,,,,,,,,,,,,,,,,,,,,,,,,,,,,,,,,,,,,,,,,,,,,
,,,,,838091,001,2025-03-13_21h26.42.203,Utility_discrimination_2024_2cat,2024.2.4,Win32,59.52380952,,,,,,,,1,"[0.5,0.5]","[0.924,0.383]",s,"[-0.14927313812671772,0.5]","[1.1492731381267176,0.5]",509.7035,512.099,1,d,1,0.8506,,0.150942042,0.390597439,0.239655396,512.1013,512.1013,0,182,182,182,1,-0.649273138,-0.649273138,shape_difference0,1,,TRUE,,intensity,0.1,0.05,0.7,0.3,0.82,20,400,1E-11,3.5,0.01,0.5,0.1,,,,,,,,,,,,,,,,,,,,,,,,,,,,,,,,,,,,,,,,,,,,,,,,,,,,,,,,,,,,,,,,,,,,,,,,,,,,,,,,,
,,,,,838091,001,2025-03-13_21h26.42.203,Utility_discrimination_2024_2cat,2024.2.4,Win32,59.52380952,,,,,,,,3,"[0.5,0.5]","[0.383,0.924]",d,"[0.7501436593341864,0.6036850882305123]","[0.24985634066581364,0.3963149117694877]",512.1018,514.3491,1,s,1,0.7026,,0.105108499,0.43966555,0.334557051,514.3513,514.3513,0,183,183,183,1,0.270718246,0.270718246,shape_difference1,1,,TRUE,,intensity,0.1,0.05,0.7,0.3,0.82,20,400,1E-11,3.5,0.01,0.5,0.1,,,,,,,,,,,,,,,,,,,,,,,,,,,,,,,,,,,,,,,,,,,,,,,,,,,,,,,,,,,,,,,,,,,,,,,,,,,,,,,,,
,,,,,838091,001,2025-03-13_21h26.42.203,Utility_discrimination_2024_2cat,2024.2.4,Win32,59.52380952,,,,,,,,3,"[0.5,0.5]","[0.383,0.924]",s,"[0.587069243479635,0.7100573915801114]","[0.4129307565203651,0.2899426084198886]",514.3518,516.6991,0,s,0,0.8071,,0.113930922,0.503025769,0.389094847,516.7014,516.7015,0,184,184,184,1,0.227334839,0.227334839,shape_difference3,1,,TRUE,,intensity,0.1,0.05,0.7,0.3,0.82,20,400,1E-11,3.5,0.01,0.5,0.1,,,,,,,,,,,,,,,,,,,,,,,,,,,,,,,,,,,,,,,,,,,,,,,,,,,,,,,,,,,,,,,,,,,,,,,,,,,,,,,,,
,,,,,838091,001,2025-03-13_21h26.42.203,Utility_discrimination_2024_2cat,2024.2.4,Win32,59.52380952,,,,,,,,1,"[0.5,0.5]","[0.924,0.383]",d,"[0.6021294549712726,0.7463906433249501]","[0.39787054502872743,0.2536093566750499]",516.702,519.2325,1,d,1,1.0038,,0.143105726,0.382646516,0.239540791,519.2344,519.2344,0,185,185,185,1,0.26665654,0.26665654,shape_difference3,1,,TRUE,,intensity,0.1,0.05,0.7,0.3,0.82,20,400,1E-11,3.5,0.01,0.5,0.1,,,,,,,,,,,,,,,,,,,,,,,,,,,,,,,,,,,,,,,,,,,,,,,,,,,,,,,,,,,,,,,,,,,,,,,,,,,,,,,,,
,,,,,838091,001,2025-03-13_21h26.42.203,Utility_discrimination_2024_2cat,2024.2.4,Win32,59.52380952,,,,,,,,0,"[0.5,0.5]","[1,0]",d,"[0.7462907585705281,0.6020880525243639]","[0.25370924142947193,0.3979119474756361]",519.235,522.5327,1,s,1,1.7507,,-0.78555469,-0.557839793,0.227714897,522.5345,522.5346,0,186,186,186,1,0.26654844,0.26654844,shape_difference1,1,,TRUE,,intensity,0.1,0.05,0.7,0.3,0.82,20,400,1E-11,3.5,0.01,0.5,0.1,,,,,,,,,,,,,,,,,,,,,,,,,,,,,,,,,,,,,,,,,,,,,,,,,,,,,,,,,,,,,,,,,,,,,,,,,,,,,,,,,
,,,,,838091,001,2025-03-13_21h26.42.203,Utility_discrimination_2024_2cat,2024.2.4,Win32,59.52380952,,,,,,,,4,"[0.5,0.5]","[0,1]",s,"[-0.15374868315511347,0.5]","[1.1537486831551136,0.5]",522.5352,525.1827,1,d,1,1.1086,,0.103746092,0.272686727,0.168940635,525.1843,525.1843,0,187,187,187,1,-0.653748683,-0.653748683,shape_difference0,1,,TRUE,,intensity,0.1,0.05,0.7,0.3,0.82,20,400,1E-11,3.5,0.01,0.5,0.1,,,,,,,,,,,,,,,,,,,,,,,,,,,,,,,,,,,,,,,,,,,,,,,,,,,,,,,,,,,,,,,,,,,,,,,,,,,,,,,,,
,,,,,838091,001,2025-03-13_21h26.42.203,Utility_discrimination_2024_2cat,2024.2.4,Win32,59.52380952,,,,,,,,2,"[0.5,0.5]","[0.707,0.707]",d,"[0.5,0.6692641405879414]","[0.5,0.33073585941205863]",525.1848,528.3827,1,d,1,1.6792,,0.039686666,0.280396605,0.240709939,528.3843,528.3843,0,188,188,188,1,0.169264141,0.169264141,shape_difference4,1,,TRUE,,intensity,0.1,0.05,0.7,0.3,0.82,20,400,1E-11,3.5,0.01,0.5,0.1,,,,,,,,,,,,,,,,,,,,,,,,,,,,,,,,,,,,,,,,,,,,,,,,,,,,,,,,,,,,,,,,,,,,,,,,,,,,,,,,,
,,,,,838091,001,2025-03-13_21h26.42.203,Utility_discrimination_2024_2cat,2024.2.4,Win32,59.52380952,,,,,,,,2,"[0.5,0.5]","[0.707,0.707]",d,"[0.6166135987789587,0.6166135987789587]","[0.3833864012210413,0.3833864012210413]",528.385,531.5674,1,s,1,1.6392,,0.034041915,0.270921088,0.236879172,531.5719,531.5719,0,189,189,189,1,0.164941441,0.164941441,shape_difference2,1,,TRUE,,intensity,0.1,0.05,0.7,0.3,0.82,20,400,1E-11,3.5,0.01,0.5,0.1,,,,,,,,,,,,,,,,,,,,,,,,,,,,,,,,,,,,,,,,,,,,,,,,,,,,,,,,,,,,,,,,,,,,,,,,,,,,,,,,,
,,,,,838091,001,2025-03-13_21h26.42.203,Utility_discrimination_2024_2cat,2024.2.4,Win32,59.52380952,,,,,,,,3,"[0.5,0.5]","[0.383,0.924]",s,"[0.6141021316533503,0.6141021316533503]","[0.38589786834664974,0.38589786834664974]",531.5731,534.1328,1,s,1,1.0293,,0.111616815,0.464451696,0.352834881,534.1345,534.1345,0,190,190,190,1,0.161389154,0.161389154,shape_difference2,1,,TRUE,,intensity,0.1,0.05,0.7,0.3,0.82,20,400,1E-11,3.5,0.01,0.5,0.1,,,,,,,,,,,,,,,,,,,,,,,,,,,,,,,,,,,,,,,,,,,,,,,,,,,,,,,,,,,,,,,,,,,,,,,,,,,,,,,,,
,,,,,838091,001,2025-03-13_21h26.42.203,Utility_discrimination_2024_2cat,2024.2.4,Win32,59.52380952,,,,,,,,4,"[0.5,0.5]","[0,1]",s,"[0.5965024107646277,0.7328152155261516]","[0.40349758923537227,0.26718478447384847]",534.1349,537.7831,1,s,1,2.101,,0.103241154,0.265956446,0.162715292,537.7858,537.7859,0,191,191,191,1,0.251964519,0.251964519,shape_difference3,1,,TRUE,,intensity,0.1,0.05,0.7,0.3,0.82,20,400,1E-11,3.5,0.01,0.5,0.1,,,,,,,,,,,,,,,,,,,,,,,,,,,,,,,,,,,,,,,,,,,,,,,,,,,,,,,,,,,,,,,,,,,,,,,,,,,,,,,,,
