Consent.started,Consent.stopped,key_resp.keys,key_resp.rt,key_resp.duration,participant,session,date,expName,psychopyVersion,OS,frameRate,SetupExperiment.started,SetupExperiment.stopped,DiscrimInstructions_Pre.started,DiscrimInstructions_Pre.stopped,KeyboardResponse.keys,KeyboardResponse.rt,KeyboardResponse.duration,feature_index,feature_center,feature_vector,correct_answer,coord1,coord2,DiscriminationTrial.started,DiscriminationTrial.stopped,PreTest.response,Resp_s_or_d.keys,Resp_s_or_d.corr,Resp_s_or_d.rt,Resp_s_or_d.duration,PreTest.CI_lower,PreTest.CI_upper,PreTest.CI_width,CrashPretest_2.started,CrashPretest_2.stopped,PreTest.thisRepN,PreTest.thisTrialN,PreTest.thisN,PreTest.thisIndex,PreTest.ran,PreTest.intensity,intensity,PreTest.label,PreTest.nReps,PreTest.method,PreTest.autoLog,PreTest.seed,PreTest.varName,PreTest.startVal,PreTest.minVal,PreTest.maxVal,PreTest.startValSd,PreTest.pThreshold,PreTest.nTrials,PreTest.maxTrials,PreTest.stopInterval,PreTest.beta,PreTest.delta,PreTest.gamma,PreTest.grain,WelcomeToCategorizationTask.started,WelcomeToCategorizationTask.stopped,PressAnyKey3.keys,PressAnyKey3.rt,PressAnyKey3.duration,shape_coordinates,category_center,category_sigma,subspace_center,subspace_vector1,subspace_vector2,CategorizationTrial.started,CategorizationTrial.stopped,Respond_1or2.keys,Respond_1or2.rt,Respond_1or2.duration,Feedback.started,Feedback.stopped,xcoord,ycoord,shape_coord,numeric_response_minus1,correctness,truecategory,mixture_index,respAifA,respBifA,respAifB,respBifB,trial_number,D,muAx,muAy,muBx,muBy,sigmaA,sigmaB,priorA,priorB,TrialLoop.thisRepN,TrialLoop.thisTrialN,TrialLoop.thisN,TrialLoop.thisIndex,TrialLoop.ran,DiscriminationInstructions_Post.started,DiscriminationInstructions_Post.stopped,key_resp_2.keys,key_resp_2.rt,key_resp_2.duration,PostTest.response,PostTest.CI_lower,PostTest.CI_upper,PostTest.CI_width,CrashPosttest.started,CrashPosttest.stopped,PostTest.thisRepN,PostTest.thisTrialN,PostTest.thisN,PostTest.thisIndex,PostTest.ran,PostTest.intensity,PostTest.label,PostTest.nReps,PostTest.method,PostTest.autoLog,PostTest.seed,PostTest.varName,PostTest.startVal,PostTest.minVal,PostTest.maxVal,PostTest.startValSd,PostTest.pThreshold,PostTest.nTrials,PostTest.maxTrials,PostTest.stopInterval,PostTest.beta,PostTest.delta,PostTest.gamma,PostTest.grain,Thanks.started,Thanks.stopped
0.0002,11.9917,y,11.9664,,848799,001,2025-03-12_13h57.25.042,Utility_discrimination_2024_2cat,2024.2.4,Win32,59.52380952,,,,,,,,,,,,,,,,,,,,,,,,,,,,,,,,,,,,,,,,,,,,,,,,,,,,,,,,,,,,,,,,,,,,,,,,,,,,,,,,,,,,,,,,,,,,,,,,,,,,,,,,,,,,,,,,,,,,,,,,,,,,,,,,,,,
,,,,,848799,001,2025-03-12_13h57.25.042,Utility_discrimination_2024_2cat,2024.2.4,Win32,59.52380952,11.9921,11.9924,,,,,,,,,,,,,,,,,,,,,,,,,,,,,,,,,,,,,,,,,,,,,,,,,,,,,,,,,,,,,,,,,,,,,,,,,,,,,,,,,,,,,,,,,,,,,,,,,,,,,,,,,,,,,,,,,,,,,,,,,,,,,,,,,
,,,,,848799,001,2025-03-12_13h57.25.042,Utility_discrimination_2024_2cat,2024.2.4,Win32,59.52380952,,,11.9924,41.4488,s,29.4099,,,,,,,,,,,,,,,,,,,,,,,,,,,,,,,,,,,,,,,,,,,,,,,,,,,,,,,,,,,,,,,,,,,,,,,,,,,,,,,,,,,,,,,,,,,,,,,,,,,,,,,,,,,,,,,,,,,,,,,,,,,,,
,,,,,848799,001,2025-03-12_13h57.25.042,Utility_discrimination_2024_2cat,2024.2.4,Win32,59.52380952,,,,,,,,1,"[0.5,0.5]","[0.924,0.383]",,"[0.6185239449756466,0.5]","[0.3814760550243534,0.5]",41.4804,44.7467,1,s,1,1.7482,,-0.447967632,0.547967632,0.995935263,44.7528,44.7531,0,0,0,0,1,0.118523945,0.118523945,shape_difference2,1,,TRUE,,intensity,0.1,4.94066E-324,1.79769E+308,0.3,0.82,20,400,0.25,1,0.01,0.5,0.1,,,,,,,,,,,,,,,,,,,,,,,,,,,,,,,,,,,,,,,,,,,,,,,,,,,,,,,,,,,,,,,,,,,,,,,,,,,,,,,,,
,,,,,848799,001,2025-03-12_13h57.25.042,Utility_discrimination_2024_2cat,2024.2.4,Win32,59.52380952,,,,,,,,0,"[0.5,0.5]","[1,0]",s,"[0.6095161251574974,0.5453946709256726]","[0.3904838748425025,0.4546053290743273]",44.7564,47.3428,1,s,1,1.071,,-0.447967632,0.547967632,0.995935263,47.345,47.3451,0,1,1,1,1,0.118523945,0.118523945,shape_difference1,1,,TRUE,,intensity,0.1,4.94066E-324,1.79769E+308,0.3,0.82,20,400,0.25,1,0.01,0.5,0.1,,,,,,,,,,,,,,,,,,,,,,,,,,,,,,,,,,,,,,,,,,,,,,,,,,,,,,,,,,,,,,,,,,,,,,,,,,,,,,,,,
,,,,,848799,001,2025-03-12_13h57.25.042,Utility_discrimination_2024_2cat,2024.2.4,Win32,59.52380952,,,,,,,,3,"[0.5,0.5]","[0.383,0.924]",s,"[0.6185239449756466,0.5]","[0.3814760550243534,0.5]",47.3463,49.8753,1,s,1,1.0114,,-0.447967632,0.547967632,0.995935263,49.8786,49.8787,0,2,2,2,1,0.118523945,0.118523945,shape_difference0,1,,TRUE,,intensity,0.1,4.94066E-324,1.79769E+308,0.3,0.82,20,400,0.25,1,0.01,0.5,0.1,,,,,,,,,,,,,,,,,,,,,,,,,,,,,,,,,,,,,,,,,,,,,,,,,,,,,,,,,,,,,,,,,,,,,,,,,,,,,,,,,
,,,,,848799,001,2025-03-12_13h57.25.042,Utility_discrimination_2024_2cat,2024.2.4,Win32,59.52380952,,,,,,,,4,"[0.5,0.5]","[0,1]",s,"[0.5453946709256726,0.6095161251574974]","[0.4546053290743273,0.3904838748425025]",49.8802,52.2388,1,s,1,0.8419,,-0.447967632,0.547967632,0.995935263,52.2423,52.2425,0,3,3,3,1,0.118523945,0.118523945,shape_difference3,1,,TRUE,,intensity,0.1,4.94066E-324,1.79769E+308,0.3,0.82,20,400,0.25,1,0.01,0.5,0.1,,,,,,,,,,,,,,,,,,,,,,,,,,,,,,,,,,,,,,,,,,,,,,,,,,,,,,,,,,,,,,,,,,,,,,,,,,,,,,,,,
,,,,,848799,001,2025-03-12_13h57.25.042,Utility_discrimination_2024_2cat,2024.2.4,Win32,59.52380952,,,,,,,,2,"[0.5,0.5]","[0.707,0.707]",s,"[0.5,0.6185239449756466]","[0.5,0.3814760550243534]",52.244,54.6201,0,s,0,0.86,,-0.474094002,0.500085323,0.974179326,54.6238,54.6238,0,4,4,4,1,0.118523945,0.118523945,shape_difference4,1,,TRUE,,intensity,0.1,4.94066E-324,1.79769E+308,0.3,0.82,20,400,0.25,1,0.01,0.5,0.1,,,,,,,,,,,,,,,,,,,,,,,,,,,,,,,,,,,,,,,,,,,,,,,,,,,,,,,,,,,,,,,,,,,,,,,,,,,,,,,,,
,,,,,848799,001,2025-03-12_13h57.25.042,Utility_discrimination_2024_2cat,2024.2.4,Win32,59.52380952,,,,,,,,0,"[0.5,0.5]","[1,0]",d,"[0.554906921598992,0.554906921598992]","[0.445093078401008,0.445093078401008]",54.6261,56.9351,1,s,1,0.7909,,-0.474094002,0.500085323,0.974179326,56.9389,56.9389,0,5,5,5,1,0.077661841,0.077661841,shape_difference2,1,,TRUE,,intensity,0.1,4.94066E-324,1.79769E+308,0.3,0.82,20,400,0.25,1,0.01,0.5,0.1,,,,,,,,,,,,,,,,,,,,,,,,,,,,,,,,,,,,,,,,,,,,,,,,,,,,,,,,,,,,,,,,,,,,,,,,,,,,,,,,,
,,,,,848799,001,2025-03-12_13h57.25.042,Utility_discrimination_2024_2cat,2024.2.4,Win32,59.52380952,,,,,,,,3,"[0.5,0.5]","[0.383,0.924]",s,"[0.5776618410169618,0.5]","[0.42233815898303817,0.5]",56.9404,59.083,0,s,0,0.6174,,-0.474094002,0.500085323,0.974179326,59.0869,59.087,0,6,6,6,1,0.077661841,0.077661841,shape_difference0,1,,TRUE,,intensity,0.1,4.94066E-324,1.79769E+308,0.3,0.82,20,400,0.25,1,0.01,0.5,0.1,,,,,,,,,,,,,,,,,,,,,,,,,,,,,,,,,,,,,,,,,,,,,,,,,,,,,,,,,,,,,,,,,,,,,,,,,,,,,,,,,
,,,,,848799,001,2025-03-12_13h57.25.042,Utility_discrimination_2024_2cat,2024.2.4,Win32,59.52380952,,,,,,,,1,"[0.5,0.5]","[0.924,0.383]",d,"[0.5297444851094963,0.5717595410996728]","[0.4702555148905036,0.42824045890032725]",59.0886,61.0643,0,s,0,0.4485,,-0.474094002,0.500085323,0.974179326,61.0674,61.0674,0,7,7,7,1,0.077661841,0.077661841,shape_difference3,1,,TRUE,,intensity,0.1,4.94066E-324,1.79769E+308,0.3,0.82,20,400,0.25,1,0.01,0.5,0.1,,,,,,,,,,,,,,,,,,,,,,,,,,,,,,,,,,,,,,,,,,,,,,,,,,,,,,,,,,,,,,,,,,,,,,,,,,,,,,,,,
,,,,,848799,001,2025-03-12_13h57.25.042,Utility_discrimination_2024_2cat,2024.2.4,Win32,59.52380952,,,,,,,,4,"[0.5,0.5]","[0,1]",d,"[0.5717595410996728,0.5297444851094963]","[0.42824045890032725,0.4702555148905036]",61.0684,63.23,0,s,0,0.6314,,-0.196113397,0.656240197,0.852353594,63.2353,63.2353,0,8,8,8,1,0.077661841,0.077661841,shape_difference1,1,,TRUE,,intensity,0.1,4.94066E-324,1.79769E+308,0.3,0.82,20,400,0.25,1,0.01,0.5,0.1,,,,,,,,,,,,,,,,,,,,,,,,,,,,,,,,,,,,,,,,,,,,,,,,,,,,,,,,,,,,,,,,,,,,,,,,,,,,,,,,,
,,,,,848799,001,2025-03-12_13h57.25.042,Utility_discrimination_2024_2cat,2024.2.4,Win32,59.52380952,,,,,,,,1,"[0.5,0.5]","[0.924,0.383]",d,"[0.5,0.7709504657207547]","[0.5,0.22904953427924535]",63.237,65.2437,1,s,1,0.492,,-0.226434802,0.620668483,0.847103286,65.2461,65.2463,0,9,9,9,1,0.270950466,0.270950466,shape_difference4,1,,TRUE,,intensity,0.1,4.94066E-324,1.79769E+308,0.3,0.82,20,400,0.25,1,0.01,0.5,0.1,,,,,,,,,,,,,,,,,,,,,,,,,,,,,,,,,,,,,,,,,,,,,,,,,,,,,,,,,,,,,,,,,,,,,,,,,,,,,,,,,
,,,,,848799,001,2025-03-12_13h57.25.042,Utility_discrimination_2024_2cat,2024.2.4,Win32,59.52380952,,,,,,,,4,"[0.5,0.5]","[0,1]",s,"[0.7204639957256678,0.5913828034230852]","[0.2795360042743323,0.4086171965769148]",65.2476,77.117,0,s,0,10.3404,,-0.218711236,0.618342959,0.837054195,77.1198,77.1199,0,10,10,10,1,0.238597398,0.238597398,shape_difference1,1,,TRUE,,intensity,0.1,4.94066E-324,1.79769E+308,0.3,0.82,20,400,0.25,1,0.01,0.5,0.1,,,,,,,,,,,,,,,,,,,,,,,,,,,,,,,,,,,,,,,,,,,,,,,,,,,,,,,,,,,,,,,,,,,,,,,,,,,,,,,,,
,,,,,848799,001,2025-03-12_13h57.25.042,Utility_discrimination_2024_2cat,2024.2.4,Win32,59.52380952,,,,,,,,3,"[0.5,0.5]","[0.383,0.924]",d,"[0.5,0.7407783066401962]","[0.5,0.25922169335980383]",77.1206,79.4983,0,s,0,0.8558,,-0.226434802,0.620668483,0.847103286,79.502,79.5021,0,11,11,11,1,0.240778307,0.240778307,shape_difference4,1,,TRUE,,intensity,0.1,4.94066E-324,1.79769E+308,0.3,0.82,20,400,0.25,1,0.01,0.5,0.1,,,,,,,,,,,,,,,,,,,,,,,,,,,,,,,,,,,,,,,,,,,,,,,,,,,,,,,,,,,,,,,,,,,,,,,,,,,,,,,,,
,,,,,848799,001,2025-03-12_13h57.25.042,Utility_discrimination_2024_2cat,2024.2.4,Win32,59.52380952,,,,,,,,0,"[0.5,0.5]","[1,0]",d,"[0.5913828034230852,0.7204639957256678]","[0.4086171965769148,0.2795360042743323]",79.5037,81.6798,1,s,1,0.6469,,-0.226434802,0.620668483,0.847103286,81.6822,81.6822,0,12,12,12,1,0.238597398,0.238597398,shape_difference3,1,,TRUE,,intensity,0.1,4.94066E-324,1.79769E+308,0.3,0.82,20,400,0.25,1,0.01,0.5,0.1,,,,,,,,,,,,,,,,,,,,,,,,,,,,,,,,,,,,,,,,,,,,,,,,,,,,,,,,,,,,,,,,,,,,,,,,,,,,,,,,,
,,,,,848799,001,2025-03-12_13h57.25.042,Utility_discrimination_2024_2cat,2024.2.4,Win32,59.52380952,,,,,,,,2,"[0.5,0.5]","[0.707,0.707]",s,"[0.7385973979715018,0.5]","[0.2614026020284982,0.5]",81.6836,83.8112,0,s,0,0.5994,,-0.494469577,0.465077661,0.959547238,83.8147,83.8147,0,13,13,13,1,0.238597398,0.238597398,shape_difference0,1,,TRUE,,intensity,0.1,4.94066E-324,1.79769E+308,0.3,0.82,20,400,0.25,1,0.01,0.5,0.1,,,,,,,,,,,,,,,,,,,,,,,,,,,,,,,,,,,,,,,,,,,,,,,,,,,,,,,,,,,,,,,,,,,,,,,,,,,,,,,,,
,,,,,848799,001,2025-03-12_13h57.25.042,Utility_discrimination_2024_2cat,2024.2.4,Win32,59.52380952,,,,,,,,0,"[0.5,0.5]","[1,0]",d,"[0.5280048021033827,0.5280048021033827]","[0.47199519789661726,0.47199519789661726]",83.8159,85.5763,0,s,0,0.2335,,-0.070604444,0.708536856,0.7791413,85.5798,85.5798,0,14,14,14,1,0.039610753,0.039610753,shape_difference2,1,,TRUE,,intensity,0.1,4.94066E-324,1.79769E+308,0.3,0.82,20,400,0.25,1,0.01,0.5,0.1,,,,,,,,,,,,,,,,,,,,,,,,,,,,,,,,,,,,,,,,,,,,,,,,,,,,,,,,,,,,,,,,,,,,,,,,,,,,,,,,,
,,,,,848799,001,2025-03-12_13h57.25.042,Utility_discrimination_2024_2cat,2024.2.4,Win32,59.52380952,,,,,,,,3,"[0.5,0.5]","[0.383,0.924]",d,"[0.8545939054362223,0.5]","[0.14540609456377773,0.5]",85.581,87.6414,1,s,1,0.5323,,-0.250021153,0.585734284,0.835755438,87.6449,87.6449,0,15,15,15,1,0.354593905,0.354593905,shape_difference0,1,,TRUE,,intensity,0.1,4.94066E-324,1.79769E+308,0.3,0.82,20,400,0.25,1,0.01,0.5,0.1,,,,,,,,,,,,,,,,,,,,,,,,,,,,,,,,,,,,,,,,,,,,,,,,,,,,,,,,,,,,,,,,,,,,,,,,,,,,,,,,,
,,,,,848799,001,2025-03-12_13h57.25.042,Utility_discrimination_2024_2cat,2024.2.4,Win32,59.52380952,,,,,,,,4,"[0.5,0.5]","[0,1]",s,"[0.5789087644989971,0.6903699697051523]","[0.4210912355010029,0.3096300302948477]",87.6461,89.6727,0,s,0,0.5086,,-0.067806299,0.703936748,0.771743047,89.6757,89.6758,0,16,16,16,1,0.206028106,0.206028106,shape_difference3,1,,TRUE,,intensity,0.1,4.94066E-324,1.79769E+308,0.3,0.82,20,400,0.25,1,0.01,0.5,0.1,,,,,,,,,,,,,,,,,,,,,,,,,,,,,,,,,,,,,,,,,,,,,,,,,,,,,,,,,,,,,,,,,,,,,,,,,,,,,,,,,
,,,,,848799,001,2025-03-12_13h57.25.042,Utility_discrimination_2024_2cat,2024.2.4,Win32,59.52380952,,,,,,,,2,"[0.5,0.5]","[0.707,0.707]",d,"[0.5,0.8540322515887141]","[0.5,0.1459677484112859]",89.6784,93.7691,0,s,0,2.573,,-0.281923373,0.569663629,0.851587002,93.7721,93.7721,0,17,17,17,1,0.354032252,0.354032252,shape_difference4,1,,TRUE,,intensity,0.1,4.94066E-324,1.79769E+308,0.3,0.82,20,400,0.25,1,0.01,0.5,0.1,,,,,,,,,,,,,,,,,,,,,,,,,,,,,,,,,,,,,,,,,,,,,,,,,,,,,,,,,,,,,,,,,,,,,,,,,,,,,,,,,
,,,,,848799,001,2025-03-12_13h57.25.042,Utility_discrimination_2024_2cat,2024.2.4,Win32,59.52380952,,,,,,,,1,"[0.5,0.5]","[0.924,0.383]",d,"[0.627356846828635,0.627356846828635]","[0.372643153171365,0.372643153171365]",93.7731,95.7677,0,s,0,0.4665,,-0.070604444,0.708536856,0.7791413,95.7709,95.7712,0,18,18,18,1,0.180136983,0.180136983,shape_difference2,1,,TRUE,,intensity,0.1,4.94066E-324,1.79769E+308,0.3,0.82,20,400,0.25,1,0.01,0.5,0.1,,,,,,,,,,,,,,,,,,,,,,,,,,,,,,,,,,,,,,,,,,,,,,,,,,,,,,,,,,,,,,,,,,,,,,,,,,,,,,,,,
,,,,,848799,001,2025-03-12_13h57.25.042,Utility_discrimination_2024_2cat,2024.2.4,Win32,59.52380952,,,,,,,,1,"[0.5,0.5]","[0.924,0.383]",d,"[0.8276447686230695,0.6358094657820731]","[0.1723552313769306,0.3641905342179269]",95.7726,97.6992,1,s,1,0.4031,,-0.083708482,0.681018996,0.764727478,97.7026,97.7026,0,19,19,19,1,0.354593905,0.354593905,shape_difference1,1,,TRUE,,intensity,0.1,4.94066E-324,1.79769E+308,0.3,0.82,20,400,0.25,1,0.01,0.5,0.1,,,,,,,,,,,,,,,,,,,,,,,,,,,,,,,,,,,,,,,,,,,,,,,,,,,,,,,,,,,,,,,,,,,,,,,,,,,,,,,,,
,,,,,848799,001,2025-03-12_13h57.25.042,Utility_discrimination_2024_2cat,2024.2.4,Win32,59.52380952,,,,,,,,3,"[0.5,0.5]","[0.383,0.924]",s,"[0.8037047703895724,0.6258862846961106]","[0.19629522961042756,0.37411371530388937]",97.7036,99.6475,1,s,1,0.4231,,-0.087426668,0.682213734,0.769640402,99.6502,99.6502,0,20,20,20,1,0.328684816,0.328684816,shape_difference1,1,,TRUE,,intensity,0.1,4.94066E-324,1.79769E+308,0.3,0.82,20,400,0.25,1,0.01,0.5,0.1,,,,,,,,,,,,,,,,,,,,,,,,,,,,,,,,,,,,,,,,,,,,,,,,,,,,,,,,,,,,,,,,,,,,,,,,,,,,,,,,,
,,,,,848799,001,2025-03-12_13h57.25.042,Utility_discrimination_2024_2cat,2024.2.4,Win32,59.52380952,,,,,,,,0,"[0.5,0.5]","[1,0]",s,"[0.6251289916862146,0.801877776287369]","[0.3748710083137854,0.198122223712631]",99.6516,101.3965,1,s,1,0.2168,,-0.083708482,0.681018996,0.764727478,101.4003,101.4003,0,21,21,21,1,0.32670755,0.32670755,shape_difference3,1,,TRUE,,intensity,0.1,4.94066E-324,1.79769E+308,0.3,0.82,20,400,0.25,1,0.01,0.5,0.1,,,,,,,,,,,,,,,,,,,,,,,,,,,,,,,,,,,,,,,,,,,,,,,,,,,,,,,,,,,,,,,,,,,,,,,,,,,,,,,,,
,,,,,848799,001,2025-03-12_13h57.25.042,Utility_discrimination_2024_2cat,2024.2.4,Win32,59.52380952,,,,,,,,2,"[0.5,0.5]","[0.707,0.707]",s,"[0.8286848164389312,0.5]","[0.17131518356106878,0.5]",101.4017,103.1113,1,s,1,0.1859,,-0.106982943,0.672508896,0.77949184,103.1142,103.1142,0,22,22,22,1,0.328684816,0.328684816,shape_difference0,1,,TRUE,,intensity,0.1,4.94066E-324,1.79769E+308,0.3,0.82,20,400,0.25,1,0.01,0.5,0.1,,,,,,,,,,,,,,,,,,,,,,,,,,,,,,,,,,,,,,,,,,,,,,,,,,,,,,,,,,,,,,,,,,,,,,,,,,,,,,,,,
,,,,,848799,001,2025-03-12_13h57.25.042,Utility_discrimination_2024_2cat,2024.2.4,Win32,59.52380952,,,,,,,,4,"[0.5,0.5]","[0,1]",s,"[0.7192807893532144,0.7192807893532144]","[0.2807192106467856,0.2807192106467856]",103.1164,106.3248,1,s,1,1.6926,,0.080534379,0.798492909,0.71795853,106.3288,106.329,0,23,23,23,1,0.310156703,0.310156703,shape_difference2,1,,TRUE,,intensity,0.1,4.94066E-324,1.79769E+308,0.3,0.82,20,400,0.25,1,0.01,0.5,0.1,,,,,,,,,,,,,,,,,,,,,,,,,,,,,,,,,,,,,,,,,,,,,,,,,,,,,,,,,,,,,,,,,,,,,,,,,,,,,,,,,
,,,,,848799,001,2025-03-12_13h57.25.042,Utility_discrimination_2024_2cat,2024.2.4,Win32,59.52380952,,,,,,,,2,"[0.5,0.5]","[0.707,0.707]",s,"[0.5,0.9697754201117078]","[0.5,0.03022457988829219]",106.3314,108.4732,1,s,1,0.617,,-0.129544535,0.642019583,0.771564118,108.4778,108.4778,0,24,24,24,1,0.46977542,0.46977542,shape_difference4,1,,TRUE,,intensity,0.1,4.94066E-324,1.79769E+308,0.3,0.82,20,400,0.25,1,0.01,0.5,0.1,,,,,,,,,,,,,,,,,,,,,,,,,,,,,,,,,,,,,,,,,,,,,,,,,,,,,,,,,,,,,,,,,,,,,,,,,,,,,,,,,
,,,,,848799,001,2025-03-12_13h57.25.042,Utility_discrimination_2024_2cat,2024.2.4,Win32,59.52380952,,,,,,,,4,"[0.5,0.5]","[0,1]",s,"[0.7000883472138975,0.7000883472138975]","[0.29991165278610254,0.29991165278610254]",108.4791,110.3384,0,s,0,0.3339,,0.06263553,0.777258008,0.714622479,110.3417,110.3419,0,25,25,25,1,0.283010392,0.283010392,shape_difference2,1,,TRUE,,intensity,0.1,4.94066E-324,1.79769E+308,0.3,0.82,20,400,0.25,1,0.01,0.5,0.1,,,,,,,,,,,,,,,,,,,,,,,,,,,,,,,,,,,,,,,,,,,,,,,,,,,,,,,,,,,,,,,,,,,,,,,,,,,,,,,,,
,,,,,848799,001,2025-03-12_13h57.25.042,Utility_discrimination_2024_2cat,2024.2.4,Win32,59.52380952,,,,,,,,1,"[0.5,0.5]","[0.924,0.383]",d,"[0.5,0.947544009045987]","[0.5,0.05245599095401299]",110.3449,111.8701,1,s,1,0.0007,,-0.096490572,0.653650435,0.750141007,111.8731,111.8731,0,26,26,26,1,0.447544009,0.447544009,shape_difference4,1,,TRUE,,intensity,0.1,4.94066E-324,1.79769E+308,0.3,0.82,20,400,0.25,1,0.01,0.5,0.1,,,,,,,,,,,,,,,,,,,,,,,,,,,,,,,,,,,,,,,,,,,,,,,,,,,,,,,,,,,,,,,,,,,,,,,,,,,,,,,,,
,,,,,848799,001,2025-03-12_13h57.25.042,Utility_discrimination_2024_2cat,2024.2.4,Win32,59.52380952,,,,,,,,0,"[0.5,0.5]","[1,0]",s,"[0.778166668278206,0.6153006860936721]","[0.22183333172179392,0.384699313906328]",111.8742,118.0316,1,d,1,4.633,,-0.096490572,0.653650435,0.750141007,118.0368,118.0368,0,27,27,27,1,0.301046178,0.301046178,shape_difference1,1,,TRUE,,intensity,0.1,4.94066E-324,1.79769E+308,0.3,0.82,20,400,0.25,1,0.01,0.5,0.1,,,,,,,,,,,,,,,,,,,,,,,,,,,,,,,,,,,,,,,,,,,,,,,,,,,,,,,,,,,,,,,,,,,,,,,,,,,,,,,,,
,,,,,848799,001,2025-03-12_13h57.25.042,Utility_discrimination_2024_2cat,2024.2.4,Win32,59.52380952,,,,,,,,3,"[0.5,0.5]","[0.383,0.924]",d,"[0.8010461777902663,0.5]","[0.19895382220973368,0.5]",118.0389,120.1798,1,d,1,0.6177,,-0.099898509,0.654589317,0.754487826,120.1831,120.1831,0,28,28,28,1,0.301046178,0.301046178,shape_difference0,1,,TRUE,,intensity,0.1,4.94066E-324,1.79769E+308,0.3,0.82,20,400,0.25,1,0.01,0.5,0.1,,,,,,,,,,,,,,,,,,,,,,,,,,,,,,,,,,,,,,,,,,,,,,,,,,,,,,,,,,,,,,,,,,,,,,,,,,,,,,,,,
,,,,,848799,001,2025-03-12_13h57.25.042,Utility_discrimination_2024_2cat,2024.2.4,Win32,59.52380952,,,,,,,,3,"[0.5,0.5]","[0.383,0.924]",d,"[0.6143835474021192,0.7759540412521101]","[0.3856164525978808,0.2240459587478899]",120.1842,122.0947,1,d,1,0.3831,,-0.122200229,0.621091008,0.743291236,122.099,122.099,0,29,29,29,1,0.29865156,0.29865156,shape_difference3,1,,TRUE,,intensity,0.1,4.94066E-324,1.79769E+308,0.3,0.82,20,400,0.25,1,0.01,0.5,0.1,,,,,,,,,,,,,,,,,,,,,,,,,,,,,,,,,,,,,,,,,,,,,,,,,,,,,,,,,,,,,,,,,,,,,,,,,,,,,,,,,
,,,,,848799,001,2025-03-12_13h57.25.042,Utility_discrimination_2024_2cat,2024.2.4,Win32,59.52380952,,,,,,,,1,"[0.5,0.5]","[0.924,0.383]",d,"[0.6050627052189793,0.7534672052802529]","[0.39493729478102074,0.24653279471974715]",122.1004,124.1259,1,s,1,0.5082,,-0.115715805,0.620479677,0.736195482,124.1295,124.1295,0,30,30,30,1,0.274315157,0.274315157,shape_difference3,1,,TRUE,,intensity,0.1,4.94066E-324,1.79769E+308,0.3,0.82,20,400,0.25,1,0.01,0.5,0.1,,,,,,,,,,,,,,,,,,,,,,,,,,,,,,,,,,,,,,,,,,,,,,,,,,,,,,,,,,,,,,,,,,,,,,,,,,,,,,,,,
,,,,,848799,001,2025-03-12_13h57.25.042,Utility_discrimination_2024_2cat,2024.2.4,Win32,59.52380952,,,,,,,,4,"[0.5,0.5]","[0,1]",s,"[0.7558915923584335,0.6060676189104762]","[0.24410840764156655,0.3939323810895238]",124.1304,126.2074,1,s,1,0.5472,,0.045746647,0.752771994,0.707025346,126.2098,126.2098,0,31,31,31,1,0.276938953,0.276938953,shape_difference1,1,,TRUE,,intensity,0.1,4.94066E-324,1.79769E+308,0.3,0.82,20,400,0.25,1,0.01,0.5,0.1,,,,,,,,,,,,,,,,,,,,,,,,,,,,,,,,,,,,,,,,,,,,,,,,,,,,,,,,,,,,,,,,,,,,,,,,,,,,,,,,,
,,,,,848799,001,2025-03-12_13h57.25.042,Utility_discrimination_2024_2cat,2024.2.4,Win32,59.52380952,,,,,,,,0,"[0.5,0.5]","[1,0]",s,"[0.5,0.9243913815585814]","[0.5,0.07560861844141864]",126.2107,128.0565,1,d,1,0.318,,-0.115715805,0.620479677,0.736195482,128.0606,128.0607,0,32,32,32,1,0.424391382,0.424391382,shape_difference4,1,,TRUE,,intensity,0.1,4.94066E-324,1.79769E+308,0.3,0.82,20,400,0.25,1,0.01,0.5,0.1,,,,,,,,,,,,,,,,,,,,,,,,,,,,,,,,,,,,,,,,,,,,,,,,,,,,,,,,,,,,,,,,,,,,,,,,,,,,,,,,,
,,,,,848799,001,2025-03-12_13h57.25.042,Utility_discrimination_2024_2cat,2024.2.4,Win32,59.52380952,,,,,,,,2,"[0.5,0.5]","[0.707,0.707]",d,"[0.7769389527688674,0.5]","[0.22306104723113263,0.5]",128.0621,129.9878,1,s,1,0.4009,,0.00767018,0.732732723,0.725062543,129.9916,129.9917,0,33,33,33,1,0.276938953,0.276938953,shape_difference0,1,,TRUE,,intensity,0.1,4.94066E-324,1.79769E+308,0.3,0.82,20,400,0.25,1,0.01,0.5,0.1,,,,,,,,,,,,,,,,,,,,,,,,,,,,,,,,,,,,,,,,,,,,,,,,,,,,,,,,,,,,,,,,,,,,,,,,,,,,,,,,,
,,,,,848799,001,2025-03-12_13h57.25.042,Utility_discrimination_2024_2cat,2024.2.4,Win32,59.52380952,,,,,,,,2,"[0.5,0.5]","[0.707,0.707]",s,"[0.776927186095195,0.776927186095195]","[0.223072813904805,0.223072813904805]",129.9933,131.8865,1,d,1,0.3716,,-0.005510852,0.698133363,0.703644215,131.8915,131.8915,0,34,34,34,1,0.391693333,0.391693333,shape_difference2,1,,TRUE,,intensity,0.1,4.94066E-324,1.79769E+308,0.3,0.82,20,400,0.25,1,0.01,0.5,0.1,,,,,,,,,,,,,,,,,,,,,,,,,,,,,,,,,,,,,,,,,,,,,,,,,,,,,,,,,,,,,,,,,,,,,,,,,,,,,,,,,
,,,,,848799,001,2025-03-12_13h57.25.042,Utility_discrimination_2024_2cat,2024.2.4,Win32,59.52380952,,,,,,,,1,"[0.5,0.5]","[0.924,0.383]",d,"[0.7610496871291321,0.7610496871291321]","[0.23895031287086782,0.23895031287086782]",131.8931,133.8012,1,d,1,0.3836,,-0.134722276,0.589789318,0.724511594,133.8041,133.8042,0,35,35,35,1,0.369235767,0.369235767,shape_difference2,1,,TRUE,,intensity,0.1,4.94066E-324,1.79769E+308,0.3,0.82,20,400,0.25,1,0.01,0.5,0.1,,,,,,,,,,,,,,,,,,,,,,,,,,,,,,,,,,,,,,,,,,,,,,,,,,,,,,,,,,,,,,,,,,,,,,,,,,,,,,,,,
,,,,,848799,001,2025-03-12_13h57.25.042,Utility_discrimination_2024_2cat,2024.2.4,Win32,59.52380952,,,,,,,,0,"[0.5,0.5]","[1,0]",d,"[0.7346973850321302,0.5972825740988159]","[0.2653026149678698,0.4027174259011841]",133.806,135.6993,1,d,1,0.3744,,-0.134722276,0.589789318,0.724511594,135.7036,135.7036,0,36,36,36,1,0.254001499,0.254001499,shape_difference1,1,,TRUE,,intensity,0.1,4.94066E-324,1.79769E+308,0.3,0.82,20,400,0.25,1,0.01,0.5,0.1,,,,,,,,,,,,,,,,,,,,,,,,,,,,,,,,,,,,,,,,,,,,,,,,,,,,,,,,,,,,,,,,,,,,,,,,,,,,,,,,,
,,,,,848799,001,2025-03-12_13h57.25.042,Utility_discrimination_2024_2cat,2024.2.4,Win32,59.52380952,,,,,,,,3,"[0.5,0.5]","[0.383,0.924]",d,"[0.7540014989525219,0.5]","[0.2459985010474781,0.5]",135.7055,137.831,1,s,1,0.608,,-0.140314061,0.589804236,0.730118296,137.8346,137.8347,0,37,37,37,1,0.254001499,0.254001499,shape_difference0,1,,TRUE,,intensity,0.1,4.94066E-324,1.79769E+308,0.3,0.82,20,400,0.25,1,0.01,0.5,0.1,,,,,,,,,,,,,,,,,,,,,,,,,,,,,,,,,,,,,,,,,,,,,,,,,,,,,,,,,,,,,,,,,,,,,,,,,,,,,,,,,
,,,,,848799,001,2025-03-12_13h57.25.042,Utility_discrimination_2024_2cat,2024.2.4,Win32,59.52380952,,,,,,,,4,"[0.5,0.5]","[0,1]",s,"[0.5961312175191225,0.7319196997067081]","[0.4038687824808775,0.2680803002932919]",137.8367,139.6794,1,d,1,0.3179,,0.031848933,0.723376951,0.691528018,139.6827,139.6827,0,38,38,38,1,0.250995346,0.250995346,shape_difference3,1,,TRUE,,intensity,0.1,4.94066E-324,1.79769E+308,0.3,0.82,20,400,0.25,1,0.01,0.5,0.1,,,,,,,,,,,,,,,,,,,,,,,,,,,,,,,,,,,,,,,,,,,,,,,,,,,,,,,,,,,,,,,,,,,,,,,,,,,,,,,,,
,,,,,848799,001,2025-03-12_13h57.25.042,Utility_discrimination_2024_2cat,2024.2.4,Win32,59.52380952,,,,,,,,3,"[0.5,0.5]","[0.383,0.924]",d,"[0.5,0.900714953472955]","[0.5,0.09928504652704495]",139.6855,141.6443,1,d,1,0.4423,,-0.15512855,0.565405347,0.720533896,141.6488,141.6488,0,39,39,39,1,0.400714953,0.400714953,shape_difference4,1,,TRUE,,intensity,0.1,4.94066E-324,1.79769E+308,0.3,0.82,20,400,0.25,1,0.01,0.5,0.1,,,,,,,,,,,,,,,,,,,,,,,,,,,,,,,,,,,,,,,,,,,,,,,,,,,,,,,,,,,,,,,,,,,,,,,,,,,,,,,,,
,,,,,848799,001,2025-03-12_13h57.25.042,Utility_discrimination_2024_2cat,2024.2.4,Win32,59.52380952,,,,,,,,2,"[0.5,0.5]","[0.707,0.707]",d,"[0.5873977862707639,0.7108500117863861]","[0.4126022137292361,0.289149988213614]",141.6506,143.5264,1,s,1,0.3499,,-0.024594829,0.676563658,0.701158487,143.5298,143.5298,0,40,40,40,1,0.228192653,0.228192653,shape_difference3,1,,TRUE,,intensity,0.1,4.94066E-324,1.79769E+308,0.3,0.82,20,400,0.25,1,0.01,0.5,0.1,,,,,,,,,,,,,,,,,,,,,,,,,,,,,,,,,,,,,,,,,,,,,,,,,,,,,,,,,,,,,,,,,,,,,,,,,,,,,,,,,
,,,,,848799,001,2025-03-12_13h57.25.042,Utility_discrimination_2024_2cat,2024.2.4,Win32,59.52380952,,,,,,,,1,"[0.5,0.5]","[0.924,0.383]",s,"[0.7457511695619679,0.7457511695619679]","[0.2542488304380322,0.2542488304380322]",143.5312,145.5075,1,s,1,0.4553,,-0.150250955,0.565851096,0.716102051,145.5112,145.5112,0,41,41,41,1,0.347597128,0.347597128,shape_difference2,1,,TRUE,,intensity,0.1,4.94066E-324,1.79769E+308,0.3,0.82,20,400,0.25,1,0.01,0.5,0.1,,,,,,,,,,,,,,,,,,,,,,,,,,,,,,,,,,,,,,,,,,,,,,,,,,,,,,,,,,,,,,,,,,,,,,,,,,,,,,,,,
,,,,,848799,001,2025-03-12_13h57.25.042,Utility_discrimination_2024_2cat,2024.2.4,Win32,59.52380952,,,,,,,,0,"[0.5,0.5]","[1,0]",s,"[0.7140133113135352,0.5887089807717358]","[0.2859866886864649,0.4112910192282641]",145.5127,147.3728,0,s,0,0.3341,,-0.150250955,0.565851096,0.716102051,147.3787,147.3788,0,42,42,42,1,0.231616138,0.231616138,shape_difference1,1,,TRUE,,intensity,0.1,4.94066E-324,1.79769E+308,0.3,0.82,20,400,0.25,1,0.01,0.5,0.1,,,,,,,,,,,,,,,,,,,,,,,,,,,,,,,,,,,,,,,,,,,,,,,,,,,,,,,,,,,,,,,,,,,,,,,,,,,,,,,,,
,,,,,848799,001,2025-03-12_13h57.25.042,Utility_discrimination_2024_2cat,2024.2.4,Win32,59.52380952,,,,,,,,4,"[0.5,0.5]","[0,1]",d,"[0.7316161377852112,0.5]","[0.2683838622147888,0.5]",147.3802,149.2551,1,d,1,0.3614,,0.020257522,0.694008876,0.673751355,149.2593,149.2593,0,43,43,43,1,0.231616138,0.231616138,shape_difference0,1,,TRUE,,intensity,0.1,4.94066E-324,1.79769E+308,0.3,0.82,20,400,0.25,1,0.01,0.5,0.1,,,,,,,,,,,,,,,,,,,,,,,,,,,,,,,,,,,,,,,,,,,,,,,,,,,,,,,,,,,,,,,,,,,,,,,,,,,,,,,,,
,,,,,848799,001,2025-03-12_13h57.25.042,Utility_discrimination_2024_2cat,2024.2.4,Win32,59.52380952,,,,,,,,0,"[0.5,0.5]","[1,0]",d,"[0.5,0.8804059025765966]","[0.5,0.11959409742340343]",149.2607,151.0861,1,d,1,0.3089,,-0.165122562,0.537880256,0.703002818,151.0905,151.0905,0,44,44,44,1,0.380405903,0.380405903,shape_difference4,1,,TRUE,,intensity,0.1,4.94066E-324,1.79769E+308,0.3,0.82,20,400,0.25,1,0.01,0.5,0.1,,,,,,,,,,,,,,,,,,,,,,,,,,,,,,,,,,,,,,,,,,,,,,,,,,,,,,,,,,,,,,,,,,,,,,,,,,,,,,,,,
,,,,,848799,001,2025-03-12_13h57.25.042,Utility_discrimination_2024_2cat,2024.2.4,Win32,59.52380952,,,,,,,,1,"[0.5,0.5]","[0.924,0.383]",d,"[0.7078872914302181,0.5]","[0.2921127085697819,0.5]",151.0919,152.9512,1,s,1,0.3329,,-0.049024668,0.642833854,0.691858522,152.9551,152.9551,0,45,45,45,1,0.207887291,0.207887291,shape_difference0,1,,TRUE,,intensity,0.1,4.94066E-324,1.79769E+308,0.3,0.82,20,400,0.25,1,0.01,0.5,0.1,,,,,,,,,,,,,,,,,,,,,,,,,,,,,,,,,,,,,,,,,,,,,,,,,,,,,,,,,,,,,,,,,,,,,,,,,,,,,,,,,
,,,,,848799,001,2025-03-12_13h57.25.042,Utility_discrimination_2024_2cat,2024.2.4,Win32,59.52380952,,,,,,,,3,"[0.5,0.5]","[0.383,0.924]",s,"[0.7927924625410808,0.621363109473197]","[0.20720753745891918,0.37863689052680305]",152.957,154.833,1,d,1,0.3526,,-0.169364,0.536841358,0.706205358,154.8367,154.8367,0,46,46,46,1,0.316874959,0.316874959,shape_difference1,1,,TRUE,,intensity,0.1,4.94066E-324,1.79769E+308,0.3,0.82,20,400,0.25,1,0.01,0.5,0.1,,,,,,,,,,,,,,,,,,,,,,,,,,,,,,,,,,,,,,,,,,,,,,,,,,,,,,,,,,,,,,,,,,,,,,,,,,,,,,,,,
,,,,,848799,001,2025-03-12_13h57.25.042,Utility_discrimination_2024_2cat,2024.2.4,Win32,59.52380952,,,,,,,,2,"[0.5,0.5]","[0.707,0.707]",d,"[0.5781069880363271,0.6884356578213218]","[0.4218930119636729,0.31156434217867823]",154.8397,156.7977,1,d,1,0.4349,,-0.042510477,0.651774533,0.69428501,156.8029,156.803,0,47,47,47,1,0.203934695,0.203934695,shape_difference3,1,,TRUE,,intensity,0.1,4.94066E-324,1.79769E+308,0.3,0.82,20,400,0.25,1,0.01,0.5,0.1,,,,,,,,,,,,,,,,,,,,,,,,,,,,,,,,,,,,,,,,,,,,,,,,,,,,,,,,,,,,,,,,,,,,,,,,,,,,,,,,,
,,,,,848799,001,2025-03-12_13h57.25.042,Utility_discrimination_2024_2cat,2024.2.4,Win32,59.52380952,,,,,,,,4,"[0.5,0.5]","[0,1]",d,"[0.729874163612251,0.729874163612251]","[0.270125836387749,0.270125836387749]",156.8048,158.6459,1,d,1,0.3215,,0.010455971,0.674013462,0.663557491,158.648,158.6481,0,48,48,48,1,0.32514026,0.32514026,shape_difference2,1,,TRUE,,intensity,0.1,4.94066E-324,1.79769E+308,0.3,0.82,20,400,0.25,1,0.01,0.5,0.1,,,,,,,,,,,,,,,,,,,,,,,,,,,,,,,,,,,,,,,,,,,,,,,,,,,,,,,,,,,,,,,,,,,,,,,,,,,,,,,,,
,,,,,848799,001,2025-03-12_13h57.25.042,Utility_discrimination_2024_2cat,2024.2.4,Win32,59.52380952,,,,,,,,0,"[0.5,0.5]","[1,0]",d,"[0.5,0.8610981515581898]","[0.5,0.1389018484418102]",158.6488,160.6444,1,s,1,0.4661,,-0.177473378,0.504001615,0.681474993,160.6487,160.6488,0,49,49,49,1,0.361098152,0.361098152,shape_difference4,1,,TRUE,,intensity,0.1,4.94066E-324,1.79769E+308,0.3,0.82,20,400,0.25,1,0.01,0.5,0.1,,,,,,,,,,,,,,,,,,,,,,,,,,,,,,,,,,,,,,,,,,,,,,,,,,,,,,,,,,,,,,,,,,,,,,,,,,,,,,,,,
,,,,,848799,001,2025-03-12_13h57.25.042,Utility_discrimination_2024_2cat,2024.2.4,Win32,59.52380952,,,,,,,,3,"[0.5,0.5]","[0.383,0.924]",s,"[0.6862085482311002,0.5]","[0.3137914517688998,0.5]",160.65,162.4926,1,d,1,0.3164,,-0.181212366,0.502191337,0.683403703,162.495,162.4951,0,50,50,50,1,0.186208548,0.186208548,shape_difference0,1,,TRUE,,intensity,0.1,4.94066E-324,1.79769E+308,0.3,0.82,20,400,0.25,1,0.01,0.5,0.1,,,,,,,,,,,,,,,,,,,,,,,,,,,,,,,,,,,,,,,,,,,,,,,,,,,,,,,,,,,,,,,,,,,,,,,,,,,,,,,,,
,,,,,848799,001,2025-03-12_13h57.25.042,Utility_discrimination_2024_2cat,2024.2.4,Win32,59.52380952,,,,,,,,1,"[0.5,0.5]","[0.924,0.383]",d,"[0.5699291502831112,0.6687063573409784]","[0.4300708497168888,0.3312936426590216]",162.4958,164.3747,1,s,1,0.3503,,-0.062607726,0.611106597,0.673714322,164.3781,164.3782,0,51,51,51,1,0.182582638,0.182582638,shape_difference3,1,,TRUE,,intensity,0.1,4.94066E-324,1.79769E+308,0.3,0.82,20,400,0.25,1,0.01,0.5,0.1,,,,,,,,,,,,,,,,,,,,,,,,,,,,,,,,,,,,,,,,,,,,,,,,,,,,,,,,,,,,,,,,,,,,,,,,,,,,,,,,,
,,,,,848799,001,2025-03-12_13h57.25.042,Utility_discrimination_2024_2cat,2024.2.4,Win32,59.52380952,,,,,,,,2,"[0.5,0.5]","[0.707,0.707]",s,"[0.7721908661635926,0.6128237031825281]","[0.2278091338364075,0.3871762968174719]",164.3798,166.206,1,d,1,0.2992,,-0.05720306,0.622090533,0.679293593,166.2079,166.2079,0,52,52,52,1,0.294578859,0.294578859,shape_difference1,1,,TRUE,,intensity,0.1,4.94066E-324,1.79769E+308,0.3,0.82,20,400,0.25,1,0.01,0.5,0.1,,,,,,,,,,,,,,,,,,,,,,,,,,,,,,,,,,,,,,,,,,,,,,,,,,,,,,,,,,,,,,,,,,,,,,,,,,,,,,,,,
,,,,,848799,001,2025-03-12_13h57.25.042,Utility_discrimination_2024_2cat,2024.2.4,Win32,59.52380952,,,,,,,,4,"[0.5,0.5]","[0,1]",d,"[0.7136798906710132,0.7136798906710132]","[0.28632010932898677,0.28632010932898677]",166.2086,168.071,1,d,1,0.3417,,0.002051758,0.650959635,0.648907876,168.0743,168.0743,0,53,53,53,1,0.30223464,0.30223464,shape_difference2,1,,TRUE,,intensity,0.1,4.94066E-324,1.79769E+308,0.3,0.82,20,400,0.25,1,0.01,0.5,0.1,,,,,,,,,,,,,,,,,,,,,,,,,,,,,,,,,,,,,,,,,,,,,,,,,,,,,,,,,,,,,,,,,,,,,,,,,,,,,,,,,
,,,,,848799,001,2025-03-12_13h57.25.042,Utility_discrimination_2024_2cat,2024.2.4,Win32,59.52380952,,,,,,,,4,"[0.5,0.5]","[0,1]",d,"[0.5,0.8423250595369055]","[0.5,0.1576749404630945]",168.0757,170.0365,1,s,1,0.4317,,-0.015662903,0.623993117,0.63965602,170.0403,170.0403,0,54,54,54,1,0.34232506,0.34232506,shape_difference4,1,,TRUE,,intensity,0.1,4.94066E-324,1.79769E+308,0.3,0.82,20,400,0.25,1,0.01,0.5,0.1,,,,,,,,,,,,,,,,,,,,,,,,,,,,,,,,,,,,,,,,,,,,,,,,,,,,,,,,,,,,,,,,,,,,,,,,,,,,,,,,,
,,,,,848799,001,2025-03-12_13h57.25.042,Utility_discrimination_2024_2cat,2024.2.4,Win32,59.52380952,,,,,,,,0,"[0.5,0.5]","[1,0]",s,"[0.5,0.8226841388137913]","[0.5,0.17731586118620868]",170.0417,172.051,1,s,1,0.4858,,-0.187875812,0.482355013,0.670230825,172.0556,172.0556,0,55,55,55,1,0.322684139,0.322684139,shape_difference4,1,,TRUE,,intensity,0.1,4.94066E-324,1.79769E+308,0.3,0.82,20,400,0.25,1,0.01,0.5,0.1,,,,,,,,,,,,,,,,,,,,,,,,,,,,,,,,,,,,,,,,,,,,,,,,,,,,,,,,,,,,,,,,,,,,,,,,,,,,,,,,,
,,,,,848799,001,2025-03-12_13h57.25.042,Utility_discrimination_2024_2cat,2024.2.4,Win32,59.52380952,,,,,,,,2,"[0.5,0.5]","[0.707,0.707]",s,"[0.666589954228337,0.5]","[0.333410045771663,0.5]",172.0571,173.9165,1,s,1,0.3381,,-0.06940573,0.593318746,0.662724476,173.9202,173.9202,0,56,56,56,1,0.166589954,0.166589954,shape_difference0,1,,TRUE,,intensity,0.1,4.94066E-324,1.79769E+308,0.3,0.82,20,400,0.25,1,0.01,0.5,0.1,,,,,,,,,,,,,,,,,,,,,,,,,,,,,,,,,,,,,,,,,,,,,,,,,,,,,,,,,,,,,,,,,,,,,,,,,,,,,,,,,
,,,,,848799,001,2025-03-12_13h57.25.042,Utility_discrimination_2024_2cat,2024.2.4,Win32,59.52380952,,,,,,,,3,"[0.5,0.5]","[0.383,0.924]",s,"[0.6997119939919213,0.6997119939919213]","[0.3002880060080787,0.3002880060080787]",173.9218,175.7314,1,d,1,0.2859,,-0.191216837,0.480949562,0.6721664,175.7352,175.7352,0,57,57,57,1,0.282478068,0.282478068,shape_difference2,1,,TRUE,,intensity,0.1,4.94066E-324,1.79769E+308,0.3,0.82,20,400,0.25,1,0.01,0.5,0.1,,,,,,,,,,,,,,,,,,,,,,,,,,,,,,,,,,,,,,,,,,,,,,,,,,,,,,,,,,,,,,,,,,,,,,,,,,,,,,,,,
,,,,,848799,001,2025-03-12_13h57.25.042,Utility_discrimination_2024_2cat,2024.2.4,Win32,59.52380952,,,,,,,,1,"[0.5,0.5]","[0.924,0.383]",d,"[0.5623407744792249,0.650399153051707]","[0.43765922552077513,0.34960084694829296]",175.7365,177.6302,1,s,1,0.3772,,-0.073939474,0.587004869,0.660944342,177.636,177.6361,0,58,58,58,1,0.162769646,0.162769646,shape_difference3,1,,TRUE,,intensity,0.1,4.94066E-324,1.79769E+308,0.3,0.82,20,400,0.25,1,0.01,0.5,0.1,,,,,,,,,,,,,,,,,,,,,,,,,,,,,,,,,,,,,,,,,,,,,,,,,,,,,,,,,,,,,,,,,,,,,,,,,,,,,,,,,
,,,,,848799,001,2025-03-12_13h57.25.042,Utility_discrimination_2024_2cat,2024.2.4,Win32,59.52380952,,,,,,,,4,"[0.5,0.5]","[0,1]",s,"[0.7544748404693947,0.6054803721859071]","[0.24552515953060527,0.3945196278140929]",177.6369,179.4612,1,d,1,0.2989,,-0.032820837,0.59608252,0.628903357,179.4636,179.4636,0,59,59,59,1,0.275405672,0.275405672,shape_difference1,1,,TRUE,,intensity,0.1,4.94066E-324,1.79769E+308,0.3,0.82,20,400,0.25,1,0.01,0.5,0.1,,,,,,,,,,,,,,,,,,,,,,,,,,,,,,,,,,,,,,,,,,,,,,,,,,,,,,,,,,,,,,,,,,,,,,,,,,,,,,,,,
,,,,,848799,001,2025-03-12_13h57.25.042,Utility_discrimination_2024_2cat,2024.2.4,Win32,59.52380952,,,,,,,,1,"[0.5,0.5]","[0.924,0.383]",d,"[0.5,0.8025779163249823]","[0.5,0.19742208367501768]",179.4648,181.3268,1,d,1,0.3336,,-0.083516388,0.566075577,0.649591964,181.3305,181.3305,0,60,60,60,1,0.302577916,0.302577916,shape_difference4,1,,TRUE,,intensity,0.1,4.94066E-324,1.79769E+308,0.3,0.82,20,400,0.25,1,0.01,0.5,0.1,,,,,,,,,,,,,,,,,,,,,,,,,,,,,,,,,,,,,,,,,,,,,,,,,,,,,,,,,,,,,,,,,,,,,,,,,,,,,,,,,
,,,,,848799,001,2025-03-12_13h57.25.042,Utility_discrimination_2024_2cat,2024.2.4,Win32,59.52380952,,,,,,,,2,"[0.5,0.5]","[0.707,0.707]",d,"[0.7374987570476749,0.5984437488628349]","[0.26250124295232513,0.4015562511371651]",181.3315,183.1582,1,d,1,0.3048,,-0.079671462,0.573410368,0.653081831,183.1616,183.1616,0,61,61,61,1,0.257033287,0.257033287,shape_difference1,1,,TRUE,,intensity,0.1,4.94066E-324,1.79769E+308,0.3,0.82,20,400,0.25,1,0.01,0.5,0.1,,,,,,,,,,,,,,,,,,,,,,,,,,,,,,,,,,,,,,,,,,,,,,,,,,,,,,,,,,,,,,,,,,,,,,,,,,,,,,,,,
,,,,,848799,001,2025-03-12_13h57.25.042,Utility_discrimination_2024_2cat,2024.2.4,Win32,59.52380952,,,,,,,,0,"[0.5,0.5]","[1,0]",d,"[0.6866276013174788,0.6866276013174788]","[0.3133723986825212,0.3133723986825212]",183.1626,185.0233,1,d,1,0.3328,,-0.196762836,0.459954242,0.656717079,185.0259,185.0259,0,62,62,62,1,0.263971148,0.263971148,shape_difference2,1,,TRUE,,intensity,0.1,4.94066E-324,1.79769E+308,0.3,0.82,20,400,0.25,1,0.01,0.5,0.1,,,,,,,,,,,,,,,,,,,,,,,,,,,,,,,,,,,,,,,,,,,,,,,,,,,,,,,,,,,,,,,,,,,,,,,,,,,,,,,,,
,,,,,848799,001,2025-03-12_13h57.25.042,Utility_discrimination_2024_2cat,2024.2.4,Win32,59.52380952,,,,,,,,3,"[0.5,0.5]","[0.383,0.924]",d,"[0.6476303444491975,0.5]","[0.35236965555080246,0.5]",185.0276,186.8718,1,d,1,0.3175,,-0.199788185,0.45790486,0.657693045,186.8758,186.8759,0,63,63,63,1,0.147630344,0.147630344,shape_difference0,1,,TRUE,,intensity,0.1,4.94066E-324,1.79769E+308,0.3,0.82,20,400,0.25,1,0.01,0.5,0.1,,,,,,,,,,,,,,,,,,,,,,,,,,,,,,,,,,,,,,,,,,,,,,,,,,,,,,,,,,,,,,,,,,,,,,,,,,,,,,,,,
,,,,,848799,001,2025-03-12_13h57.25.042,Utility_discrimination_2024_2cat,2024.2.4,Win32,59.52380952,,,,,,,,3,"[0.5,0.5]","[0.383,0.924]",d,"[0.5549864301384829,0.632656557305374]","[0.4450135698615171,0.36734344269462604]",186.8769,188.9033,1,d,1,0.4994,,-0.220264143,0.431139171,0.651403314,188.9072,188.9073,0,64,64,64,1,0.143567703,0.143567703,shape_difference3,1,,TRUE,,intensity,0.1,4.94066E-324,1.79769E+308,0.3,0.82,20,400,0.25,1,0.01,0.5,0.1,,,,,,,,,,,,,,,,,,,,,,,,,,,,,,,,,,,,,,,,,,,,,,,,,,,,,,,,,,,,,,,,,,,,,,,,,,,,,,,,,
,,,,,848799,001,2025-03-12_13h57.25.042,Utility_discrimination_2024_2cat,2024.2.4,Win32,59.52380952,,,,,,,,1,"[0.5,0.5]","[0.924,0.383]",d,"[0.5473172310713632,0.6141543642557169]","[0.4526827689286368,0.38584563574428304]",188.9085,190.7516,1,d,1,0.3246,,-0.09171681,0.541848772,0.633565582,190.7548,190.7548,0,65,65,65,1,0.123543684,0.123543684,shape_difference3,1,,TRUE,,intensity,0.1,4.94066E-324,1.79769E+308,0.3,0.82,20,400,0.25,1,0.01,0.5,0.1,,,,,,,,,,,,,,,,,,,,,,,,,,,,,,,,,,,,,,,,,,,,,,,,,,,,,,,,,,,,,,,,,,,,,,,,,,,,,,,,,
,,,,,848799,001,2025-03-12_13h57.25.042,Utility_discrimination_2024_2cat,2024.2.4,Win32,59.52380952,,,,,,,,4,"[0.5,0.5]","[0,1]",d,"[0.7209499883244668,0.5915842484072195]","[0.27905001167553317,0.40841575159278054]",190.7561,192.5496,1,d,1,0.2732,,-0.047061563,0.578915274,0.625976837,192.5524,192.5524,0,66,66,66,1,0.239123364,0.239123364,shape_difference1,1,,TRUE,,intensity,0.1,4.94066E-324,1.79769E+308,0.3,0.82,20,400,0.25,1,0.01,0.5,0.1,,,,,,,,,,,,,,,,,,,,,,,,,,,,,,,,,,,,,,,,,,,,,,,,,,,,,,,,,,,,,,,,,,,,,,,,,,,,,,,,,
,,,,,848799,001,2025-03-12_13h57.25.042,Utility_discrimination_2024_2cat,2024.2.4,Win32,59.52380952,,,,,,,,2,"[0.5,0.5]","[0.707,0.707]",d,"[0.5,0.7852199280187535]","[0.5,0.21478007198124655]",192.553,194.448,1,s,1,0.3768,,-0.088420653,0.550521102,0.638941755,194.4508,194.4508,0,67,67,67,1,0.285219928,0.285219928,shape_difference4,1,,TRUE,,intensity,0.1,4.94066E-324,1.79769E+308,0.3,0.82,20,400,0.25,1,0.01,0.5,0.1,,,,,,,,,,,,,,,,,,,,,,,,,,,,,,,,,,,,,,,,,,,,,,,,,,,,,,,,,,,,,,,,,,,,,,,,,,,,,,,,,
,,,,,848799,001,2025-03-12_13h57.25.042,Utility_discrimination_2024_2cat,2024.2.4,Win32,59.52380952,,,,,,,,0,"[0.5,0.5]","[1,0]",s,"[0.6739521045313532,0.6739521045313532]","[0.3260478954686468,0.3260478954686468]",194.4518,196.2972,1,d,1,0.3184,,-0.213812672,0.434018858,0.64783153,196.3011,196.3011,0,68,68,68,1,0.246042581,0.246042581,shape_difference2,1,,TRUE,,intensity,0.1,4.94066E-324,1.79769E+308,0.3,0.82,20,400,0.25,1,0.01,0.5,0.1,,,,,,,,,,,,,,,,,,,,,,,,,,,,,,,,,,,,,,,,,,,,,,,,,,,,,,,,,,,,,,,,,,,,,,,,,,,,,,,,,
,,,,,848799,001,2025-03-12_13h57.25.042,Utility_discrimination_2024_2cat,2024.2.4,Win32,59.52380952,,,,,,,,2,"[0.5,0.5]","[0.707,0.707]",d,"[0.6279532011956718,0.5]","[0.3720467988043282,0.5]",196.3026,198.2781,1,s,1,0.4565,,-0.097053037,0.523880245,0.620933282,198.282,198.2822,0,69,69,69,1,0.127953201,0.127953201,shape_difference0,1,,TRUE,,intensity,0.1,4.94066E-324,1.79769E+308,0.3,0.82,20,400,0.25,1,0.01,0.5,0.1,,,,,,,,,,,,,,,,,,,,,,,,,,,,,,,,,,,,,,,,,,,,,,,,,,,,,,,,,,,,,,,,,,,,,,,,,,,,,,,,,
,,,,,848799,001,2025-03-12_13h57.25.042,Utility_discrimination_2024_2cat,2024.2.4,Win32,59.52380952,,,,,,,,4,"[0.5,0.5]","[0,1]",s,"[0.660784367235222,0.660784367235222]","[0.339215632764778,0.339215632764778]",198.2846,200.1434,1,s,1,0.3359,,-0.059007835,0.559408916,0.618416751,200.1481,200.1482,0,70,70,70,1,0.227417775,0.227417775,shape_difference2,1,,TRUE,,intensity,0.1,4.94066E-324,1.79769E+308,0.3,0.82,20,400,0.25,1,0.01,0.5,0.1,,,,,,,,,,,,,,,,,,,,,,,,,,,,,,,,,,,,,,,,,,,,,,,,,,,,,,,,,,,,,,,,,,,,,,,,,,,,,,,,,
,,,,,848799,001,2025-03-12_13h57.25.042,Utility_discrimination_2024_2cat,2024.2.4,Win32,59.52380952,,,,,,,,1,"[0.5,0.5]","[0.924,0.383]",s,"[0.5,0.769063696058781]","[0.5,0.230936303941219]",200.1497,202.0255,1,s,1,0.3502,,-0.099877018,0.513418247,0.613295265,202.0294,202.0296,0,71,71,71,1,0.269063696,0.269063696,shape_difference4,1,,TRUE,,intensity,0.1,4.94066E-324,1.79769E+308,0.3,0.82,20,400,0.25,1,0.01,0.5,0.1,,,,,,,,,,,,,,,,,,,,,,,,,,,,,,,,,,,,,,,,,,,,,,,,,,,,,,,,,,,,,,,,,,,,,,,,,,,,,,,,,
,,,,,848799,001,2025-03-12_13h57.25.042,Utility_discrimination_2024_2cat,2024.2.4,Win32,59.52380952,,,,,,,,0,"[0.5,0.5]","[1,0]",s,"[0.7036001660175646,0.5843927095072805]","[0.2963998339824354,0.41560729049271944]",202.0318,203.8747,1,s,1,0.3296,,-0.231886294,0.402876474,0.634762768,203.8785,203.8785,0,72,72,72,1,0.2203465,0.2203465,shape_difference1,1,,TRUE,,intensity,0.1,4.94066E-324,1.79769E+308,0.3,0.82,20,400,0.25,1,0.01,0.5,0.1,,,,,,,,,,,,,,,,,,,,,,,,,,,,,,,,,,,,,,,,,,,,,,,,,,,,,,,,,,,,,,,,,,,,,,,,,,,,,,,,,
,,,,,848799,001,2025-03-12_13h57.25.042,Utility_discrimination_2024_2cat,2024.2.4,Win32,59.52380952,,,,,,,,3,"[0.5,0.5]","[0.383,0.924]",s,"[0.6079102020373199,0.5]","[0.3920897979626801,0.5]",203.8794,205.9218,1,d,1,0.5172,,-0.237341068,0.399501192,0.63684226,205.9245,205.9245,0,73,73,73,1,0.107910202,0.107910202,shape_difference0,1,,TRUE,,intensity,0.1,4.94066E-324,1.79769E+308,0.3,0.82,20,400,0.25,1,0.01,0.5,0.1,,,,,,,,,,,,,,,,,,,,,,,,,,,,,,,,,,,,,,,,,,,,,,,,,,,,,,,,,,,,,,,,,,,,,,,,,,,,,,,,,
,,,,,848799,001,2025-03-12_13h57.25.042,Utility_discrimination_2024_2cat,2024.2.4,Win32,59.52380952,,,,,,,,2,"[0.5,0.5]","[0.707,0.707]",d,"[0.5394795456056093,0.5952456922704517]","[0.4605204543943907,0.40475430772954835]",205.9261,207.8197,1,s,1,0.3663,,-0.112017033,0.496312494,0.608329527,207.8212,207.8212,0,74,74,74,1,0.103079754,0.103079754,shape_difference3,1,,TRUE,,intensity,0.1,4.94066E-324,1.79769E+308,0.3,0.82,20,400,0.25,1,0.01,0.5,0.1,,,,,,,,,,,,,,,,,,,,,,,,,,,,,,,,,,,,,,,,,,,,,,,,,,,,,,,,,,,,,,,,,,,,,,,,,,,,,,,,,
,,,,,848799,001,2025-03-12_13h57.25.042,Utility_discrimination_2024_2cat,2024.2.4,Win32,59.52380952,,,,,,,,3,"[0.5,0.5]","[0.383,0.924]",s,"[0.6473741125251297,0.6473741125251297]","[0.35262588747487034,0.35262588747487034]",207.8224,209.7183,1,s,1,0.3698,,-0.251521985,0.38209794,0.633619925,209.7224,209.7225,0,75,75,75,1,0.208449947,0.208449947,shape_difference2,1,,TRUE,,intensity,0.1,4.94066E-324,1.79769E+308,0.3,0.82,20,400,0.25,1,0.01,0.5,0.1,,,,,,,,,,,,,,,,,,,,,,,,,,,,,,,,,,,,,,,,,,,,,,,,,,,,,,,,,,,,,,,,,,,,,,,,,,,,,,,,,
,,,,,848799,001,2025-03-12_13h57.25.042,Utility_discrimination_2024_2cat,2024.2.4,Win32,59.52380952,,,,,,,,1,"[0.5,0.5]","[0.924,0.383]",s,"[0.5326817298183842,0.5788457398229426]","[0.46731827018161576,0.4211542601770573]",209.724,211.5164,1,s,1,0.2728,,-0.118114944,0.490691252,0.608806196,211.5183,211.5183,0,76,76,76,1,0.085330887,0.085330887,shape_difference3,1,,TRUE,,intensity,0.1,4.94066E-324,1.79769E+308,0.3,0.82,20,400,0.25,1,0.01,0.5,0.1,,,,,,,,,,,,,,,,,,,,,,,,,,,,,,,,,,,,,,,,,,,,,,,,,,,,,,,,,,,,,,,,,,,,,,,,,,,,,,,,,
,,,,,848799,001,2025-03-12_13h57.25.042,Utility_discrimination_2024_2cat,2024.2.4,Win32,59.52380952,,,,,,,,0,"[0.5,0.5]","[1,0]",s,"[0.685824502650065,0.5770246585659902]","[0.314175497349935,0.42297534143400983]",211.5195,213.3482,1,d,1,0.3006,,-0.246861635,0.384472701,0.631334337,213.3517,213.3518,0,77,77,77,1,0.201108769,0.201108769,shape_difference1,1,,TRUE,,intensity,0.1,4.94066E-324,1.79769E+308,0.3,0.82,20,400,0.25,1,0.01,0.5,0.1,,,,,,,,,,,,,,,,,,,,,,,,,,,,,,,,,,,,,,,,,,,,,,,,,,,,,,,,,,,,,,,,,,,,,,,,,,,,,,,,,
,,,,,848799,001,2025-03-12_13h57.25.042,Utility_discrimination_2024_2cat,2024.2.4,Win32,59.52380952,,,,,,,,4,"[0.5,0.5]","[0,1]",d,"[0.5894969136642529,0.5]","[0.410503086335747,0.5]",213.3538,215.1805,1,s,1,0.3097,,-0.069137875,0.53684214,0.605980015,215.1842,215.1842,0,78,78,78,1,0.089496914,0.089496914,shape_difference0,1,,TRUE,,intensity,0.1,4.94066E-324,1.79769E+308,0.3,0.82,20,400,0.25,1,0.01,0.5,0.1,,,,,,,,,,,,,,,,,,,,,,,,,,,,,,,,,,,,,,,,,,,,,,,,,,,,,,,,,,,,,,,,,,,,,,,,,,,,,,,,,
,,,,,848799,001,2025-03-12_13h57.25.042,Utility_discrimination_2024_2cat,2024.2.4,Win32,59.52380952,,,,,,,,0,"[0.5,0.5]","[1,0]",s,"[0.5,0.7534409887866544]","[0.5,0.2465590112133455]",215.1858,216.996,0,s,0,0.2819,,-0.259407566,0.365435127,0.624842693,216.9994,216.9994,0,79,79,79,1,0.253440989,0.253440989,shape_difference4,1,,TRUE,,intensity,0.1,4.94066E-324,1.79769E+308,0.3,0.82,20,400,0.25,1,0.01,0.5,0.1,,,,,,,,,,,,,,,,,,,,,,,,,,,,,,,,,,,,,,,,,,,,,,,,,,,,,,,,,,,,,,,,,,,,,,,,,,,,,,,,,
,,,,,848799,001,2025-03-12_13h57.25.042,Utility_discrimination_2024_2cat,2024.2.4,Win32,59.52380952,,,,,,,,3,"[0.5,0.5]","[0.383,0.924]",d,"[0.5730797865971965,0.5]","[0.4269202134028035,0.5]",217.0008,219.0935,1,d,1,0.5709,,-0.263431343,0.362391147,0.625822489,219.0968,219.0968,0,80,80,80,1,0.073079787,0.073079787,shape_difference0,1,,TRUE,,intensity,0.1,4.94066E-324,1.79769E+308,0.3,0.82,20,400,0.25,1,0.01,0.5,0.1,,,,,,,,,,,,,,,,,,,,,,,,,,,,,,,,,,,,,,,,,,,,,,,,,,,,,,,,,,,,,,,,,,,,,,,,,,,,,,,,,
,,,,,848799,001,2025-03-12_13h57.25.042,Utility_discrimination_2024_2cat,2024.2.4,Win32,59.52380952,,,,,,,,2,"[0.5,0.5]","[0.707,0.707]",d,"[0.5263825210838126,0.5636486931630361]","[0.4736174789161874,0.4363513068369638]",219.099,221.2084,1,s,1,0.583,,-0.12850139,0.479686656,0.608188046,221.2125,221.2126,0,81,81,81,1,0.068883867,0.068883867,shape_difference3,1,,TRUE,,intensity,0.1,4.94066E-324,1.79769E+308,0.3,0.82,20,400,0.25,1,0.01,0.5,0.1,,,,,,,,,,,,,,,,,,,,,,,,,,,,,,,,,,,,,,,,,,,,,,,,,,,,,,,,,,,,,,,,,,,,,,,,,,,,,,,,,
,,,,,848799,001,2025-03-12_13h57.25.042,Utility_discrimination_2024_2cat,2024.2.4,Win32,59.52380952,,,,,,,,1,"[0.5,0.5]","[0.924,0.383]",s,"[0.6349867099303791,0.6349867099303791]","[0.3650132900696209,0.3650132900696209]",221.2139,223.1232,1,s,1,0.388,,-0.13340389,0.473307753,0.606711644,223.1262,223.1263,0,82,82,82,1,0.190928868,0.190928868,shape_difference2,1,,TRUE,,intensity,0.1,4.94066E-324,1.79769E+308,0.3,0.82,20,400,0.25,1,0.01,0.5,0.1,,,,,,,,,,,,,,,,,,,,,,,,,,,,,,,,,,,,,,,,,,,,,,,,,,,,,,,,,,,,,,,,,,,,,,,,,,,,,,,,,
,,,,,848799,001,2025-03-12_13h57.25.042,Utility_discrimination_2024_2cat,2024.2.4,Win32,59.52380952,,,,,,,,4,"[0.5,0.5]","[0,1]",s,"[0.6709051861531035,0.5708405695851068]","[0.32909481384689654,0.42915943041489324]",223.1277,224.9552,1,d,1,0.3046,,0.016226764,0.599063148,0.582836384,224.9584,224.9584,0,83,83,83,1,0.184962323,0.184962323,shape_difference1,1,,TRUE,,intensity,0.1,4.94066E-324,1.79769E+308,0.3,0.82,20,400,0.25,1,0.01,0.5,0.1,,,,,,,,,,,,,,,,,,,,,,,,,,,,,,,,,,,,,,,,,,,,,,,,,,,,,,,,,,,,,,,,,,,,,,,,,,,,,,,,,
,,,,,848799,001,2025-03-12_13h57.25.042,Utility_discrimination_2024_2cat,2024.2.4,Win32,59.52380952,,,,,,,,1,"[0.5,0.5]","[0.924,0.383]",d,"[0.5,0.8261209283279228]","[0.5,0.17387907167207717]",224.9608,226.8698,1,s,1,0.3915,,-0.146203275,0.453516583,0.599719858,226.874,226.874,0,84,84,84,1,0.326120928,0.326120928,shape_difference4,1,,TRUE,,intensity,0.1,4.94066E-324,1.79769E+308,0.3,0.82,20,400,0.25,1,0.01,0.5,0.1,,,,,,,,,,,,,,,,,,,,,,,,,,,,,,,,,,,,,,,,,,,,,,,,,,,,,,,,,,,,,,,,,,,,,,,,,,,,,,,,,
,,,,,848799,001,2025-03-12_13h57.25.042,Utility_discrimination_2024_2cat,2024.2.4,Win32,59.52380952,,,,,,,,2,"[0.5,0.5]","[0.707,0.707]",s,"[0.6568653366548096,0.5650210215787793]","[0.34313466334519044,0.4349789784212207]",226.876,228.7351,1,d,1,0.3412,,-0.14225926,0.460880803,0.603140063,228.7385,228.7386,0,85,85,85,1,0.16976768,0.16976768,shape_difference1,1,,TRUE,,intensity,0.1,4.94066E-324,1.79769E+308,0.3,0.82,20,400,0.25,1,0.01,0.5,0.1,,,,,,,,,,,,,,,,,,,,,,,,,,,,,,,,,,,,,,,,,,,,,,,,,,,,,,,,,,,,,,,,,,,,,,,,,,,,,,,,,
,,,,,848799,001,2025-03-12_13h57.25.042,Utility_discrimination_2024_2cat,2024.2.4,Win32,59.52380952,,,,,,,,0,"[0.5,0.5]","[1,0]",d,"[0.6240833953193323,0.6240833953193323]","[0.3759166046806677,0.3759166046806677]",228.7399,230.5836,1,d,1,0.3171,,-0.270036206,0.343531532,0.613567738,230.5869,230.587,0,86,86,86,1,0.175506924,0.175506924,shape_difference2,1,,TRUE,,intensity,0.1,4.94066E-324,1.79769E+308,0.3,0.82,20,400,0.25,1,0.01,0.5,0.1,,,,,,,,,,,,,,,,,,,,,,,,,,,,,,,,,,,,,,,,,,,,,,,,,,,,,,,,,,,,,,,,,,,,,,,,,,,,,,,,,
,,,,,848799,001,2025-03-12_13h57.25.042,Utility_discrimination_2024_2cat,2024.2.4,Win32,59.52380952,,,,,,,,4,"[0.5,0.5]","[0,1]",d,"[0.5572638783472129,0.5]","[0.4427361216527871,0.5]",230.5887,232.4152,1,s,1,0.2963,,0.008735381,0.584479378,0.575743997,232.42,232.42,0,87,87,87,1,0.057263878,0.057263878,shape_difference0,1,,TRUE,,intensity,0.1,4.94066E-324,1.79769E+308,0.3,0.82,20,400,0.25,1,0.01,0.5,0.1,,,,,,,,,,,,,,,,,,,,,,,,,,,,,,,,,,,,,,,,,,,,,,,,,,,,,,,,,,,,,,,,,,,,,,,,,,,,,,,,,
,,,,,848799,001,2025-03-12_13h57.25.042,Utility_discrimination_2024_2cat,2024.2.4,Win32,59.52380952,,,,,,,,3,"[0.5,0.5]","[0.383,0.924]",s,"[0.5,0.8091525287535276]","[0.5,0.1908474712464724]",232.4215,234.3136,0,d,0,0.3662,,-0.27354744,0.339650981,0.613198422,234.3178,234.3179,0,88,88,88,1,0.309152529,0.309152529,shape_difference4,1,,TRUE,,intensity,0.1,4.94066E-324,1.79769E+308,0.3,0.82,20,400,0.25,1,0.01,0.5,0.1,,,,,,,,,,,,,,,,,,,,,,,,,,,,,,,,,,,,,,,,,,,,,,,,,,,,,,,,,,,,,,,,,,,,,,,,,,,,,,,,,
,,,,,848799,001,2025-03-12_13h57.25.042,Utility_discrimination_2024_2cat,2024.2.4,Win32,59.52380952,,,,,,,,4,"[0.5,0.5]","[0,1]",s,"[0.5202929441302967,0.548957390016695]","[0.4797070558697033,0.45104260998330503]",234.3197,236.3954,0,d,0,0.549,,0.068075104,0.649040621,0.580965517,236.3989,236.3989,0,89,89,89,1,0.052984188,0.052984188,shape_difference3,1,,TRUE,,intensity,0.1,4.94066E-324,1.79769E+308,0.3,0.82,20,400,0.25,1,0.01,0.5,0.1,,,,,,,,,,,,,,,,,,,,,,,,,,,,,,,,,,,,,,,,,,,,,,,,,,,,,,,,,,,,,,,,,,,,,,,,,,,,,,,,,
,,,,,848799,001,2025-03-12_13h57.25.042,Utility_discrimination_2024_2cat,2024.2.4,Win32,59.52380952,,,,,,,,0,"[0.5,0.5]","[1,0]",s,"[0.5,0.870842611308953]","[0.5,0.12915738869104698]",236.4003,238.2602,1,s,1,0.3337,,-0.279142612,0.317901129,0.597043741,238.2638,238.2638,0,90,90,90,1,0.370842611,0.370842611,shape_difference4,1,,TRUE,,intensity,0.1,4.94066E-324,1.79769E+308,0.3,0.82,20,400,0.25,1,0.01,0.5,0.1,,,,,,,,,,,,,,,,,,,,,,,,,,,,,,,,,,,,,,,,,,,,,,,,,,,,,,,,,,,,,,,,,,,,,,,,,,,,,,,,,
,,,,,848799,001,2025-03-12_13h57.25.042,Utility_discrimination_2024_2cat,2024.2.4,Win32,59.52380952,,,,,,,,2,"[0.5,0.5]","[0.707,0.707]",s,"[0.5417883205370003,0.5]","[0.4582116794629997,0.5]",238.2649,240.1085,0,s,0,0.3219,,-0.153854875,0.439228475,0.59308335,240.1104,240.1105,0,91,91,91,1,0.041788321,0.041788321,shape_difference0,1,,TRUE,,intensity,0.1,4.94066E-324,1.79769E+308,0.3,0.82,20,400,0.25,1,0.01,0.5,0.1,,,,,,,,,,,,,,,,,,,,,,,,,,,,,,,,,,,,,,,,,,,,,,,,,,,,,,,,,,,,,,,,,,,,,,,,,,,,,,,,,
,,,,,848799,001,2025-03-12_13h57.25.042,Utility_discrimination_2024_2cat,2024.2.4,Win32,59.52380952,,,,,,,,3,"[0.5,0.5]","[0.383,0.924]",d,"[0.6136084424545805,0.6136084424545805]","[0.38639155754541954,0.38639155754541954]",240.1114,241.9072,1,s,1,0.2765,,-0.184857516,0.405014704,0.589872219,241.9097,241.9099,0,92,92,92,1,0.160690866,0.160690866,shape_difference2,1,,TRUE,,intensity,0.1,4.94066E-324,1.79769E+308,0.3,0.82,20,400,0.25,1,0.01,0.5,0.1,,,,,,,,,,,,,,,,,,,,,,,,,,,,,,,,,,,,,,,,,,,,,,,,,,,,,,,,,,,,,,,,,,,,,,,,,,,,,,,,,
,,,,,848799,001,2025-03-12_13h57.25.042,Utility_discrimination_2024_2cat,2024.2.4,Win32,59.52380952,,,,,,,,1,"[0.5,0.5]","[0.924,0.383]",s,"[0.5486345079366297,0.6173323376852371]","[0.45136549206337034,0.3826676623147629]",241.9119,243.7887,1,d,1,0.3491,,-0.157023553,0.430596618,0.58762017,243.7922,243.7922,0,93,93,93,1,0.126983049,0.126983049,shape_difference3,1,,TRUE,,intensity,0.1,4.94066E-324,1.79769E+308,0.3,0.82,20,400,0.25,1,0.01,0.5,0.1,,,,,,,,,,,,,,,,,,,,,,,,,,,,,,,,,,,,,,,,,,,,,,,,,,,,,,,,,,,,,,,,,,,,,,,,,,,,,,,,,
,,,,,848799,001,2025-03-12_13h57.25.042,Utility_discrimination_2024_2cat,2024.2.4,Win32,59.52380952,,,,,,,,0,"[0.5,0.5]","[1,0]",d,"[0.6433048916980681,0.5594001877925975]","[0.35669510830193185,0.44059981220740246]",243.7934,245.6201,1,s,1,0.31,,-0.199397107,0.378876822,0.578273928,245.6222,245.6222,0,94,94,94,1,0.155091874,0.155091874,shape_difference1,1,,TRUE,,intensity,0.1,4.94066E-324,1.79769E+308,0.3,0.82,20,400,0.25,1,0.01,0.5,0.1,,,,,,,,,,,,,,,,,,,,,,,,,,,,,,,,,,,,,,,,,,,,,,,,,,,,,,,,,,,,,,,,,,,,,,,,,,,,,,,,,
,,,,,848799,001,2025-03-12_13h57.25.042,Utility_discrimination_2024_2cat,2024.2.4,Win32,59.52380952,,,,,,,,2,"[0.5,0.5]","[0.707,0.707]",s,"[0.5988263898634472,0.5]","[0.40117361013655284,0.5]",245.6233,247.6855,1,d,1,0.538,,-0.16372489,0.413902688,0.577627578,247.6892,247.6893,0,95,95,95,1,0.09882639,0.09882639,shape_difference0,1,,TRUE,,intensity,0.1,4.94066E-324,1.79769E+308,0.3,0.82,20,400,0.25,1,0.01,0.5,0.1,,,,,,,,,,,,,,,,,,,,,,,,,,,,,,,,,,,,,,,,,,,,,,,,,,,,,,,,,,,,,,,,,,,,,,,,,,,,,,,,,
,,,,,848799,001,2025-03-12_13h57.25.042,Utility_discrimination_2024_2cat,2024.2.4,Win32,59.52380952,,,,,,,,4,"[0.5,0.5]","[0,1]",d,"[0.6033958310624452,0.6033958310624452]","[0.3966041689375548,0.3966041689375548]",247.6915,249.5838,1,s,1,0.3694,,0.05643254,0.626199234,0.569766694,249.5864,249.5865,0,96,96,96,1,0.146245871,0.146245871,shape_difference2,1,,TRUE,,intensity,0.1,4.94066E-324,1.79769E+308,0.3,0.82,20,400,0.25,1,0.01,0.5,0.1,,,,,,,,,,,,,,,,,,,,,,,,,,,,,,,,,,,,,,,,,,,,,,,,,,,,,,,,,,,,,,,,,,,,,,,,,,,,,,,,,
,,,,,848799,001,2025-03-12_13h57.25.042,Utility_discrimination_2024_2cat,2024.2.4,Win32,59.52380952,,,,,,,,1,"[0.5,0.5]","[0.924,0.383]",s,"[0.5,0.8568732675898147]","[0.5,0.14312673241018525]",249.5873,251.3155,1,d,1,0.2042,,-0.166260699,0.403650468,0.569911167,251.319,251.3191,0,97,97,97,1,0.356873268,0.356873268,shape_difference4,1,,TRUE,,intensity,0.1,4.94066E-324,1.79769E+308,0.3,0.82,20,400,0.25,1,0.01,0.5,0.1,,,,,,,,,,,,,,,,,,,,,,,,,,,,,,,,,,,,,,,,,,,,,,,,,,,,,,,,,,,,,,,,,,,,,,,,,,,,,,,,,
,,,,,848799,001,2025-03-12_13h57.25.042,Utility_discrimination_2024_2cat,2024.2.4,Win32,59.52380952,,,,,,,,3,"[0.5,0.5]","[0.383,0.924]",d,"[0.6300145202579289,0.5538913000636221]","[0.3699854797420711,0.4461086999363779]",251.3203,253.2641,1,s,1,0.4166,,-0.192440039,0.387487331,0.57992737,253.2667,253.2668,0,98,98,98,1,0.140708355,0.140708355,shape_difference1,1,,TRUE,,intensity,0.1,4.94066E-324,1.79769E+308,0.3,0.82,20,400,0.25,1,0.01,0.5,0.1,,,,,,,,,,,,,,,,,,,,,,,,,,,,,,,,,,,,,,,,,,,,,,,,,,,,,,,,,,,,,,,,,,,,,,,,,,,,,,,,,
,,,,,848799,001,2025-03-12_13h57.25.042,Utility_discrimination_2024_2cat,2024.2.4,Win32,59.52380952,,,,,,,,2,"[0.5,0.5]","[0.707,0.707]",s,"[0.5420498538773575,0.60144664486339]","[0.4579501461226425,0.3985533551366101]",253.2693,255.0951,0,d,0,0.3089,,-0.173297602,0.393400306,0.566697908,255.0972,255.0973,0,99,99,99,1,0.109790741,0.109790741,shape_difference3,1,,TRUE,,intensity,0.1,4.94066E-324,1.79769E+308,0.3,0.82,20,400,0.25,1,0.01,0.5,0.1,,,,,,,,,,,,,,,,,,,,,,,,,,,,,,,,,,,,,,,,,,,,,,,,,,,,,,,,,,,,,,,,,,,,,,,,,,,,,,,,,
,,,,,848799,001,2025-03-12_13h57.25.042,Utility_discrimination_2024_2cat,2024.2.4,Win32,59.52380952,,,,,,,,3,"[0.5,0.5]","[0.383,0.924]",s,"[0.5927636892956543,0.5927636892956543]","[0.4072363107043458,0.4072363107043458]",255.098,256.9939,1,s,1,0.3756,,-0.132350333,0.455136851,0.587487184,256.9976,256.9977,0,100,100,100,1,0.131207481,0.131207481,shape_difference2,1,,TRUE,,intensity,0.1,4.94066E-324,1.79769E+308,0.3,0.82,20,400,0.25,1,0.01,0.5,0.1,,,,,,,,,,,,,,,,,,,,,,,,,,,,,,,,,,,,,,,,,,,,,,,,,,,,,,,,,,,,,,,,,,,,,,,,,,,,,,,,,
,,,,,848799,001,2025-03-12_13h57.25.042,Utility_discrimination_2024_2cat,2024.2.4,Win32,59.52380952,,,,,,,,1,"[0.5,0.5]","[0.924,0.383]",s,"[0.5659575254145144,0.659124682723267]","[0.43404247458548567,0.34087531727673304]",256.9991,258.8591,1,s,1,0.3315,,-0.175260451,0.388494189,0.563754641,258.8612,258.8613,0,101,101,101,1,0.17221286,0.17221286,shape_difference3,1,,TRUE,,intensity,0.1,4.94066E-324,1.79769E+308,0.3,0.82,20,400,0.25,1,0.01,0.5,0.1,,,,,,,,,,,,,,,,,,,,,,,,,,,,,,,,,,,,,,,,,,,,,,,,,,,,,,,,,,,,,,,,,,,,,,,,,,,,,,,,,
,,,,,848799,001,2025-03-12_13h57.25.042,Utility_discrimination_2024_2cat,2024.2.4,Win32,59.52380952,,,,,,,,4,"[0.5,0.5]","[0,1]",s,"[0.6160748453149836,0.5481132746273146]","[0.38392515468501637,0.45188672537268537]",258.8626,260.724,1,s,1,0.3386,,0.046534119,0.599721273,0.553187153,260.7278,260.7279,0,102,102,102,1,0.125622127,0.125622127,shape_difference1,1,,TRUE,,intensity,0.1,4.94066E-324,1.79769E+308,0.3,0.82,20,400,0.25,1,0.01,0.5,0.1,,,,,,,,,,,,,,,,,,,,,,,,,,,,,,,,,,,,,,,,,,,,,,,,,,,,,,,,,,,,,,,,,,,,,,,,,,,,,,,,,
,,,,,848799,001,2025-03-12_13h57.25.042,Utility_discrimination_2024_2cat,2024.2.4,Win32,59.52380952,,,,,,,,0,"[0.5,0.5]","[1,0]",s,"[0.5,0.8432110075130397]","[0.5,0.15678899248696038]",260.729,262.5726,1,s,1,0.3159,,-0.215494051,0.361146286,0.576640337,262.5759,262.5759,0,103,103,103,1,0.343211008,0.343211008,shape_difference4,1,,TRUE,,intensity,0.1,4.94066E-324,1.79769E+308,0.3,0.82,20,400,0.25,1,0.01,0.5,0.1,,,,,,,,,,,,,,,,,,,,,,,,,,,,,,,,,,,,,,,,,,,,,,,,,,,,,,,,,,,,,,,,,,,,,,,,,,,,,,,,,
,,,,,848799,001,2025-03-12_13h57.25.042,Utility_discrimination_2024_2cat,2024.2.4,Win32,59.52380952,,,,,,,,4,"[0.5,0.5]","[0,1]",s,"[0.5843224893333996,0.5]","[0.41567751066660036,0.5]",262.5774,264.4209,0,s,0,0.3199,,0.03701086,0.587049939,0.550039079,264.424,264.424,0,104,104,104,1,0.084322489,0.084322489,shape_difference0,1,,TRUE,,intensity,0.1,4.94066E-324,1.79769E+308,0.3,0.82,20,400,0.25,1,0.01,0.5,0.1,,,,,,,,,,,,,,,,,,,,,,,,,,,,,,,,,,,,,,,,,,,,,,,,,,,,,,,,,,,,,,,,,,,,,,,,,,,,,,,,,
,,,,,848799,001,2025-03-12_13h57.25.042,Utility_discrimination_2024_2cat,2024.2.4,Win32,59.52380952,,,,,,,,1,"[0.5,0.5]","[0.924,0.383]",d,"[0.5,0.8289568671807472]","[0.5,0.1710431328192527]",264.4259,266.3693,1,s,1,0.4265,,-0.183078306,0.374020092,0.557098397,266.3726,266.3726,0,105,105,105,1,0.328956867,0.328956867,shape_difference4,1,,TRUE,,intensity,0.1,4.94066E-324,1.79769E+308,0.3,0.82,20,400,0.25,1,0.01,0.5,0.1,,,,,,,,,,,,,,,,,,,,,,,,,,,,,,,,,,,,,,,,,,,,,,,,,,,,,,,,,,,,,,,,,,,,,,,,,,,,,,,,,
,,,,,848799,001,2025-03-12_13h57.25.042,Utility_discrimination_2024_2cat,2024.2.4,Win32,59.52380952,,,,,,,,3,"[0.5,0.5]","[0.383,0.924]",s,"[0.6018224538715011,0.5422056275246591]","[0.39817754612849887,0.457794372475341]",266.3742,268.2508,1,d,1,0.3516,,-0.144103274,0.432535157,0.576638432,268.2536,268.2537,0,106,106,106,1,0.110197461,0.110197461,shape_difference1,1,,TRUE,,intensity,0.1,4.94066E-324,1.79769E+308,0.3,0.82,20,400,0.25,1,0.01,0.5,0.1,,,,,,,,,,,,,,,,,,,,,,,,,,,,,,,,,,,,,,,,,,,,,,,,,,,,,,,,,,,,,,,,,,,,,,,,,,,,,,,,,
,,,,,848799,001,2025-03-12_13h57.25.042,Utility_discrimination_2024_2cat,2024.2.4,Win32,59.52380952,,,,,,,,0,"[0.5,0.5]","[1,0]",d,"[0.5605159105686582,0.6459966093092435]","[0.4394840894313417,0.35400339069075654]",268.2552,270.1327,1,d,1,0.3568,,-0.154732502,0.420024545,0.574757047,270.1356,270.1356,0,107,107,107,1,0.158004988,0.158004988,shape_difference3,1,,TRUE,,intensity,0.1,4.94066E-324,1.79769E+308,0.3,0.82,20,400,0.25,1,0.01,0.5,0.1,,,,,,,,,,,,,,,,,,,,,,,,,,,,,,,,,,,,,,,,,,,,,,,,,,,,,,,,,,,,,,,,,,,,,,,,,,,,,,,,,
,,,,,848799,001,2025-03-12_13h57.25.042,Utility_discrimination_2024_2cat,2024.2.4,Win32,59.52380952,,,,,,,,2,"[0.5,0.5]","[0.707,0.707]",d,"[0.6490822775313759,0.5]","[0.35091772246862407,0.5]",270.147,271.9973,1,d,1,0.3438,,-0.181590221,0.379488339,0.56107856,272.0016,272.0017,0,108,108,108,1,0.149082278,0.149082278,shape_difference0,1,,TRUE,,intensity,0.1,4.94066E-324,1.79769E+308,0.3,0.82,20,400,0.25,1,0.01,0.5,0.1,,,,,,,,,,,,,,,,,,,,,,,,,,,,,,,,,,,,,,,,,,,,,,,,,,,,,,,,,,,,,,,,,,,,,,,,,,,,,,,,,
,,,,,848799,001,2025-03-12_13h57.25.042,Utility_discrimination_2024_2cat,2024.2.4,Win32,59.52380952,,,,,,,,4,"[0.5,0.5]","[0,1]",d,"[0.5819453727047484,0.5819453727047484]","[0.4180546272952515,0.4180546272952515]",272.004,273.8625,1,d,1,0.3414,,0.028811392,0.573025635,0.544214244,273.8663,273.8663,0,109,109,109,1,0.115905761,0.115905761,shape_difference2,1,,TRUE,,intensity,0.1,4.94066E-324,1.79769E+308,0.3,0.82,20,400,0.25,1,0.01,0.5,0.1,,,,,,,,,,,,,,,,,,,,,,,,,,,,,,,,,,,,,,,,,,,,,,,,,,,,,,,,,,,,,,,,,,,,,,,,,,,,,,,,,
,,,,,848799,001,2025-03-12_13h57.25.042,Utility_discrimination_2024_2cat,2024.2.4,Win32,59.52380952,,,,,,,,2,"[0.5,0.5]","[0.707,0.707]",d,"[0.5,0.814443605425339]","[0.5,0.185556394574661]",273.8679,275.6607,1,d,1,0.2755,,-0.188859795,0.363901866,0.552761661,275.6636,275.6636,0,110,110,110,1,0.314443605,0.314443605,shape_difference4,1,,TRUE,,intensity,0.1,4.94066E-324,1.79769E+308,0.3,0.82,20,400,0.25,1,0.01,0.5,0.1,,,,,,,,,,,,,,,,,,,,,,,,,,,,,,,,,,,,,,,,,,,,,,,,,,,,,,,,,,,,,,,,,,,,,,,,,,,,,,,,,
,,,,,848799,001,2025-03-12_13h57.25.042,Utility_discrimination_2024_2cat,2024.2.4,Win32,59.52380952,,,,,,,,3,"[0.5,0.5]","[0.383,0.924]",d,"[0.5707824402258966,0.5707824402258966]","[0.42921755977410336,0.42921755977410336]",275.6646,277.4921,1,d,1,0.2971,,-0.154083638,0.406062663,0.560146301,277.494,277.494,0,111,111,111,1,0.100116606,0.100116606,shape_difference2,1,,TRUE,,intensity,0.1,4.94066E-324,1.79769E+308,0.3,0.82,20,400,0.25,1,0.01,0.5,0.1,,,,,,,,,,,,,,,,,,,,,,,,,,,,,,,,,,,,,,,,,,,,,,,,,,,,,,,,,,,,,,,,,,,,,,,,,,,,,,,,,
,,,,,848799,001,2025-03-12_13h57.25.042,Utility_discrimination_2024_2cat,2024.2.4,Win32,59.52380952,,,,,,,,0,"[0.5,0.5]","[1,0]",d,"[0.5552065552733076,0.6331876163773793]","[0.44479344472669236,0.3668123836226207]",277.4955,279.2577,1,s,1,0.236,,-0.164607826,0.396295325,0.560903151,279.2609,279.2609,0,112,112,112,1,0.144142442,0.144142442,shape_difference3,1,,TRUE,,intensity,0.1,4.94066E-324,1.79769E+308,0.3,0.82,20,400,0.25,1,0.01,0.5,0.1,,,,,,,,,,,,,,,,,,,,,,,,,,,,,,,,,,,,,,,,,,,,,,,,,,,,,,,,,,,,,,,,,,,,,,,,,,,,,,,,,
,,,,,848799,001,2025-03-12_13h57.25.042,Utility_discrimination_2024_2cat,2024.2.4,Win32,59.52380952,,,,,,,,1,"[0.5,0.5]","[0.924,0.383]",s,"[0.6342997866027545,0.5]","[0.36570021339724545,0.5]",279.2618,281.0895,1,d,1,0.3122,,-0.189949674,0.357712241,0.547661916,281.0907,281.0907,0,113,113,113,1,0.134299787,0.134299787,shape_difference0,1,,TRUE,,intensity,0.1,4.94066E-324,1.79769E+308,0.3,0.82,20,400,0.25,1,0.01,0.5,0.1,,,,,,,,,,,,,,,,,,,,,,,,,,,,,,,,,,,,,,,,,,,,,,,,,,,,,,,,,,,,,,,,,,,,,,,,,,,,,,,,,
,,,,,848799,001,2025-03-12_13h57.25.042,Utility_discrimination_2024_2cat,2024.2.4,Win32,59.52380952,,,,,,,,2,"[0.5,0.5]","[0.707,0.707]",d,"[0.5880828659091629,0.5365105385749019]","[0.4119171340908371,0.46348946142509806]",281.0914,282.9542,1,s,1,0.3333,,-0.195310199,0.346160953,0.541471153,282.9566,282.9566,0,114,114,114,1,0.095327777,0.095327777,shape_difference1,1,,TRUE,,intensity,0.1,4.94066E-324,1.79769E+308,0.3,0.82,20,400,0.25,1,0.01,0.5,0.1,,,,,,,,,,,,,,,,,,,,,,,,,,,,,,,,,,,,,,,,,,,,,,,,,,,,,,,,,,,,,,,,,,,,,,,,,,,,,,,,,
,,,,,848799,001,2025-03-12_13h57.25.042,Utility_discrimination_2024_2cat,2024.2.4,Win32,59.52380952,,,,,,,,0,"[0.5,0.5]","[1,0]",s,"[0.5616394462294276,0.5616394462294276]","[0.43836055377057237,0.43836055377057237]",282.9581,284.8029,1,s,1,0.3162,,-0.173090867,0.382589886,0.555680752,284.8075,284.8075,0,115,115,115,1,0.087184507,0.087184507,shape_difference2,1,,TRUE,,intensity,0.1,4.94066E-324,1.79769E+308,0.3,0.82,20,400,0.25,1,0.01,0.5,0.1,,,,,,,,,,,,,,,,,,,,,,,,,,,,,,,,,,,,,,,,,,,,,,,,,,,,,,,,,,,,,,,,,,,,,,,,,,,,,,,,,
,,,,,848799,001,2025-03-12_13h57.25.042,Utility_discrimination_2024_2cat,2024.2.4,Win32,59.52380952,,,,,,,,4,"[0.5,0.5]","[0,1]",s,"[0.6193374439493582,0.5]","[0.38066255605064186,0.5]",284.8092,286.7007,1,d,1,0.3758,,0.021679497,0.557255207,0.53557571,286.7027,286.7027,0,116,116,116,1,0.119337444,0.119337444,shape_difference0,1,,TRUE,,intensity,0.1,4.94066E-324,1.79769E+308,0.3,0.82,20,400,0.25,1,0.01,0.5,0.1,,,,,,,,,,,,,,,,,,,,,,,,,,,,,,,,,,,,,,,,,,,,,,,,,,,,,,,,,,,,,,,,,,,,,,,,,,,,,,,,,
,,,,,848799,001,2025-03-12_13h57.25.042,Utility_discrimination_2024_2cat,2024.2.4,Win32,59.52380952,,,,,,,,3,"[0.5,0.5]","[0.383,0.924]",d,"[0.5,0.7995719886495536]","[0.5,0.2004280113504464]",286.7039,288.5825,1,d,1,0.3498,,-0.163676699,0.389784208,0.553460907,288.5844,288.5844,0,117,117,117,1,0.299571989,0.299571989,shape_difference4,1,,TRUE,,intensity,0.1,4.94066E-324,1.79769E+308,0.3,0.82,20,400,0.25,1,0.01,0.5,0.1,,,,,,,,,,,,,,,,,,,,,,,,,,,,,,,,,,,,,,,,,,,,,,,,,,,,,,,,,,,,,,,,,,,,,,,,,,,,,,,,,
,,,,,848799,001,2025-03-12_13h57.25.042,Utility_discrimination_2024_2cat,2024.2.4,Win32,59.52380952,,,,,,,,1,"[0.5,0.5]","[0.924,0.383]",d,"[0.5496820656507284,0.6198596048597209]","[0.45031793434927153,0.38014039514027914]",288.5858,290.4143,1,s,1,0.3008,,-0.196061667,0.339056793,0.53511846,290.4171,290.4171,0,118,118,118,1,0.129718187,0.129718187,shape_difference3,1,,TRUE,,intensity,0.1,4.94066E-324,1.79769E+308,0.3,0.82,20,400,0.25,1,0.01,0.5,0.1,,,,,,,,,,,,,,,,,,,,,,,,,,,,,,,,,,,,,,,,,,,,,,,,,,,,,,,,,,,,,,,,,,,,,,,,,,,,,,,,,
,,,,,848799,001,2025-03-12_13h57.25.042,Utility_discrimination_2024_2cat,2024.2.4,Win32,59.52380952,,,,,,,,1,"[0.5,0.5]","[0.924,0.383]",s,"[0.5764259742504758,0.5316787317510089]","[0.42357402574952424,0.4683212682489911]",290.4179,292.3128,1,d,1,0.3677,,-0.204750908,0.317423408,0.522174316,292.3144,292.3144,0,119,119,119,1,0.082712093,0.082712093,shape_difference1,1,,TRUE,,intensity,0.1,4.94066E-324,1.79769E+308,0.3,0.82,20,400,0.25,1,0.01,0.5,0.1,,,,,,,,,,,,,,,,,,,,,,,,,,,,,,,,,,,,,,,,,,,,,,,,,,,,,,,,,,,,,,,,,,,,,,,,,,,,,,,,,
,,,,,848799,001,2025-03-12_13h57.25.042,Utility_discrimination_2024_2cat,2024.2.4,Win32,59.52380952,,,,,,,,0,"[0.5,0.5]","[1,0]",d,"[0.5652681911768949,0.527053806515964]","[0.4347318088231052,0.47294619348403605]",292.3152,294.1115,1,s,1,0.2696,,-0.180457585,0.36732347,0.547781055,294.1143,294.1144,0,120,120,120,1,0.070636571,0.070636571,shape_difference1,1,,TRUE,,intensity,0.1,4.94066E-324,1.79769E+308,0.3,0.82,20,400,0.25,1,0.01,0.5,0.1,,,,,,,,,,,,,,,,,,,,,,,,,,,,,,,,,,,,,,,,,,,,,,,,,,,,,,,,,,,,,,,,,,,,,,,,,,,,,,,,,
,,,,,848799,001,2025-03-12_13h57.25.042,Utility_discrimination_2024_2cat,2024.2.4,Win32,59.52380952,,,,,,,,4,"[0.5,0.5]","[0,1]",s,"[0.6039802938390324,0.5]","[0.39601970616096765,0.5]",294.1155,295.9429,1,s,1,0.3011,,0.015411438,0.53926269,0.523851252,295.9463,295.9463,0,121,121,121,1,0.103980294,0.103980294,shape_difference0,1,,TRUE,,intensity,0.1,4.94066E-324,1.79769E+308,0.3,0.82,20,400,0.25,1,0.01,0.5,0.1,,,,,,,,,,,,,,,,,,,,,,,,,,,,,,,,,,,,,,,,,,,,,,,,,,,,,,,,,,,,,,,,,,,,,,,,,,,,,,,,,
,,,,,848799,001,2025-03-12_13h57.25.042,Utility_discrimination_2024_2cat,2024.2.4,Win32,59.52380952,,,,,,,,2,"[0.5,0.5]","[0.707,0.707]",s,"[0.5,0.7875740164933177]","[0.5,0.2124259835066823]",295.9477,301.9377,1,d,1,4.463,,-0.203334449,0.325678164,0.529012614,301.9418,301.9418,0,122,122,122,1,0.287574016,0.287574016,shape_difference4,1,,TRUE,,intensity,0.1,4.94066E-324,1.79769E+308,0.3,0.82,20,400,0.25,1,0.01,0.5,0.1,,,,,,,,,,,,,,,,,,,,,,,,,,,,,,,,,,,,,,,,,,,,,,,,,,,,,,,,,,,,,,,,,,,,,,,,,,,,,,,,,
,,,,,848799,001,2025-03-12_13h57.25.042,Utility_discrimination_2024_2cat,2024.2.4,Win32,59.52380952,,,,,,,,3,"[0.5,0.5]","[0.383,0.924]",d,"[0.5529361787443532,0.5529361787443532]","[0.44706382125564675,0.44706382125564675]",301.9431,304.3361,0,d,0,0.8769,,-0.171933192,0.375671134,0.547604326,304.3398,304.3399,0,123,123,123,1,0.074874369,0.074874369,shape_difference2,1,,TRUE,,intensity,0.1,4.94066E-324,1.79769E+308,0.3,0.82,20,400,0.25,1,0.01,0.5,0.1,,,,,,,,,,,,,,,,,,,,,,,,,,,,,,,,,,,,,,,,,,,,,,,,,,,,,,,,,,,,,,,,,,,,,,,,,,,,,,,,,
,,,,,848799,001,2025-03-12_13h57.25.042,Utility_discrimination_2024_2cat,2024.2.4,Win32,59.52380952,,,,,,,,2,"[0.5,0.5]","[0.707,0.707]",s,"[0.5440657330705486,0.6063100192093652]","[0.45593426692945144,0.3936899807906348]",304.3413,306.4671,0,s,0,0.6004,,-0.153793486,0.381852505,0.535645991,306.4703,306.4703,0,124,124,124,1,0.115054133,0.115054133,shape_difference3,1,,TRUE,,intensity,0.1,4.94066E-324,1.79769E+308,0.3,0.82,20,400,0.25,1,0.01,0.5,0.1,,,,,,,,,,,,,,,,,,,,,,,,,,,,,,,,,,,,,,,,,,,,,,,,,,,,,,,,,,,,,,,,,,,,,,,,,,,,,,,,,
,,,,,848799,001,2025-03-12_13h57.25.042,Utility_discrimination_2024_2cat,2024.2.4,Win32,59.52380952,,,,,,,,3,"[0.5,0.5]","[0.383,0.924]",d,"[0.5931526108195854,0.5931526108195854]","[0.4068473891804147,0.4068473891804147]",306.4711,308.399,1,d,1,0.4059,,-0.107454085,0.429732709,0.537186795,308.4011,308.4012,0,125,125,125,1,0.131757582,0.131757582,shape_difference2,1,,TRUE,,intensity,0.1,4.94066E-324,1.79769E+308,0.3,0.82,20,400,0.25,1,0.01,0.5,0.1,,,,,,,,,,,,,,,,,,,,,,,,,,,,,,,,,,,,,,,,,,,,,,,,,,,,,,,,,,,,,,,,,,,,,,,,,,,,,,,,,
,,,,,848799,001,2025-03-12_13h57.25.042,Utility_discrimination_2024_2cat,2024.2.4,Win32,59.52380952,,,,,,,,0,"[0.5,0.5]","[1,0]",d,"[0.5643851091393537,0.6553311771403729]","[0.4356148908606463,0.3446688228596271]",308.4026,310.4635,1,s,1,0.5375,,-0.186926219,0.350044032,0.536970251,310.4656,310.4656,0,126,126,126,1,0.168107335,0.168107335,shape_difference3,1,,TRUE,,intensity,0.1,4.94066E-324,1.79769E+308,0.3,0.82,20,400,0.25,1,0.01,0.5,0.1,,,,,,,,,,,,,,,,,,,,,,,,,,,,,,,,,,,,,,,,,,,,,,,,,,,,,,,,,,,,,,,,,,,,,,,,,,,,,,,,,
,,,,,848799,001,2025-03-12_13h57.25.042,Utility_discrimination_2024_2cat,2024.2.4,Win32,59.52380952,,,,,,,,4,"[0.5,0.5]","[0,1]",s,"[0.59061737994205,0.5]","[0.40938262005794995,0.5]",310.4663,312.4454,1,s,1,0.4569,,0.009844173,0.51846707,0.508622897,312.4486,312.4486,0,127,127,127,1,0.09061738,0.09061738,shape_difference0,1,,TRUE,,intensity,0.1,4.94066E-324,1.79769E+308,0.3,0.82,20,400,0.25,1,0.01,0.5,0.1,,,,,,,,,,,,,,,,,,,,,,,,,,,,,,,,,,,,,,,,,,,,,,,,,,,,,,,,,,,,,,,,,,,,,,,,,,,,,,,,,
,,,,,848799,001,2025-03-12_13h57.25.042,Utility_discrimination_2024_2cat,2024.2.4,Win32,59.52380952,,,,,,,,1,"[0.5,0.5]","[0.924,0.383]",s,"[0.5,0.7761575525036803]","[0.5,0.2238424474963196]",312.4495,314.2773,1,d,1,0.3037,,-0.219271385,0.296943544,0.516214929,314.2795,314.2796,0,128,128,128,1,0.276157553,0.276157553,shape_difference4,1,,TRUE,,intensity,0.1,4.94066E-324,1.79769E+308,0.3,0.82,20,400,0.25,1,0.01,0.5,0.1,,,,,,,,,,,,,,,,,,,,,,,,,,,,,,,,,,,,,,,,,,,,,,,,,,,,,,,,,,,,,,,,,,,,,,,,,,,,,,,,,
,,,,,848799,001,2025-03-12_13h57.25.042,Utility_discrimination_2024_2cat,2024.2.4,Win32,59.52380952,,,,,,,,0,"[0.5,0.5]","[1,0]",d,"[0.5544556978426134,0.5225720046252391]","[0.4455443021573866,0.4774279953747609]",314.2809,316.1422,1,d,1,0.3322,,-0.192670525,0.330201617,0.522872142,316.1456,316.1457,0,129,129,129,1,0.058934738,0.058934738,shape_difference1,1,,TRUE,,intensity,0.1,4.94066E-324,1.79769E+308,0.3,0.82,20,400,0.25,1,0.01,0.5,0.1,,,,,,,,,,,,,,,,,,,,,,,,,,,,,,,,,,,,,,,,,,,,,,,,,,,,,,,,,,,,,,,,,,,,,,,,,,,,,,,,,
,,,,,848799,001,2025-03-12_13h57.25.042,Utility_discrimination_2024_2cat,2024.2.4,Win32,59.52380952,,,,,,,,4,"[0.5,0.5]","[0,1]",d,"[0.5786099970260935,0.5]","[0.4213900029739065,0.5]",316.1476,317.9739,1,s,1,0.3064,,0.004846379,0.497789105,0.492942725,317.9769,317.9769,0,130,130,130,1,0.078609997,0.078609997,shape_difference0,1,,TRUE,,intensity,0.1,4.94066E-324,1.79769E+308,0.3,0.82,20,400,0.25,1,0.01,0.5,0.1,,,,,,,,,,,,,,,,,,,,,,,,,,,,,,,,,,,,,,,,,,,,,,,,,,,,,,,,,,,,,,,,,,,,,,,,,,,,,,,,,
,,,,,848799,001,2025-03-12_13h57.25.042,Utility_discrimination_2024_2cat,2024.2.4,Win32,59.52380952,,,,,,,,3,"[0.5,0.5]","[0.383,0.924]",s,"[0.5,0.765168403760994]","[0.5,0.234831596239006]",317.978,319.8223,0,s,0,0.3191,,-0.121010353,0.404732727,0.52574308,319.8243,319.8243,0,131,131,131,1,0.265168404,0.265168404,shape_difference4,1,,TRUE,,intensity,0.1,4.94066E-324,1.79769E+308,0.3,0.82,20,400,0.25,1,0.01,0.5,0.1,,,,,,,,,,,,,,,,,,,,,,,,,,,,,,,,,,,,,,,,,,,,,,,,,,,,,,,,,,,,,,,,,,,,,,,,,,,,,,,,,
,,,,,848799,001,2025-03-12_13h57.25.042,Utility_discrimination_2024_2cat,2024.2.4,Win32,59.52380952,,,,,,,,2,"[0.5,0.5]","[0.707,0.707]",d,"[0.5596586906853759,0.6439285383636746]","[0.44034130931462406,0.35607146163632547]",319.825,321.6541,0,s,0,0.3058,,-0.162825042,0.36814343,0.530968473,321.6571,321.6578,0,132,132,132,1,0.155766816,0.155766816,shape_difference3,1,,TRUE,,intensity,0.1,4.94066E-324,1.79769E+308,0.3,0.82,20,400,0.25,1,0.01,0.5,0.1,,,,,,,,,,,,,,,,,,,,,,,,,,,,,,,,,,,,,,,,,,,,,,,,,,,,,,,,,,,,,,,,,,,,,,,,,,,,,,,,,
,,,,,848799,001,2025-03-12_13h57.25.042,Utility_discrimination_2024_2cat,2024.2.4,Win32,59.52380952,,,,,,,,1,"[0.5,0.5]","[0.924,0.383]",d,"[0.5836739512940932,0.5836739512940932]","[0.4163260487059069,0.4163260487059069]",321.659,323.5189,1,d,1,0.3322,,-0.231651862,0.286124411,0.517776272,323.5229,323.5229,0,133,133,133,1,0.118350709,0.118350709,shape_difference2,1,,TRUE,,intensity,0.1,4.94066E-324,1.79769E+308,0.3,0.82,20,400,0.25,1,0.01,0.5,0.1,,,,,,,,,,,,,,,,,,,,,,,,,,,,,,,,,,,,,,,,,,,,,,,,,,,,,,,,,,,,,,,,,,,,,,,,,,,,,,,,,
,,,,,848799,001,2025-03-12_13h57.25.042,Utility_discrimination_2024_2cat,2024.2.4,Win32,59.52380952,,,,,,,,0,"[0.5,0.5]","[1,0]",d,"[0.5438489105452233,0.5181754683320569]","[0.4561510894547767,0.48182453166794315]",323.5241,325.5836,1,s,1,0.5415,,-0.197829797,0.307121709,0.504951506,325.5854,325.5854,0,134,134,134,1,0.047455531,0.047455531,shape_difference1,1,,TRUE,,intensity,0.1,4.94066E-324,1.79769E+308,0.3,0.82,20,400,0.25,1,0.01,0.5,0.1,,,,,,,,,,,,,,,,,,,,,,,,,,,,,,,,,,,,,,,,,,,,,,,,,,,,,,,,,,,,,,,,,,,,,,,,,,,,,,,,,
,,,,,848799,001,2025-03-12_13h57.25.042,Utility_discrimination_2024_2cat,2024.2.4,Win32,59.52380952,,,,,,,,2,"[0.5,0.5]","[0.707,0.707]",s,"[0.5670880443753603,0.5]","[0.4329119556246397,0.5]",325.5865,327.4324,1,s,1,0.319,,-0.17065787,0.352700467,0.523358338,327.4349,327.4349,0,135,135,135,1,0.067088044,0.067088044,shape_difference0,1,,TRUE,,intensity,0.1,4.94066E-324,1.79769E+308,0.3,0.82,20,400,0.25,1,0.01,0.5,0.1,,,,,,,,,,,,,,,,,,,,,,,,,,,,,,,,,,,,,,,,,,,,,,,,,,,,,,,,,,,,,,,,,,,,,,,,,,,,,,,,,
,,,,,848799,001,2025-03-12_13h57.25.042,Utility_discrimination_2024_2cat,2024.2.4,Win32,59.52380952,,,,,,,,4,"[0.5,0.5]","[0,1]",s,"[0.5739132778848268,0.5739132778848268]","[0.42608672211517323,0.42608672211517323]",327.4368,329.2641,1,s,1,0.3013,,0.045566209,0.561500961,0.515934753,329.2669,329.267,0,136,136,136,1,0.104544948,0.104544948,shape_difference2,1,,TRUE,,intensity,0.1,4.94066E-324,1.79769E+308,0.3,0.82,20,400,0.25,1,0.01,0.5,0.1,,,,,,,,,,,,,,,,,,,,,,,,,,,,,,,,,,,,,,,,,,,,,,,,,,,,,,,,,,,,,,,,,,,,,,,,,,,,,,,,,
,,,,,848799,001,2025-03-12_13h57.25.042,Utility_discrimination_2024_2cat,2024.2.4,Win32,59.52380952,,,,,,,,3,"[0.5,0.5]","[0.383,0.924]",s,"[0.5,0.8163353878491236]","[0.5,0.18366461215087637]",329.2683,331.0461,1,d,1,0.252,,-0.06818424,0.473984258,0.542168498,331.0498,331.0499,0,137,137,137,1,0.316335388,0.316335388,shape_difference4,1,,TRUE,,intensity,0.1,4.94066E-324,1.79769E+308,0.3,0.82,20,400,0.25,1,0.01,0.5,0.1,,,,,,,,,,,,,,,,,,,,,,,,,,,,,,,,,,,,,,,,,,,,,,,,,,,,,,,,,,,,,,,,,,,,,,,,,,,,,,,,,
,,,,,848799,001,2025-03-12_13h57.25.042,Utility_discrimination_2024_2cat,2024.2.4,Win32,59.52380952,,,,,,,,1,"[0.5,0.5]","[0.924,0.383]",d,"[0.5815514103363363,0.6967454390359653]","[0.4184485896636637,0.3032545609640347]",331.0521,332.9278,0,d,0,0.3494,,-0.2435448,0.27433967,0.51788447,332.9317,332.9317,0,138,138,138,1,0.212927964,0.212927964,shape_difference3,1,,TRUE,,intensity,0.1,4.94066E-324,1.79769E+308,0.3,0.82,20,400,0.25,1,0.01,0.5,0.1,,,,,,,,,,,,,,,,,,,,,,,,,,,,,,,,,,,,,,,,,,,,,,,,,,,,,,,,,,,,,,,,,,,,,,,,,,,,,,,,,
,,,,,848799,001,2025-03-12_13h57.25.042,Utility_discrimination_2024_2cat,2024.2.4,Win32,59.52380952,,,,,,,,3,"[0.5,0.5]","[0.383,0.924]",s,"[0.5327835210433755,0.5135888404324814]","[0.4672164789566245,0.4864111595675186]",332.9333,335.8915,0,d,0,1.4312,,-0.005175605,0.52750603,0.532681635,335.8948,335.8948,0,139,139,139,1,0.035480001,0.035480001,shape_difference1,1,,TRUE,,intensity,0.1,4.94066E-324,1.79769E+308,0.3,0.82,20,400,0.25,1,0.01,0.5,0.1,,,,,,,,,,,,,,,,,,,,,,,,,,,,,,,,,,,,,,,,,,,,,,,,,,,,,,,,,,,,,,,,,,,,,,,,,,,,,,,,,
,,,,,848799,001,2025-03-12_13h57.25.042,Utility_discrimination_2024_2cat,2024.2.4,Win32,59.52380952,,,,,,,,4,"[0.5,0.5]","[0,1]",s,"[0.6017769279189671,0.7455401603058108]","[0.39822307208103297,0.25445983969418917]",335.8967,338.1559,0,s,0,0.7409,,0.037654259,0.545678077,0.508023818,338.1583,338.1583,0,140,140,140,1,0.265736104,0.265736104,shape_difference3,1,,TRUE,,intensity,0.1,4.94066E-324,1.79769E+308,0.3,0.82,20,400,0.25,1,0.01,0.5,0.1,,,,,,,,,,,,,,,,,,,,,,,,,,,,,,,,,,,,,,,,,,,,,,,,,,,,,,,,,,,,,,,,,,,,,,,,,,,,,,,,,
,,,,,848799,001,2025-03-12_13h57.25.042,Utility_discrimination_2024_2cat,2024.2.4,Win32,59.52380952,,,,,,,,1,"[0.5,0.5]","[0.924,0.383]",d,"[0.5,0.8030825860982617]","[0.5,0.19691741390173834]",338.1589,340.2378,1,s,1,0.5569,,-0.187125478,0.313494081,0.500619559,340.2406,340.2406,0,141,141,141,1,0.303082586,0.303082586,shape_difference4,1,,TRUE,,intensity,0.1,4.94066E-324,1.79769E+308,0.3,0.82,20,400,0.25,1,0.01,0.5,0.1,,,,,,,,,,,,,,,,,,,,,,,,,,,,,,,,,,,,,,,,,,,,,,,,,,,,,,,,,,,,,,,,,,,,,,,,,,,,,,,,,
,,,,,848799,001,2025-03-12_13h57.25.042,Utility_discrimination_2024_2cat,2024.2.4,Win32,59.52380952,,,,,,,,2,"[0.5,0.5]","[0.707,0.707]",s,"[0.5722832688183339,0.5299615713824912]","[0.42771673118166603,0.4700384286175088]",340.2416,342.1195,1,d,1,0.3506,,-0.177515876,0.335067931,0.512583808,342.1219,342.1219,0,142,142,142,1,0.078228646,0.078228646,shape_difference1,1,,TRUE,,intensity,0.1,4.94066E-324,1.79769E+308,0.3,0.82,20,400,0.25,1,0.01,0.5,0.1,,,,,,,,,,,,,,,,,,,,,,,,,,,,,,,,,,,,,,,,,,,,,,,,,,,,,,,,,,,,,,,,,,,,,,,,,,,,,,,,,
,,,,,848799,001,2025-03-12_13h57.25.042,Utility_discrimination_2024_2cat,2024.2.4,Win32,59.52380952,,,,,,,,0,"[0.5,0.5]","[1,0]",d,"[0.565262370359729,0.565262370359729]","[0.434737629640271,0.434737629640271]",342.1226,344.1848,1,s,1,0.5317,,-0.207979645,0.292514489,0.500494135,344.1882,344.1882,0,143,143,143,1,0.092308869,0.092308869,shape_difference2,1,,TRUE,,intensity,0.1,4.94066E-324,1.79769E+308,0.3,0.82,20,400,0.25,1,0.01,0.5,0.1,,,,,,,,,,,,,,,,,,,,,,,,,,,,,,,,,,,,,,,,,,,,,,,,,,,,,,,,,,,,,,,,,,,,,,,,,,,,,,,,,
,,,,,848799,001,2025-03-12_13h57.25.042,Utility_discrimination_2024_2cat,2024.2.4,Win32,59.52380952,,,,,,,,4,"[0.5,0.5]","[0,1]",s,"[0.5558983757541924,0.5]","[0.4441016242458076,0.5]",344.1895,345.8326,1,d,1,0.1258,,0.030759777,0.527563405,0.496803627,345.8351,345.8351,0,144,144,144,1,0.055898376,0.055898376,shape_difference0,1,,TRUE,,intensity,0.1,4.94066E-324,1.79769E+308,0.3,0.82,20,400,0.25,1,0.01,0.5,0.1,,,,,,,,,,,,,,,,,,,,,,,,,,,,,,,,,,,,,,,,,,,,,,,,,,,,,,,,,,,,,,,,,,,,,,,,,,,,,,,,,
,,,,,848799,001,2025-03-12_13h57.25.042,Utility_discrimination_2024_2cat,2024.2.4,Win32,59.52380952,,,,,,,,1,"[0.5,0.5]","[0.924,0.383]",d,"[0.5,0.7917557267454214]","[0.5,0.20824427325457862]",345.8368,347.7977,0,d,0,0.4328,,-0.192307622,0.295981485,0.488289107,347.8015,347.8016,0,145,145,145,1,0.291755727,0.291755727,shape_difference4,1,,TRUE,,intensity,0.1,4.94066E-324,1.79769E+308,0.3,0.82,20,400,0.25,1,0.01,0.5,0.1,,,,,,,,,,,,,,,,,,,,,,,,,,,,,,,,,,,,,,,,,,,,,,,,,,,,,,,,,,,,,,,,,,,,,,,,,,,,,,,,,
,,,,,848799,001,2025-03-12_13h57.25.042,Utility_discrimination_2024_2cat,2024.2.4,Win32,59.52380952,,,,,,,,0,"[0.5,0.5]","[1,0]",s,"[0.5624909633817896,0.5259026395835773]","[0.43750903661821033,0.4740973604164227]",347.8026,349.6631,0,s,0,0.3438,,-0.220865246,0.281442037,0.502307283,349.6664,349.6665,0,146,146,146,1,0.067630913,0.067630913,shape_difference1,1,,TRUE,,intensity,0.1,4.94066E-324,1.79769E+308,0.3,0.82,20,400,0.25,1,0.01,0.5,0.1,,,,,,,,,,,,,,,,,,,,,,,,,,,,,,,,,,,,,,,,,,,,,,,,,,,,,,,,,,,,,,,,,,,,,,,,,,,,,,,,,
,,,,,848799,001,2025-03-12_13h57.25.042,Utility_discrimination_2024_2cat,2024.2.4,Win32,59.52380952,,,,,,,,3,"[0.5,0.5]","[0.383,0.924]",d,"[0.5449018406992948,0.5]","[0.4550981593007052,0.5]",349.6675,352.0442,1,d,1,0.8565,,0.039020573,0.58751924,0.548498667,352.0475,352.0475,0,147,147,147,1,0.044901841,0.044901841,shape_difference0,1,,TRUE,,intensity,0.1,4.94066E-324,1.79769E+308,0.3,0.82,20,400,0.25,1,0.01,0.5,0.1,,,,,,,,,,,,,,,,,,,,,,,,,,,,,,,,,,,,,,,,,,,,,,,,,,,,,,,,,,,,,,,,,,,,,,,,,,,,,,,,,
,,,,,848799,001,2025-03-12_13h57.25.042,Utility_discrimination_2024_2cat,2024.2.4,Win32,59.52380952,,,,,,,,2,"[0.5,0.5]","[0.707,0.707]",d,"[0.6244403557799098,0.8002164196883463]","[0.37555964422009025,0.19978358031165372]",352.0482,353.7263,0,s,0,0.15,,-0.18357884,0.314690564,0.498269403,353.7285,353.7285,0,148,148,148,1,0.324909545,0.324909545,shape_difference3,1,,TRUE,,intensity,0.1,4.94066E-324,1.79769E+308,0.3,0.82,20,400,0.25,1,0.01,0.5,0.1,,,,,,,,,,,,,,,,,,,,,,,,,,,,,,,,,,,,,,,,,,,,,,,,,,,,,,,,,,,,,,,,,,,,,,,,,,,,,,,,,
,,,,,848799,001,2025-03-12_13h57.25.042,Utility_discrimination_2024_2cat,2024.2.4,Win32,59.52380952,,,,,,,,2,"[0.5,0.5]","[0.707,0.707]",d,"[0.5575918474939886,0.5575918474939886]","[0.44240815250601145,0.44240815250601145]",353.7297,355.2579,1,s,1,0.0014,,-0.188991992,0.296690686,0.485682678,355.2623,355.2623,0,149,149,149,1,0.081459473,0.081459473,shape_difference2,1,,TRUE,,intensity,0.1,4.94066E-324,1.79769E+308,0.3,0.82,20,400,0.25,1,0.01,0.5,0.1,,,,,,,,,,,,,,,,,,,,,,,,,,,,,,,,,,,,,,,,,,,,,,,,,,,,,,,,,,,,,,,,,,,,,,,,,,,,,,,,,
,,,,,848799,001,2025-03-12_13h57.25.042,Utility_discrimination_2024_2cat,2024.2.4,Win32,59.52380952,,,,,,,,0,"[0.5,0.5]","[1,0]",s,"[0.5502341167459914,0.5502341167459914]","[0.4497658832540085,0.4497658832540085]",355.2638,357.073,0,d,0,0.2947,,-0.233201413,0.269330086,0.502531499,357.0749,357.0749,0,150,150,150,1,0.071052499,0.071052499,shape_difference2,1,,TRUE,,intensity,0.1,4.94066E-324,1.79769E+308,0.3,0.82,20,400,0.25,1,0.01,0.5,0.1,,,,,,,,,,,,,,,,,,,,,,,,,,,,,,,,,,,,,,,,,,,,,,,,,,,,,,,,,,,,,,,,,,,,,,,,,,,,,,,,,
,,,,,848799,001,2025-03-12_13h57.25.042,Utility_discrimination_2024_2cat,2024.2.4,Win32,59.52380952,,,,,,,,4,"[0.5,0.5]","[0,1]",s,"[0.5334156352324356,0.5]","[0.4665843647675644,0.5]",357.076,359.0711,1,s,1,0.4659,,0.085164917,0.5767467,0.491581783,359.0741,359.0741,0,151,151,151,1,0.033415635,0.033415635,shape_difference0,1,,TRUE,,intensity,0.1,4.94066E-324,1.79769E+308,0.3,0.82,20,400,0.25,1,0.01,0.5,0.1,,,,,,,,,,,,,,,,,,,,,,,,,,,,,,,,,,,,,,,,,,,,,,,,,,,,,,,,,,,,,,,,,,,,,,,,,,,,,,,,,
,,,,,848799,001,2025-03-12_13h57.25.042,Utility_discrimination_2024_2cat,2024.2.4,Win32,59.52380952,,,,,,,,3,"[0.5,0.5]","[0.383,0.924]",s,"[0.5,0.8403261852875432]","[0.5,0.15967381471245684]",359.0749,360.6198,0,s,0,0.024,,0.102808156,0.648313048,0.545504893,360.6219,360.6219,0,152,152,152,1,0.340326185,0.340326185,shape_difference4,1,,TRUE,,intensity,0.1,4.94066E-324,1.79769E+308,0.3,0.82,20,400,0.25,1,0.01,0.5,0.1,,,,,,,,,,,,,,,,,,,,,,,,,,,,,,,,,,,,,,,,,,,,,,,,,,,,,,,,,,,,,,,,,,,,,,,,,,,,,,,,,
,,,,,848799,001,2025-03-12_13h57.25.042,Utility_discrimination_2024_2cat,2024.2.4,Win32,59.52380952,,,,,,,,1,"[0.5,0.5]","[0.924,0.383]",d,"[0.644360542518758,0.8482745203324606]","[0.355639457481242,0.15172547966753935]",360.6225,362.7352,0,s,0,0.583,,-0.150184718,0.356807719,0.506992437,362.7374,362.7374,0,153,153,153,1,0.376920477,0.376920477,shape_difference3,1,,TRUE,,intensity,0.1,4.94066E-324,1.79769E+308,0.3,0.82,20,400,0.25,1,0.01,0.5,0.1,,,,,,,,,,,,,,,,,,,,,,,,,,,,,,,,,,,,,,,,,,,,,,,,,,,,,,,,,,,,,,,,,,,,,,,,,,,,,,,,,
,,,,,848799,001,2025-03-12_13h57.25.042,Utility_discrimination_2024_2cat,2024.2.4,Win32,59.52380952,,,,,,,,0,"[0.5,0.5]","[1,0]",d,"[0.6081386575256911,0.5448237076107573]","[0.39186134247430887,0.45517629238924273]",362.7381,364.4837,1,d,1,0.2155,,-0.243768545,0.255774798,0.499543343,364.4867,364.4867,0,154,154,154,1,0.117033179,0.117033179,shape_difference1,1,,TRUE,,intensity,0.1,4.94066E-324,1.79769E+308,0.3,0.82,20,400,0.25,1,0.01,0.5,0.1,,,,,,,,,,,,,,,,,,,,,,,,,,,,,,,,,,,,,,,,,,,,,,,,,,,,,,,,,,,,,,,,,,,,,,,,,,,,,,,,,
,,,,,848799,001,2025-03-12_13h57.25.042,Utility_discrimination_2024_2cat,2024.2.4,Win32,59.52380952,,,,,,,,2,"[0.5,0.5]","[0.707,0.707]",d,"[0.5217342678394801,0.5]","[0.47826573216052,0.5]",364.4878,366.2319,1,s,1,0.2222,,-0.145159893,0.356723056,0.501882949,366.2334,366.2334,0,155,155,155,1,0.021734268,0.021734268,shape_difference0,1,,TRUE,,intensity,0.1,4.94066E-324,1.79769E+308,0.3,0.82,20,400,0.25,1,0.01,0.5,0.1,,,,,,,,,,,,,,,,,,,,,,,,,,,,,,,,,,,,,,,,,,,,,,,,,,,,,,,,,,,,,,,,,,,,,,,,,,,,,,,,,
,,,,,848799,001,2025-03-12_13h57.25.042,Utility_discrimination_2024_2cat,2024.2.4,Win32,59.52380952,,,,,,,,3,"[0.5,0.5]","[0.383,0.924]",s,"[0.5845953079969033,0.5845953079969033]","[0.41540469200309665,0.41540469200309665]",366.2343,367.9137,1,s,1,0.1577,,0.146674025,0.700448584,0.553774558,367.9155,367.9155,0,156,156,156,1,0.119653901,0.119653901,shape_difference2,1,,TRUE,,intensity,0.1,4.94066E-324,1.79769E+308,0.3,0.82,20,400,0.25,1,0.01,0.5,0.1,,,,,,,,,,,,,,,,,,,,,,,,,,,,,,,,,,,,,,,,,,,,,,,,,,,,,,,,,,,,,,,,,,,,,,,,,,,,,,,,,
,,,,,848799,001,2025-03-12_13h57.25.042,Utility_discrimination_2024_2cat,2024.2.4,Win32,59.52380952,,,,,,,,4,"[0.5,0.5]","[0,1]",s,"[0.6678385162983574,0.9049158983281522]","[0.33216148370164256,0.09508410167184783]",367.9166,369.4794,1,s,1,0.035,,0.121156824,0.616551591,0.495394767,369.4838,369.4839,0,157,157,157,1,0.438220669,0.438220669,shape_difference3,1,,TRUE,,intensity,0.1,4.94066E-324,1.79769E+308,0.3,0.82,20,400,0.25,1,0.01,0.5,0.1,,,,,,,,,,,,,,,,,,,,,,,,,,,,,,,,,,,,,,,,,,,,,,,,,,,,,,,,,,,,,,,,,,,,,,,,,,,,,,,,,
,,,,,848799,001,2025-03-12_13h57.25.042,Utility_discrimination_2024_2cat,2024.2.4,Win32,59.52380952,,,,,,,,1,"[0.5,0.5]","[0.924,0.383]",s,"[0.5,0.880138395444493]","[0.5,0.11986160455550698]",369.4849,371.3771,1,s,1,0.3693,,-0.158473441,0.340862757,0.499336199,371.3798,371.3798,0,158,158,158,1,0.380138395,0.380138395,shape_difference4,1,,TRUE,,intensity,0.1,4.94066E-324,1.79769E+308,0.3,0.82,20,400,0.25,1,0.01,0.5,0.1,,,,,,,,,,,,,,,,,,,,,,,,,,,,,,,,,,,,,,,,,,,,,,,,,,,,,,,,,,,,,,,,,,,,,,,,,,,,,,,,,
,,,,,848799,001,2025-03-12_13h57.25.042,Utility_discrimination_2024_2cat,2024.2.4,Win32,59.52380952,,,,,,,,0,"[0.5,0.5]","[1,0]",s,"[0.5963985795777145,0.5399574198898968]","[0.4036014204222856,0.46004258011010324]",371.3806,373.5584,1,s,1,0.6527,,-0.25288759,0.24041374,0.493301331,373.561,373.561,0,159,159,159,1,0.104327467,0.104327467,shape_difference1,1,,TRUE,,intensity,0.1,4.94066E-324,1.79769E+308,0.3,0.82,20,400,0.25,1,0.01,0.5,0.1,,,,,,,,,,,,,,,,,,,,,,,,,,,,,,,,,,,,,,,,,,,,,,,,,,,,,,,,,,,,,,,,,,,,,,,,,,,,,,,,,
,,,,,848799,001,2025-03-12_13h57.25.042,Utility_discrimination_2024_2cat,2024.2.4,Win32,59.52380952,,,,,,,,1,"[0.5,0.5]","[0.924,0.383]",s,"[0.5097201041203931,0.5]","[0.4902798958796069,0.5]",373.5617,378.0712,0,d,0,2.9906,,-0.165692798,0.322577935,0.488270732,378.0764,378.0765,0,160,160,160,1,0.009720104,0.009720104,shape_difference0,1,,TRUE,,intensity,0.1,4.94066E-324,1.79769E+308,0.3,0.82,20,400,0.25,1,0.01,0.5,0.1,,,,,,,,,,,,,,,,,,,,,,,,,,,,,,,,,,,,,,,,,,,,,,,,,,,,,,,,,,,,,,,,,,,,,,,,,,,,,,,,,
,,,,,848799,001,2025-03-12_13h57.25.042,Utility_discrimination_2024_2cat,2024.2.4,Win32,59.52380952,,,,,,,,4,"[0.5,0.5]","[0,1]",s,"[0.5860367638082864,0.5356624248252962]","[0.4139632361917136,0.4643375751747038]",378.0779,379.9033,0,s,0,0.3043,,0.116035296,0.597297839,0.481262544,379.906,379.906,0,161,161,161,1,0.093113381,0.093113381,shape_difference1,1,,TRUE,,intensity,0.1,4.94066E-324,1.79769E+308,0.3,0.82,20,400,0.25,1,0.01,0.5,0.1,,,,,,,,,,,,,,,,,,,,,,,,,,,,,,,,,,,,,,,,,,,,,,,,,,,,,,,,,,,,,,,,,,,,,,,,,,,,,,,,,
,,,,,848799,001,2025-03-12_13h57.25.042,Utility_discrimination_2024_2cat,2024.2.4,Win32,59.52380952,,,,,,,,2,"[0.5,0.5]","[0.707,0.707]",d,"[0.5,0.8698810747575195]","[0.5,0.13011892524248048]",379.9076,389.4448,1,d,1,8.0168,,-0.153949145,0.341096715,0.49504586,389.4484,389.4485,0,162,162,162,1,0.369881075,0.369881075,shape_difference4,1,,TRUE,,intensity,0.1,4.94066E-324,1.79769E+308,0.3,0.82,20,400,0.25,1,0.01,0.5,0.1,,,,,,,,,,,,,,,,,,,,,,,,,,,,,,,,,,,,,,,,,,,,,,,,,,,,,,,,,,,,,,,,,,,,,,,,,,,,,,,,,
,,,,,848799,001,2025-03-12_13h57.25.042,Utility_discrimination_2024_2cat,2024.2.4,Win32,59.52380952,,,,,,,,3,"[0.5,0.5]","[0.383,0.924]",d,"[0.5758961291924991,0.5758961291924991]","[0.4241038708075009,0.4241038708075009]",389.4495,392.0094,1,s,1,1.0379,,0.137807602,0.686863454,0.549055853,392.0127,392.0127,0,163,163,163,1,0.107349546,0.107349546,shape_difference2,1,,TRUE,,intensity,0.1,4.94066E-324,1.79769E+308,0.3,0.82,20,400,0.25,1,0.01,0.5,0.1,,,,,,,,,,,,,,,,,,,,,,,,,,,,,,,,,,,,,,,,,,,,,,,,,,,,,,,,,,,,,,,,,,,,,,,,,,,,,,,,,
,,,,,848799,001,2025-03-12_13h57.25.042,Utility_discrimination_2024_2cat,2024.2.4,Win32,59.52380952,,,,,,,,3,"[0.5,0.5]","[0.383,0.924]",s,"[0.6622178717638826,0.8913559099473304]","[0.3377821282361174,0.10864409005266962]",392.014,393.9742,1,s,1,0.4333,,0.130187468,0.672112328,0.541924859,393.977,393.9771,0,164,164,164,1,0.423545357,0.423545357,shape_difference3,1,,TRUE,,intensity,0.1,4.94066E-324,1.79769E+308,0.3,0.82,20,400,0.25,1,0.01,0.5,0.1,,,,,,,,,,,,,,,,,,,,,,,,,,,,,,,,,,,,,,,,,,,,,,,,,,,,,,,,,,,,,,,,,,,,,,,,,,,,,,,,,
,,,,,848799,001,2025-03-12_13h57.25.042,Utility_discrimination_2024_2cat,2024.2.4,Win32,59.52380952,,,,,,,,2,"[0.5,0.5]","[0.707,0.707]",s,"[0.6564861680226625,0.8775279876055877]","[0.34351383197733754,0.12247201239441224]",393.978,396.0562,0,s,0,0.5526,,-0.161589391,0.323196183,0.484785574,396.0592,396.0592,0,165,165,165,1,0.408580073,0.408580073,shape_difference3,1,,TRUE,,intensity,0.1,4.94066E-324,1.79769E+308,0.3,0.82,20,400,0.25,1,0.01,0.5,0.1,,,,,,,,,,,,,,,,,,,,,,,,,,,,,,,,,,,,,,,,,,,,,,,,,,,,,,,,,,,,,,,,,,,,,,,,,,,,,,,,,
,,,,,848799,001,2025-03-12_13h57.25.042,Utility_discrimination_2024_2cat,2024.2.4,Win32,59.52380952,,,,,,,,0,"[0.5,0.5]","[1,0]",d,"[0.5676906905932486,0.5676906905932486]","[0.43230930940675144,0.43230930940675144]",396.061,398.4042,0,d,0,0.8271,,-0.195067198,0.281706001,0.476773199,398.4082,398.4082,0,166,166,166,1,0.095743551,0.095743551,shape_difference2,1,,TRUE,,intensity,0.1,4.94066E-324,1.79769E+308,0.3,0.82,20,400,0.25,1,0.01,0.5,0.1,,,,,,,,,,,,,,,,,,,,,,,,,,,,,,,,,,,,,,,,,,,,,,,,,,,,,,,,,,,,,,,,,,,,,,,,,,,,,,,,,
,,,,,848799,001,2025-03-12_13h57.25.042,Utility_discrimination_2024_2cat,2024.2.4,Win32,59.52380952,,,,,,,,1,"[0.5,0.5]","[0.924,0.383]",s,"[0.5535697703881709,0.5]","[0.4464302296118291,0.5]",398.4093,400.6359,0,d,0,0.7015,,-0.108774583,0.372276067,0.48105065,400.6382,400.6382,0,167,167,167,1,0.05356977,0.05356977,shape_difference0,1,,TRUE,,intensity,0.1,4.94066E-324,1.79769E+308,0.3,0.82,20,400,0.25,1,0.01,0.5,0.1,,,,,,,,,,,,,,,,,,,,,,,,,,,,,,,,,,,,,,,,,,,,,,,,,,,,,,,,,,,,,,,,,,,,,,,,,,,,,,,,,
,,,,,848799,001,2025-03-12_13h57.25.042,Utility_discrimination_2024_2cat,2024.2.4,Win32,59.52380952,,,,,,,,4,"[0.5,0.5]","[0,1]",s,"[0.6293810116384984,0.5536287093696373]","[0.37061898836150164,0.4463712906303627]",400.6393,402.2847,1,s,1,0.1156,,0.111450608,0.587572286,0.476121678,402.2886,402.2886,0,168,168,168,1,0.14002274,0.14002274,shape_difference1,1,,TRUE,,intensity,0.1,4.94066E-324,1.79769E+308,0.3,0.82,20,400,0.25,1,0.01,0.5,0.1,,,,,,,,,,,,,,,,,,,,,,,,,,,,,,,,,,,,,,,,,,,,,,,,,,,,,,,,,,,,,,,,,,,,,,,,,,,,,,,,,
,,,,,848799,001,2025-03-12_13h57.25.042,Utility_discrimination_2024_2cat,2024.2.4,Win32,59.52380952,,,,,,,,0,"[0.5,0.5]","[1,0]",s,"[0.5,0.8599525810101923]","[0.5,0.14004741898980766]",402.2897,404.6319,0,d,0,0.8162,,-0.15885102,0.333492329,0.49234335,404.6343,404.6343,0,169,169,169,1,0.359952581,0.359952581,shape_difference4,1,,TRUE,,intensity,0.1,4.94066E-324,1.79769E+308,0.3,0.82,20,400,0.25,1,0.01,0.5,0.1,,,,,,,,,,,,,,,,,,,,,,,,,,,,,,,,,,,,,,,,,,,,,,,,,,,,,,,,,,,,,,,,,,,,,,,,,,,,,,,,,
,,,,,848799,001,2025-03-12_13h57.25.042,Utility_discrimination_2024_2cat,2024.2.4,Win32,59.52380952,,,,,,,,4,"[0.5,0.5]","[0,1]",s,"[0.5985202017909301,0.5]","[0.4014797982090698,0.5]",404.6363,406.4638,1,d,1,0.3019,,0.148648661,0.642785262,0.494136601,406.4666,406.4667,0,170,170,170,1,0.098520202,0.098520202,shape_difference0,1,,TRUE,,intensity,0.1,4.94066E-324,1.79769E+308,0.3,0.82,20,400,0.25,1,0.01,0.5,0.1,,,,,,,,,,,,,,,,,,,,,,,,,,,,,,,,,,,,,,,,,,,,,,,,,,,,,,,,,,,,,,,,,,,,,,,,,,,,,,,,,
,,,,,848799,001,2025-03-12_13h57.25.042,Utility_discrimination_2024_2cat,2024.2.4,Win32,59.52380952,,,,,,,,1,"[0.5,0.5]","[0.924,0.383]",d,"[0.5,0.9052351988389532]","[0.5,0.0947648011610468]",406.4682,408.0123,1,s,1,0.0245,,-0.121645373,0.35951386,0.481159232,408.0163,408.0163,0,171,171,171,1,0.405235199,0.405235199,shape_difference4,1,,TRUE,,intensity,0.1,4.94066E-324,1.79769E+308,0.3,0.82,20,400,0.25,1,0.01,0.5,0.1,,,,,,,,,,,,,,,,,,,,,,,,,,,,,,,,,,,,,,,,,,,,,,,,,,,,,,,,,,,,,,,,,,,,,,,,,,,,,,,,,
,,,,,848799,001,2025-03-12_13h57.25.042,Utility_discrimination_2024_2cat,2024.2.4,Win32,59.52380952,,,,,,,,2,"[0.5,0.5]","[0.707,0.707]",s,"[0.6193145695195553,0.5494561473224997]","[0.38068543048044473,0.45054385267750036]",408.0176,409.9438,1,s,1,0.4029,,-0.101490287,0.371790335,0.473280622,409.946,409.9461,0,172,172,172,1,0.129128322,0.129128322,shape_difference1,1,,TRUE,,intensity,0.1,4.94066E-324,1.79769E+308,0.3,0.82,20,400,0.25,1,0.01,0.5,0.1,,,,,,,,,,,,,,,,,,,,,,,,,,,,,,,,,,,,,,,,,,,,,,,,,,,,,,,,,,,,,,,,,,,,,,,,,,,,,,,,,
,,,,,848799,001,2025-03-12_13h57.25.042,Utility_discrimination_2024_2cat,2024.2.4,Win32,59.52380952,,,,,,,,3,"[0.5,0.5]","[0.383,0.924]",s,"[0.6002175674253633,0.6002175674253633]","[0.3997824325746367,0.3997824325746367]",409.9479,411.7924,0,s,0,0.3207,,0.189577104,0.725502118,0.535925014,411.7952,411.7952,0,173,173,173,1,0.141750449,0.141750449,shape_difference2,1,,TRUE,,intensity,0.1,4.94066E-324,1.79769E+308,0.3,0.82,20,400,0.25,1,0.01,0.5,0.1,,,,,,,,,,,,,,,,,,,,,,,,,,,,,,,,,,,,,,,,,,,,,,,,,,,,,,,,,,,,,,,,,,,,,,,,,,,,,,,,,
,,,,,848799,001,2025-03-12_13h57.25.042,Utility_discrimination_2024_2cat,2024.2.4,Win32,59.52380952,,,,,,,,2,"[0.5,0.5]","[0.707,0.707]",d,"[0.6772790899361172,0.927691590341964]","[0.32272091006388287,0.07230840965803592]",411.7962,413.3576,1,s,1,0.0432,,-0.075011204,0.40335874,0.478369944,413.36,413.36,0,174,174,174,1,0.462869687,0.462869687,shape_difference3,1,,TRUE,,intensity,0.1,4.94066E-324,1.79769E+308,0.3,0.82,20,400,0.25,1,0.01,0.5,0.1,,,,,,,,,,,,,,,,,,,,,,,,,,,,,,,,,,,,,,,,,,,,,,,,,,,,,,,,,,,,,,,,,,,,,,,,,,,,,,,,,
,,,,,848799,001,2025-03-12_13h57.25.042,Utility_discrimination_2024_2cat,2024.2.4,Win32,59.52380952,,,,,,,,4,"[0.5,0.5]","[0,1]",s,"[0.626560964404348,0.626560964404348]","[0.37343903559565195,0.37343903559565195]",413.3613,415.2392,0,d,0,0.35,,0.141234296,0.624739321,0.483505025,415.2424,415.2424,0,175,175,175,1,0.179011265,0.179011265,shape_difference2,1,,TRUE,,intensity,0.1,4.94066E-324,1.79769E+308,0.3,0.82,20,400,0.25,1,0.01,0.5,0.1,,,,,,,,,,,,,,,,,,,,,,,,,,,,,,,,,,,,,,,,,,,,,,,,,,,,,,,,,,,,,,,,,,,,,,,,,,,,,,,,,
,,,,,848799,001,2025-03-12_13h57.25.042,Utility_discrimination_2024_2cat,2024.2.4,Win32,59.52380952,,,,,,,,3,"[0.5,0.5]","[0.383,0.924]",s,"[0.5,0.8940079596378155]","[0.5,0.10599204036218446]",415.2439,417.3204,1,d,1,0.5568,,0.176967012,0.699792874,0.522825861,417.3236,417.3236,0,176,176,176,1,0.39400796,0.39400796,shape_difference4,1,,TRUE,,intensity,0.1,4.94066E-324,1.79769E+308,0.3,0.82,20,400,0.25,1,0.01,0.5,0.1,,,,,,,,,,,,,,,,,,,,,,,,,,,,,,,,,,,,,,,,,,,,,,,,,,,,,,,,,,,,,,,,,,,,,,,,,,,,,,,,,
,,,,,848799,001,2025-03-12_13h57.25.042,Utility_discrimination_2024_2cat,2024.2.4,Win32,59.52380952,,,,,,,,1,"[0.5,0.5]","[0.924,0.383]",d,"[0.6724984077909234,0.916158038639199]","[0.3275015922090766,0.08384196136080102]",417.3247,418.8861,0,d,0,0.0344,,-0.132666359,0.345143984,0.477810343,418.89,418.8901,0,177,177,177,1,0.450387488,0.450387488,shape_difference3,1,,TRUE,,intensity,0.1,4.94066E-324,1.79769E+308,0.3,0.82,20,400,0.25,1,0.01,0.5,0.1,,,,,,,,,,,,,,,,,,,,,,,,,,,,,,,,,,,,,,,,,,,,,,,,,,,,,,,,,,,,,,,,,,,,,,,,,,,,,,,,,
,,,,,848799,001,2025-03-12_13h57.25.042,Utility_discrimination_2024_2cat,2024.2.4,Win32,59.52380952,,,,,,,,0,"[0.5,0.5]","[1,0]",s,"[0.6090462415070261,0.545199903135488]","[0.3909537584929739,0.4548000968645119]",418.8914,420.5344,0,d,0,0.1189,,-0.165685341,0.31388587,0.479571211,420.5363,420.5363,0,178,178,178,1,0.118015413,0.118015413,shape_difference1,1,,TRUE,,intensity,0.1,4.94066E-324,1.79769E+308,0.3,0.82,20,400,0.25,1,0.01,0.5,0.1,,,,,,,,,,,,,,,,,,,,,,,,,,,,,,,,,,,,,,,,,,,,,,,,,,,,,,,,,,,,,,,,,,,,,,,,,,,,,,,,,
,,,,,848799,001,2025-03-12_13h57.25.042,Utility_discrimination_2024_2cat,2024.2.4,Win32,59.52380952,,,,,,,,3,"[0.5,0.5]","[0.383,0.924]",s,"[0.5885028341532916,0.5]","[0.4114971658467084,0.5]",420.5373,422.3495,1,d,1,0.2834,,0.228642044,0.771758703,0.543116659,422.353,422.3531,0,179,179,179,1,0.088502834,0.088502834,shape_difference0,1,,TRUE,,intensity,0.1,4.94066E-324,1.79769E+308,0.3,0.82,20,400,0.25,1,0.01,0.5,0.1,,,,,,,,,,,,,,,,,,,,,,,,,,,,,,,,,,,,,,,,,,,,,,,,,,,,,,,,,,,,,,,,,,,,,,,,,,,,,,,,,
,,,,,848799,001,2025-03-12_13h57.25.042,Utility_discrimination_2024_2cat,2024.2.4,Win32,59.52380952,,,,,,,,2,"[0.5,0.5]","[0.707,0.707]",d,"[0.6944407621166729,0.9690946845843493]","[0.30555923788332706,0.030905315415650614]",422.3543,424.5982,0,d,0,0.7157,,-0.028438074,0.463041622,0.491479696,424.6013,424.6013,0,180,180,180,1,0.50767823,0.50767823,shape_difference3,1,,TRUE,,intensity,0.1,4.94066E-324,1.79769E+308,0.3,0.82,20,400,0.25,1,0.01,0.5,0.1,,,,,,,,,,,,,,,,,,,,,,,,,,,,,,,,,,,,,,,,,,,,,,,,,,,,,,,,,,,,,,,,,,,,,,,,,,,,,,,,,
,,,,,848799,001,2025-03-12_13h57.25.042,Utility_discrimination_2024_2cat,2024.2.4,Win32,59.52380952,,,,,,,,0,"[0.5,0.5]","[1,0]",s,"[0.6597927382405835,0.6597927382405835]","[0.3402072617594165,0.3402072617594165]",424.6021,426.3129,1,s,1,0.185,,-0.171692573,0.296874589,0.468567162,426.3162,426.3163,0,181,181,181,1,0.226015188,0.226015188,shape_difference2,1,,TRUE,,intensity,0.1,4.94066E-324,1.79769E+308,0.3,0.82,20,400,0.25,1,0.01,0.5,0.1,,,,,,,,,,,,,,,,,,,,,,,,,,,,,,,,,,,,,,,,,,,,,,,,,,,,,,,,,,,,,,,,,,,,,,,,,,,,,,,,,
,,,,,848799,001,2025-03-12_13h57.25.042,Utility_discrimination_2024_2cat,2024.2.4,Win32,59.52380952,,,,,,,,4,"[0.5,0.5]","[0,1]",s,"[0.5789739395481689,0.5]","[0.4210260604518311,0.5]",426.318,427.9617,0,s,0,0.1182,,0.134760637,0.603880191,0.469119554,427.9668,427.9668,0,182,182,182,1,0.07897394,0.07897394,shape_difference0,1,,TRUE,,intensity,0.1,4.94066E-324,1.79769E+308,0.3,0.82,20,400,0.25,1,0.01,0.5,0.1,,,,,,,,,,,,,,,,,,,,,,,,,,,,,,,,,,,,,,,,,,,,,,,,,,,,,,,,,,,,,,,,,,,,,,,,,,,,,,,,,
,,,,,848799,001,2025-03-12_13h57.25.042,Utility_discrimination_2024_2cat,2024.2.4,Win32,59.52380952,,,,,,,,1,"[0.5,0.5]","[0.924,0.383]",d,"[0.5,0.8843510063843397]","[0.5,0.11564899361566028]",427.9676,429.5267,0,s,0,0.0323,,-0.087744034,0.383520865,0.471264899,429.5298,429.5299,0,183,183,183,1,0.384351006,0.384351006,shape_difference4,1,,TRUE,,intensity,0.1,4.94066E-324,1.79769E+308,0.3,0.82,20,400,0.25,1,0.01,0.5,0.1,,,,,,,,,,,,,,,,,,,,,,,,,,,,,,,,,,,,,,,,,,,,,,,,,,,,,,,,,,,,,,,,,,,,,,,,,,,,,,,,,
,,,,,848799,001,2025-03-12_13h57.25.042,Utility_discrimination_2024_2cat,2024.2.4,Win32,59.52380952,,,,,,,,3,"[0.5,0.5]","[0.383,0.924]",d,"[0.6462109222697644,0.5606047437546751]","[0.3537890777302356,0.43939525624532494]",429.5311,431.6914,0,s,0,0.6412,,0.287009585,0.824771771,0.537762186,431.6951,431.6951,0,184,184,184,1,0.158236929,0.158236929,shape_difference1,1,,TRUE,,intensity,0.1,4.94066E-324,1.79769E+308,0.3,0.82,20,400,0.25,1,0.01,0.5,0.1,,,,,,,,,,,,,,,,,,,,,,,,,,,,,,,,,,,,,,,,,,,,,,,,,,,,,,,,,,,,,,,,,,,,,,,,,,,,,,,,,
,,,,,848799,001,2025-03-12_13h57.25.042,Utility_discrimination_2024_2cat,2024.2.4,Win32,59.52380952,,,,,,,,2,"[0.5,0.5]","[0.707,0.707]",d,"[0.7154659787598454,1.0198187059375905]","[0.2845340212401546,-0.01981870593759061]",431.6967,433.2897,1,s,1,0.0688,,-0.038564199,0.448307611,0.48687181,433.2915,433.2916,0,185,185,185,1,0.562574357,0.562574357,shape_difference3,1,,TRUE,,intensity,0.1,4.94066E-324,1.79769E+308,0.3,0.82,20,400,0.25,1,0.01,0.5,0.1,,,,,,,,,,,,,,,,,,,,,,,,,,,,,,,,,,,,,,,,,,,,,,,,,,,,,,,,,,,,,,,,,,,,,,,,,,,,,,,,,
,,,,,848799,001,2025-03-12_13h57.25.042,Utility_discrimination_2024_2cat,2024.2.4,Win32,59.52380952,,,,,,,,4,"[0.5,0.5]","[0,1]",s,"[0.6514906770400302,0.6514906770400302]","[0.3485093229599698,0.3485093229599698]",433.2927,435.3552,1,d,1,0.5328,,0.185894977,0.660958936,0.475063958,435.3574,435.3574,0,186,186,186,1,0.214272528,0.214272528,shape_difference2,1,,TRUE,,intensity,0.1,4.94066E-324,1.79769E+308,0.3,0.82,20,400,0.25,1,0.01,0.5,0.1,,,,,,,,,,,,,,,,,,,,,,,,,,,,,,,,,,,,,,,,,,,,,,,,,,,,,,,,,,,,,,,,,,,,,,,,,,,,,,,,,
