Consent.started,Consent.stopped,key_resp.keys,key_resp.rt,key_resp.duration,participant,session,date,expName,psychopyVersion,OS,frameRate,SetupExperiment.started,SetupExperiment.stopped,DiscrimInstructions_Pre.started,DiscrimInstructions_Pre.stopped,KeyboardResponse.keys,KeyboardResponse.rt,KeyboardResponse.duration,feature_index,feature_center,feature_vector,correct_answer,coord1,coord2,DiscriminationTrial.started,DiscriminationTrial.stopped,PreTest.response,Resp_s_or_d.keys,Resp_s_or_d.corr,Resp_s_or_d.rt,Resp_s_or_d.duration,PreTest.CI_lower,PreTest.CI_upper,PreTest.CI_width,CrashPretest_2.started,CrashPretest_2.stopped,PreTest.thisRepN,PreTest.thisTrialN,PreTest.thisN,PreTest.thisIndex,PreTest.ran,PreTest.intensity,intensity,PreTest.label,PreTest.nReps,PreTest.method,PreTest.autoLog,PreTest.seed,PreTest.varName,PreTest.startVal,PreTest.minVal,PreTest.maxVal,PreTest.startValSd,PreTest.pThreshold,PreTest.nTrials,PreTest.maxTrials,PreTest.stopInterval,PreTest.beta,PreTest.delta,PreTest.gamma,PreTest.grain,WelcomeToCategorizationTask.started,WelcomeToCategorizationTask.stopped,PressAnyKey3.keys,PressAnyKey3.rt,PressAnyKey3.duration,shape_coordinates,category_center,category_sigma,subspace_center,subspace_vector1,subspace_vector2,CategorizationTrial.started,CategorizationTrial.stopped,Respond_1or2.keys,Respond_1or2.rt,Respond_1or2.duration,Feedback.started,Feedback.stopped,xcoord,ycoord,shape_coord,numeric_response_minus1,correctness,truecategory,mixture_index,respAifA,respBifA,respAifB,respBifB,trial_number,D,muAx,muAy,muBx,muBy,sigmaA,sigmaB,priorA,priorB,TrialLoop.thisRepN,TrialLoop.thisTrialN,TrialLoop.thisN,TrialLoop.thisIndex,TrialLoop.ran,DiscriminationInstructions_Post.started,DiscriminationInstructions_Post.stopped,key_resp_2.keys,key_resp_2.rt,key_resp_2.duration,PostTest.response,PostTest.CI_lower,PostTest.CI_upper,PostTest.CI_width,CrashPosttest.started,CrashPosttest.stopped,PostTest.thisRepN,PostTest.thisTrialN,PostTest.thisN,PostTest.thisIndex,PostTest.ran,PostTest.intensity,PostTest.label,PostTest.nReps,PostTest.method,PostTest.autoLog,PostTest.seed,PostTest.varName,PostTest.startVal,PostTest.minVal,PostTest.maxVal,PostTest.startValSd,PostTest.pThreshold,PostTest.nTrials,PostTest.maxTrials,PostTest.stopInterval,PostTest.beta,PostTest.delta,PostTest.gamma,PostTest.grain,Thanks.started,Thanks.stopped
0.0001,7.5134,y,7.5016,,856852,001,2025-03-14_11h38.16.574,Utility_discrimination_2024_2cat,2024.2.4,MacIntel,135.1351351,,,,,,,,,,,,,,,,,,,,,,,,,,,,,,,,,,,,,,,,,,,,,,,,,,,,,,,,,,,,,,,,,,,,,,,,,,,,,,,,,,,,,,,,,,,,,,,,,,,,,,,,,,,,,,,,,,,,,,,,,,,,,,,,,,,
,,,,,856852,001,2025-03-14_11h38.16.574,Utility_discrimination_2024_2cat,2024.2.4,MacIntel,135.1351351,7.5135,7.5136,,,,,,,,,,,,,,,,,,,,,,,,,,,,,,,,,,,,,,,,,,,,,,,,,,,,,,,,,,,,,,,,,,,,,,,,,,,,,,,,,,,,,,,,,,,,,,,,,,,,,,,,,,,,,,,,,,,,,,,,,,,,,,,,,
,,,,,856852,001,2025-03-14_11h38.16.574,Utility_discrimination_2024_2cat,2024.2.4,MacIntel,135.1351351,,,7.5137,21.1643,space,13.6354,,,,,,,,,,,,,,,,,,,,,,,,,,,,,,,,,,,,,,,,,,,,,,,,,,,,,,,,,,,,,,,,,,,,,,,,,,,,,,,,,,,,,,,,,,,,,,,,,,,,,,,,,,,,,,,,,,,,,,,,,,,,,
,,,,,856852,001,2025-03-14_11h38.16.574,Utility_discrimination_2024_2cat,2024.2.4,MacIntel,135.1351351,,,,,,,,2,"[0.5,0.5]","[0.707,0.707]",,"[0.6185239449756466,0.5]","[0.3814760550243534,0.5]",21.1958,24.6391,1,s,1,1.929,,-0.447967632,0.547967632,0.995935263,24.6418,24.6419,0,0,0,0,1,0.118523945,0.118523945,shape_difference3,1,,TRUE,,intensity,0.1,0.05,0.7,0.3,0.82,20,400,1E-11,3.5,0.01,0.5,0.1,,,,,,,,,,,,,,,,,,,,,,,,,,,,,,,,,,,,,,,,,,,,,,,,,,,,,,,,,,,,,,,,,,,,,,,,,,,,,,,,,
,,,,,856852,001,2025-03-14_11h38.16.574,Utility_discrimination_2024_2cat,2024.2.4,MacIntel,135.1351351,,,,,,,,0,"[0.5,0.5]","[1,0]",s,"[0.5837964290977822,0.5837964290977822]","[0.4162035709022178,0.4162035709022178]",24.6433,27.5639,0,s,0,1.4044,,-0.447967632,0.547967632,0.995935263,27.5658,27.5659,0,1,1,1,1,0.118523945,0.118523945,shape_difference2,1,,TRUE,,intensity,0.1,0.05,0.7,0.3,0.82,20,400,1E-11,3.5,0.01,0.5,0.1,,,,,,,,,,,,,,,,,,,,,,,,,,,,,,,,,,,,,,,,,,,,,,,,,,,,,,,,,,,,,,,,,,,,,,,,,,,,,,,,,
,,,,,856852,001,2025-03-14_11h38.16.574,Utility_discrimination_2024_2cat,2024.2.4,MacIntel,135.1351351,,,,,,,,1,"[0.5,0.5]","[0.924,0.383]",d,"[0.6185239449756466,0.5]","[0.3814760550243534,0.5]",27.5666,29.6629,0,s,0,0.5839,,-0.447967632,0.547967632,0.995935263,29.6657,29.6657,0,2,2,2,1,0.118523945,0.118523945,shape_difference0,1,,TRUE,,intensity,0.1,0.05,0.7,0.3,0.82,20,400,1E-11,3.5,0.01,0.5,0.1,,,,,,,,,,,,,,,,,,,,,,,,,,,,,,,,,,,,,,,,,,,,,,,,,,,,,,,,,,,,,,,,,,,,,,,,,,,,,,,,,
,,,,,856852,001,2025-03-14_11h38.16.574,Utility_discrimination_2024_2cat,2024.2.4,MacIntel,135.1351351,,,,,,,,4,"[0.5,0.5]","[0,1]",d,"[0.6095161251574974,0.5453946709256726]","[0.3904838748425025,0.4546053290743273]",29.6666,32.6388,1,s,1,1.4583,,-0.447967632,0.547967632,0.995935263,32.6419,32.6419,0,3,3,3,1,0.118523945,0.118523945,shape_difference1,1,,TRUE,,intensity,0.1,0.05,0.7,0.3,0.82,20,400,1E-11,3.5,0.01,0.5,0.1,,,,,,,,,,,,,,,,,,,,,,,,,,,,,,,,,,,,,,,,,,,,,,,,,,,,,,,,,,,,,,,,,,,,,,,,,,,,,,,,,
,,,,,856852,001,2025-03-14_11h38.16.574,Utility_discrimination_2024_2cat,2024.2.4,MacIntel,135.1351351,,,,,,,,2,"[0.5,0.5]","[0.707,0.707]",s,"[0.5,0.6185239449756466]","[0.5,0.3814760550243534]",32.6435,35.1221,0,s,0,0.9665,,0.008797352,0.664308158,0.655510806,35.1235,35.1235,0,4,4,4,1,0.118523945,0.118523945,shape_difference4,1,,TRUE,,intensity,0.1,0.05,0.7,0.3,0.82,20,400,1E-11,3.5,0.01,0.5,0.1,,,,,,,,,,,,,,,,,,,,,,,,,,,,,,,,,,,,,,,,,,,,,,,,,,,,,,,,,,,,,,,,,,,,,,,,,,,,,,,,,
,,,,,856852,001,2025-03-14_11h38.16.574,Utility_discrimination_2024_2cat,2024.2.4,MacIntel,135.1351351,,,,,,,,1,"[0.5,0.5]","[0.924,0.383]",d,"[0.7295760208722043,0.7295760208722043]","[0.2704239791277957,0.2704239791277957]",35.1248,37.4554,0,s,0,0.8219,,-0.479157219,0.478510979,0.957668197,37.4578,37.4578,0,5,5,5,1,0.324718559,0.324718559,shape_difference2,1,,TRUE,,intensity,0.1,0.05,0.7,0.3,0.82,20,400,1E-11,3.5,0.01,0.5,0.1,,,,,,,,,,,,,,,,,,,,,,,,,,,,,,,,,,,,,,,,,,,,,,,,,,,,,,,,,,,,,,,,,,,,,,,,,,,,,,,,,
,,,,,856852,001,2025-03-14_11h38.16.574,Utility_discrimination_2024_2cat,2024.2.4,MacIntel,135.1351351,,,,,,,,3,"[0.5,0.5]","[0.383,0.924]",d,"[0.5341894661325662,0.5141716077151222]","[0.46581053386743376,0.48582839228487784]",37.4586,39.3136,1,s,1,0.3443,,-0.479157219,0.478510979,0.957668197,39.3146,39.3147,0,6,6,6,1,0.037001587,0.037001587,shape_difference1,1,,TRUE,,intensity,0.1,0.05,0.7,0.3,0.82,20,400,1E-11,3.5,0.01,0.5,0.1,,,,,,,,,,,,,,,,,,,,,,,,,,,,,,,,,,,,,,,,,,,,,,,,,,,,,,,,,,,,,,,,,,,,,,,,,,,,,,,,,
,,,,,856852,001,2025-03-14_11h38.16.574,Utility_discrimination_2024_2cat,2024.2.4,MacIntel,135.1351351,,,,,,,,4,"[0.5,0.5]","[0,1]",s,"[0.5141716077151222,0.5341894661325662]","[0.48582839228487784,0.46581053386743376]",39.3153,41.6637,1,s,1,0.8348,,0.008797352,0.664308158,0.655510806,41.6653,41.6653,0,7,7,7,1,0.037001587,0.037001587,shape_difference3,1,,TRUE,,intensity,0.1,0.05,0.7,0.3,0.82,20,400,1E-11,3.5,0.01,0.5,0.1,,,,,,,,,,,,,,,,,,,,,,,,,,,,,,,,,,,,,,,,,,,,,,,,,,,,,,,,,,,,,,,,,,,,,,,,,,,,,,,,,
,,,,,856852,001,2025-03-14_11h38.16.574,Utility_discrimination_2024_2cat,2024.2.4,MacIntel,135.1351351,,,,,,,,0,"[0.5,0.5]","[1,0]",s,"[0.5,0.8247185585179694]","[0.5,0.17528144148203062]",41.6659,44.3971,1,d,1,1.2162,,0.008797352,0.664308158,0.655510806,44.3988,44.3988,0,8,8,8,1,0.324718559,0.324718559,shape_difference4,1,,TRUE,,intensity,0.1,0.05,0.7,0.3,0.82,20,400,1E-11,3.5,0.01,0.5,0.1,,,,,,,,,,,,,,,,,,,,,,,,,,,,,,,,,,,,,,,,,,,,,,,,,,,,,,,,,,,,,,,,,,,,,,,,,,,,,,,,,
,,,,,856852,001,2025-03-14_11h38.16.574,Utility_discrimination_2024_2cat,2024.2.4,MacIntel,135.1351351,,,,,,,,2,"[0.5,0.5]","[0.707,0.707]",d,"[0.8247185585179694,0.5]","[0.17528144148203062,0.5]",44.3999,47.3471,1,d,1,1.4363,,0.200901354,0.758241115,0.557339761,47.3489,47.3489,0,9,9,9,1,0.324718559,0.324718559,shape_difference0,1,,TRUE,,intensity,0.1,0.05,0.7,0.3,0.82,20,400,1E-11,3.5,0.01,0.5,0.1,,,,,,,,,,,,,,,,,,,,,,,,,,,,,,,,,,,,,,,,,,,,,,,,,,,,,,,,,,,,,,,,,,,,,,,,,,,,,,,,,
,,,,,856852,001,2025-03-14_11h38.16.574,Utility_discrimination_2024_2cat,2024.2.4,MacIntel,135.1351351,,,,,,,,0,"[0.5,0.5]","[1,0]",d,"[0.8255260191701026,0.8255260191701026]","[0.1744739808298974,0.1744739808298974]",47.3504,49.7974,1,s,1,0.9351,,-0.003741292,0.604569979,0.608311271,49.7998,49.7998,0,10,10,10,1,0.460432842,0.460432842,shape_difference2,1,,TRUE,,intensity,0.1,0.05,0.7,0.3,0.82,20,400,1E-11,3.5,0.01,0.5,0.1,,,,,,,,,,,,,,,,,,,,,,,,,,,,,,,,,,,,,,,,,,,,,,,,,,,,,,,,,,,,,,,,,,,,,,,,,,,,,,,,,
,,,,,856852,001,2025-03-14_11h38.16.574,Utility_discrimination_2024_2cat,2024.2.4,MacIntel,135.1351351,,,,,,,,3,"[0.5,0.5]","[0.383,0.924]",s,"[0.7748173464265704,0.5]","[0.22518265357342954,0.5]",49.8004,52.8645,0,s,0,1.5528,,-0.510435314,0.404710629,0.915145943,52.8663,52.8663,0,11,11,11,1,0.274817346,0.274817346,shape_difference0,1,,TRUE,,intensity,0.1,0.05,0.7,0.3,0.82,20,400,1E-11,3.5,0.01,0.5,0.1,,,,,,,,,,,,,,,,,,,,,,,,,,,,,,,,,,,,,,,,,,,,,,,,,,,,,,,,,,,,,,,,,,,,,,,,,,,,,,,,,
,,,,,856852,001,2025-03-14_11h38.16.574,Utility_discrimination_2024_2cat,2024.2.4,MacIntel,135.1351351,,,,,,,,4,"[0.5,0.5]","[0,1]",d,"[0.48572626012287257,0.46556413669330093]","[0.5142737398771274,0.5344358633066991]",52.867,55.3637,0,s,0,0.9838,,-0.003741292,0.604569979,0.608311271,55.3651,55.3651,0,12,12,12,1,-0.03726825,-0.03726825,shape_difference3,1,,TRUE,,intensity,0.1,0.05,0.7,0.3,0.82,20,400,1E-11,3.5,0.01,0.5,0.1,,,,,,,,,,,,,,,,,,,,,,,,,,,,,,,,,,,,,,,,,,,,,,,,,,,,,,,,,,,,,,,,,,,,,,,,,,,,,,,,,
,,,,,856852,001,2025-03-14_11h38.16.574,Utility_discrimination_2024_2cat,2024.2.4,MacIntel,135.1351351,,,,,,,,1,"[0.5,0.5]","[0.924,0.383]",d,"[0.5,0.7748173464265704]","[0.5,0.22518265357342954]",55.3656,57.6137,1,d,1,0.7356,,-0.510435314,0.404710629,0.915145943,57.6171,57.6172,0,13,13,13,1,0.274817346,0.274817346,shape_difference4,1,,TRUE,,intensity,0.1,0.05,0.7,0.3,0.82,20,400,1E-11,3.5,0.01,0.5,0.1,,,,,,,,,,,,,,,,,,,,,,,,,,,,,,,,,,,,,,,,,,,,,,,,,,,,,,,,,,,,,,,,,,,,,,,,,,,,,,,,,
,,,,,856852,001,2025-03-14_11h38.16.574,Utility_discrimination_2024_2cat,2024.2.4,MacIntel,135.1351351,,,,,,,,3,"[0.5,0.5]","[0.383,0.924]",d,"[0.46556413669330093,0.48572626012287257]","[0.5344358633066991,0.5142737398771274]",57.6182,60.6137,0,s,0,1.4859,,-0.118157943,0.566731222,0.684889165,60.6166,60.6166,0,14,14,14,1,-0.03726825,-0.03726825,shape_difference1,1,,TRUE,,intensity,0.1,0.05,0.7,0.3,0.82,20,400,1E-11,3.5,0.01,0.5,0.1,,,,,,,,,,,,,,,,,,,,,,,,,,,,,,,,,,,,,,,,,,,,,,,,,,,,,,,,,,,,,,,,,,,,,,,,,,,,,,,,,
,,,,,856852,001,2025-03-14_11h38.16.574,Utility_discrimination_2024_2cat,2024.2.4,MacIntel,135.1351351,,,,,,,,1,"[0.5,0.5]","[0.924,0.383]",d,"[0.570651951224009,0.6704501382010035]","[0.429348048775991,0.3295498617989964]",60.6172,62.9136,1,d,1,0.7865,,-0.118157943,0.566731222,0.684889165,62.9158,62.9158,0,15,15,15,1,0.184469847,0.184469847,shape_difference3,1,,TRUE,,intensity,0.1,0.05,0.7,0.3,0.82,20,400,1E-11,3.5,0.01,0.5,0.1,,,,,,,,,,,,,,,,,,,,,,,,,,,,,,,,,,,,,,,,,,,,,,,,,,,,,,,,,,,,,,,,,,,,,,,,,,,,,,,,,
,,,,,856852,001,2025-03-14_11h38.16.574,Utility_discrimination_2024_2cat,2024.2.4,MacIntel,135.1351351,,,,,,,,4,"[0.5,0.5]","[0,1]",d,"[0.6704501382010035,0.570651951224009]","[0.3295498617989964,0.429348048775991]",62.9163,65.2389,0,d,0,0.8065,,-0.026700702,0.552121039,0.578821741,65.2417,65.2417,0,16,16,16,1,0.184469847,0.184469847,shape_difference1,1,,TRUE,,intensity,0.1,0.05,0.7,0.3,0.82,20,400,1E-11,3.5,0.01,0.5,0.1,,,,,,,,,,,,,,,,,,,,,,,,,,,,,,,,,,,,,,,,,,,,,,,,,,,,,,,,,,,,,,,,,,,,,,,,,,,,,,,,,
,,,,,856852,001,2025-03-14_11h38.16.574,Utility_discrimination_2024_2cat,2024.2.4,MacIntel,135.1351351,,,,,,,,2,"[0.5,0.5]","[0.707,0.707]",s,"[0.5,0.7361666255365733]","[0.5,0.26383337446342664]",65.2428,68.2961,0,d,0,1.541,,0.183787094,0.698673471,0.514886377,68.2988,68.2989,0,17,17,17,1,0.236166626,0.236166626,shape_difference4,1,,TRUE,,intensity,0.1,0.05,0.7,0.3,0.82,20,400,1E-11,3.5,0.01,0.5,0.1,,,,,,,,,,,,,,,,,,,,,,,,,,,,,,,,,,,,,,,,,,,,,,,,,,,,,,,,,,,,,,,,,,,,,,,,,,,,,,,,,
,,,,,856852,001,2025-03-14_11h38.16.574,Utility_discrimination_2024_2cat,2024.2.4,MacIntel,135.1351351,,,,,,,,0,"[0.5,0.5]","[1,0]",s,"[0.8004977762948502,0.8004977762948502]","[0.1995022237051498,0.1995022237051498]",68.2996,70.6961,1,d,1,0.885,,0.166924593,0.726757578,0.559832986,70.6977,70.6977,0,18,18,18,1,0.425032215,0.425032215,shape_difference2,1,,TRUE,,intensity,0.1,0.05,0.7,0.3,0.82,20,400,1E-11,3.5,0.01,0.5,0.1,,,,,,,,,,,,,,,,,,,,,,,,,,,,,,,,,,,,,,,,,,,,,,,,,,,,,,,,,,,,,,,,,,,,,,,,,,,,,,,,,
,,,,,856852,001,2025-03-14_11h38.16.574,Utility_discrimination_2024_2cat,2024.2.4,MacIntel,135.1351351,,,,,,,,0,"[0.5,0.5]","[1,0]",d,"[0.9274973810135692,0.5]","[0.07250261898643084,0.5]",70.6982,73.0795,1,d,1,0.869,,0.148866283,0.680621755,0.531755473,73.0824,73.0825,0,19,19,19,1,0.427497381,0.427497381,shape_difference0,1,,TRUE,,intensity,0.1,0.05,0.7,0.3,0.82,20,400,1E-11,3.5,0.01,0.5,0.1,,,,,,,,,,,,,,,,,,,,,,,,,,,,,,,,,,,,,,,,,,,,,,,,,,,,,,,,,,,,,,,,,,,,,,,,,,,,,,,,,
,,,,,856852,001,2025-03-14_11h38.16.574,Utility_discrimination_2024_2cat,2024.2.4,MacIntel,135.1351351,,,,,,,,4,"[0.5,0.5]","[0,1]",d,"[0.8876778787766242,0.5]","[0.11232212122337581,0.5]",73.0833,75.4808,0,d,0,0.8878,,0.105213017,0.641946211,0.536733194,75.4838,75.4839,0,20,20,20,1,0.387677879,0.387677879,shape_difference0,1,,TRUE,,intensity,0.1,0.05,0.7,0.3,0.82,20,400,1E-11,3.5,0.01,0.5,0.1,,,,,,,,,,,,,,,,,,,,,,,,,,,,,,,,,,,,,,,,,,,,,,,,,,,,,,,,,,,,,,,,,,,,,,,,,,,,,,,,,
,,,,,856852,001,2025-03-14_11h38.16.574,Utility_discrimination_2024_2cat,2024.2.4,MacIntel,135.1351351,,,,,,,,3,"[0.5,0.5]","[0.383,0.924]",s,"[0.5,0.8329731738562145]","[0.5,0.16702682614378545]",75.485,78.0138,0,d,0,1.0191,,-0.138426098,0.496127593,0.634553691,78.0162,78.0162,0,21,21,21,1,0.332973174,0.332973174,shape_difference4,1,,TRUE,,intensity,0.1,0.05,0.7,0.3,0.82,20,400,1E-11,3.5,0.01,0.5,0.1,,,,,,,,,,,,,,,,,,,,,,,,,,,,,,,,,,,,,,,,,,,,,,,,,,,,,,,,,,,,,,,,,,,,,,,,,,,,,,,,,
,,,,,856852,001,2025-03-14_11h38.16.574,Utility_discrimination_2024_2cat,2024.2.4,MacIntel,135.1351351,,,,,,,,1,"[0.5,0.5]","[0.924,0.383]",s,"[0.551976190646757,0.6253942562861707]","[0.4480238093532431,0.37460574371382926]",78.0172,80.2803,1,d,1,0.7532,,0.074504002,0.684517101,0.610013099,80.282,80.282,0,22,22,22,1,0.13570807,0.13570807,shape_difference3,1,,TRUE,,intensity,0.1,0.05,0.7,0.3,0.82,20,400,1E-11,3.5,0.01,0.5,0.1,,,,,,,,,,,,,,,,,,,,,,,,,,,,,,,,,,,,,,,,,,,,,,,,,,,,,,,,,,,,,,,,,,,,,,,,,,,,,,,,,
,,,,,856852,001,2025-03-14_11h38.16.574,Utility_discrimination_2024_2cat,2024.2.4,MacIntel,135.1351351,,,,,,,,2,"[0.5,0.5]","[0.707,0.707]",d,"[0.8352924595570358,0.6389794502276458]","[0.1647075404429642,0.3610205497723542]",80.2825,82.5969,1,d,1,0.7984,,0.161915205,0.663473103,0.501557898,82.5986,82.5986,0,23,23,23,1,0.362870627,0.362870627,shape_difference1,1,,TRUE,,intensity,0.1,0.05,0.7,0.3,0.82,20,400,1E-11,3.5,0.01,0.5,0.1,,,,,,,,,,,,,,,,,,,,,,,,,,,,,,,,,,,,,,,,,,,,,,,,,,,,,,,,,,,,,,,,,,,,,,,,,,,,,,,,,
,,,,,856852,001,2025-03-14_11h38.16.574,Utility_discrimination_2024_2cat,2024.2.4,MacIntel,135.1351351,,,,,,,,0,"[0.5,0.5]","[1,0]",d,"[0.7756584637049554,0.7756584637049554]","[0.2243415362950446,0.2243415362950446]",82.5991,84.697,1,d,1,0.5837,,0.271305902,0.779678869,0.508372968,84.6987,84.6988,0,24,24,24,1,0.389898817,0.389898817,shape_difference2,1,,TRUE,,intensity,0.1,0.05,0.7,0.3,0.82,20,400,1E-11,3.5,0.01,0.5,0.1,,,,,,,,,,,,,,,,,,,,,,,,,,,,,,,,,,,,,,,,,,,,,,,,,,,,,,,,,,,,,,,,,,,,,,,,,,,,,,,,,
,,,,,856852,001,2025-03-14_11h38.16.574,Utility_discrimination_2024_2cat,2024.2.4,MacIntel,135.1351351,,,,,,,,3,"[0.5,0.5]","[0.383,0.924]",d,"[0.9996350701623584,0.5]","[0.00036492983764158105,0.5]",84.6993,87.2137,1,s,1,1.0013,,-0.158612068,0.441238695,0.599850764,87.2157,87.2158,0,25,25,25,1,0.49963507,0.49963507,shape_difference0,1,,TRUE,,intensity,0.1,0.05,0.7,0.3,0.82,20,400,1E-11,3.5,0.01,0.5,0.1,,,,,,,,,,,,,,,,,,,,,,,,,,,,,,,,,,,,,,,,,,,,,,,,,,,,,,,,,,,,,,,,,,,,,,,,,,,,,,,,,
,,,,,856852,001,2025-03-14_11h38.16.574,Utility_discrimination_2024_2cat,2024.2.4,MacIntel,135.1351351,,,,,,,,1,"[0.5,0.5]","[0.924,0.383]",s,"[0.5347308015616045,0.583789192279171]","[0.4652691984383956,0.416210807720829]",87.2176,89.4887,0,s,0,0.76,,0.059192908,0.630069596,0.570876688,89.4914,89.4914,0,26,26,26,1,0.090680944,0.090680944,shape_difference3,1,,TRUE,,intensity,0.1,0.05,0.7,0.3,0.82,20,400,1E-11,3.5,0.01,0.5,0.1,,,,,,,,,,,,,,,,,,,,,,,,,,,,,,,,,,,,,,,,,,,,,,,,,,,,,,,,,,,,,,,,,,,,,,,,,,,,,,,,,
,,,,,856852,001,2025-03-14_11h38.16.574,Utility_discrimination_2024_2cat,2024.2.4,MacIntel,135.1351351,,,,,,,,2,"[0.5,0.5]","[0.707,0.707]",d,"[0.7974369413967155,0.623288256011842]","[0.2025630586032845,0.376711743988158]",89.4923,91.9219,1,d,1,0.9197,,0.147194284,0.610247014,0.46305273,91.9247,91.9247,0,27,27,27,1,0.321901452,0.321901452,shape_difference1,1,,TRUE,,intensity,0.1,0.05,0.7,0.3,0.82,20,400,1E-11,3.5,0.01,0.5,0.1,,,,,,,,,,,,,,,,,,,,,,,,,,,,,,,,,,,,,,,,,,,,,,,,,,,,,,,,,,,,,,,,,,,,,,,,,,,,,,,,,
,,,,,856852,001,2025-03-14_11h38.16.574,Utility_discrimination_2024_2cat,2024.2.4,MacIntel,135.1351351,,,,,,,,4,"[0.5,0.5]","[0,1]",d,"[0.7581740475651789,0.7581740475651789]","[0.24182595243482108,0.24182595243482108]",91.9255,94.3047,1,d,1,0.8654,,0.203316349,0.72284052,0.51952417,94.3071,94.3071,0,28,28,28,1,0.365168384,0.365168384,shape_difference2,1,,TRUE,,intensity,0.1,0.05,0.7,0.3,0.82,20,400,1E-11,3.5,0.01,0.5,0.1,,,,,,,,,,,,,,,,,,,,,,,,,,,,,,,,,,,,,,,,,,,,,,,,,,,,,,,,,,,,,,,,,,,,,,,,,,,,,,,,,
,,,,,856852,001,2025-03-14_11h38.16.574,Utility_discrimination_2024_2cat,2024.2.4,MacIntel,135.1351351,,,,,,,,3,"[0.5,0.5]","[0.383,0.924]",d,"[0.5,0.9300692633198508]","[0.5,0.06993073668014915]",94.3083,97.0722,1,s,1,1.2547,,-0.023918249,0.566353461,0.59027171,97.0734,97.0734,0,29,29,29,1,0.430069263,0.430069263,shape_difference4,1,,TRUE,,intensity,0.1,0.05,0.7,0.3,0.82,20,400,1E-11,3.5,0.01,0.5,0.1,,,,,,,,,,,,,,,,,,,,,,,,,,,,,,,,,,,,,,,,,,,,,,,,,,,,,,,,,,,,,,,,,,,,,,,,,,,,,,,,,
,,,,,856852,001,2025-03-14_11h38.16.574,Utility_discrimination_2024_2cat,2024.2.4,MacIntel,135.1351351,,,,,,,,0,"[0.5,0.5]","[1,0]",s,"[0.5831889782404315,0.7006961250500225]","[0.4168110217595686,0.29930387494997746]",97.0746,99.4125,1,d,1,0.8295,,0.255145114,0.736871451,0.481726337,99.4139,99.4139,0,30,30,30,1,0.217203599,0.217203599,shape_difference3,1,,TRUE,,intensity,0.1,0.05,0.7,0.3,0.82,20,400,1E-11,3.5,0.01,0.5,0.1,,,,,,,,,,,,,,,,,,,,,,,,,,,,,,,,,,,,,,,,,,,,,,,,,,,,,,,,,,,,,,,,,,,,,,,,,,,,,,,,,
,,,,,856852,001,2025-03-14_11h38.16.574,Utility_discrimination_2024_2cat,2024.2.4,MacIntel,135.1351351,,,,,,,,4,"[0.5,0.5]","[0,1]",d,"[0.9715868513956523,0.5]","[0.028413148604347738,0.5]",99.4145,103.1303,1,s,1,2.2035,,0.188107535,0.679010172,0.490902637,103.133,103.1331,0,31,31,31,1,0.471586851,0.471586851,shape_difference0,1,,TRUE,,intensity,0.1,0.05,0.7,0.3,0.82,20,400,1E-11,3.5,0.01,0.5,0.1,,,,,,,,,,,,,,,,,,,,,,,,,,,,,,,,,,,,,,,,,,,,,,,,,,,,,,,,,,,,,,,,,,,,,,,,,,,,,,,,,
,,,,,856852,001,2025-03-14_11h38.16.574,Utility_discrimination_2024_2cat,2024.2.4,MacIntel,135.1351351,,,,,,,,1,"[0.5,0.5]","[0.924,0.383]",s,"[0.5,0.8921342069674211]","[0.5,0.10786579303257893]",103.1352,105.9302,1,d,1,1.2855,,0.042707883,0.579604155,0.536896272,105.9322,105.9322,0,32,32,32,1,0.392134207,0.392134207,shape_difference4,1,,TRUE,,intensity,0.1,0.05,0.7,0.3,0.82,20,400,1E-11,3.5,0.01,0.5,0.1,,,,,,,,,,,,,,,,,,,,,,,,,,,,,,,,,,,,,,,,,,,,,,,,,,,,,,,,,,,,,,,,,,,,,,,,,,,,,,,,,
,,,,,856852,001,2025-03-14_11h38.16.574,Utility_discrimination_2024_2cat,2024.2.4,MacIntel,135.1351351,,,,,,,,2,"[0.5,0.5]","[0.707,0.707]",d,"[0.7623919911477257,0.6087620482787651]","[0.23760800885227423,0.3912379517212349]",105.9331,108.3969,1,s,1,0.9513,,0.136982262,0.571891466,0.434909205,108.3989,108.3989,0,33,33,33,1,0.283974016,0.283974016,shape_difference1,1,,TRUE,,intensity,0.1,0.05,0.7,0.3,0.82,20,400,1E-11,3.5,0.01,0.5,0.1,,,,,,,,,,,,,,,,,,,,,,,,,,,,,,,,,,,,,,,,,,,,,,,,,,,,,,,,,,,,,,,,,,,,,,,,,,,,,,,,,
,,,,,856852,001,2025-03-14_11h38.16.574,Utility_discrimination_2024_2cat,2024.2.4,MacIntel,135.1351351,,,,,,,,2,"[0.5,0.5]","[0.707,0.707]",s,"[0.7430157193806682,0.7430157193806682]","[0.25698428061933176,0.25698428061933176]",108.3993,110.8627,0,d,0,0.949,,0.212711112,0.635060795,0.422349683,110.8645,110.8646,0,34,34,34,1,0.343728033,0.343728033,shape_difference2,1,,TRUE,,intensity,0.1,0.05,0.7,0.3,0.82,20,400,1E-11,3.5,0.01,0.5,0.1,,,,,,,,,,,,,,,,,,,,,,,,,,,,,,,,,,,,,,,,,,,,,,,,,,,,,,,,,,,,,,,,,,,,,,,,,,,,,,,,,
,,,,,856852,001,2025-03-14_11h38.16.574,Utility_discrimination_2024_2cat,2024.2.4,MacIntel,135.1351351,,,,,,,,1,"[0.5,0.5]","[0.924,0.383]",s,"[0.776931937437997,0.776931937437997]","[0.22306806256200296,0.22306806256200296]",110.8655,114.0635,0,d,0,1.6854,,0.031700515,0.525761037,0.494060522,114.0654,114.0654,0,35,35,35,1,0.391700053,0.391700053,shape_difference2,1,,TRUE,,intensity,0.1,0.05,0.7,0.3,0.82,20,400,1E-11,3.5,0.01,0.5,0.1,,,,,,,,,,,,,,,,,,,,,,,,,,,,,,,,,,,,,,,,,,,,,,,,,,,,,,,,,,,,,,,,,,,,,,,,,,,,,,,,,
,,,,,856852,001,2025-03-14_11h38.16.574,Utility_discrimination_2024_2cat,2024.2.4,MacIntel,135.1351351,,,,,,,,0,"[0.5,0.5]","[1,0]",s,"[0.7370716013318097,0.5982666918940294]","[0.26292839866819023,0.40173330810597063]",114.0658,119.1301,1,d,1,3.5518,,0.244098605,0.687791242,0.443692636,119.1321,119.1321,0,36,36,36,1,0.256570997,0.256570997,shape_difference1,1,,TRUE,,intensity,0.1,0.05,0.7,0.3,0.82,20,400,1E-11,3.5,0.01,0.5,0.1,,,,,,,,,,,,,,,,,,,,,,,,,,,,,,,,,,,,,,,,,,,,,,,,,,,,,,,,,,,,,,,,,,,,,,,,,,,,,,,,,
,,,,,856852,001,2025-03-14_11h38.16.574,Utility_discrimination_2024_2cat,2024.2.4,MacIntel,135.1351351,,,,,,,,4,"[0.5,0.5]","[0,1]",d,"[0.9477207913712803,0.5]","[0.05227920862871971,0.5]",119.1337,130.2553,0,d,0,9.608,,0.169284443,0.631078363,0.46179392,130.2572,130.2572,0,37,37,37,1,0.447720791,0.447720791,shape_difference0,1,,TRUE,,intensity,0.1,0.05,0.7,0.3,0.82,20,400,1E-11,3.5,0.01,0.5,0.1,,,,,,,,,,,,,,,,,,,,,,,,,,,,,,,,,,,,,,,,,,,,,,,,,,,,,,,,,,,,,,,,,,,,,,,,,,,,,,,,,
,,,,,856852,001,2025-03-14_11h38.16.574,Utility_discrimination_2024_2cat,2024.2.4,MacIntel,135.1351351,,,,,,,,3,"[0.5,0.5]","[0.383,0.924]",s,"[0.5,0.8668517334388227]","[0.5,0.1331482665611773]",130.259,145.4883,1,d,1,13.7174,,-0.042308962,0.50250489,0.544813852,145.4894,145.4894,0,38,38,38,1,0.366851733,0.366851733,shape_difference4,1,,TRUE,,intensity,0.1,0.05,0.7,0.3,0.82,20,400,1E-11,3.5,0.01,0.5,0.1,,,,,,,,,,,,,,,,,,,,,,,,,,,,,,,,,,,,,,,,,,,,,,,,,,,,,,,,,,,,,,,,,,,,,,,,,,,,,,,,,
,,,,,856852,001,2025-03-14_11h38.16.574,Utility_discrimination_2024_2cat,2024.2.4,MacIntel,135.1351351,,,,,,,,4,"[0.5,0.5]","[0,1]",d,"[0.5684316990572474,0.6650937073861531]","[0.43156830094275256,0.3349062926138469]",145.4899,148.3718,1,d,1,1.3664,,0.156307471,0.582010389,0.425702919,148.3741,148.3742,0,39,39,39,1,0.178672843,0.178672843,shape_difference3,1,,TRUE,,intensity,0.1,0.05,0.7,0.3,0.82,20,400,1E-11,3.5,0.01,0.5,0.1,,,,,,,,,,,,,,,,,,,,,,,,,,,,,,,,,,,,,,,,,,,,,,,,,,,,,,,,,,,,,,,,,,,,,,,,,,,,,,,,,
,,,,,856852,001,2025-03-14_11h38.16.574,Utility_discrimination_2024_2cat,2024.2.4,MacIntel,135.1351351,,,,,,,,2,"[0.5,0.5]","[0.707,0.707]",d,"[0.5,0.8452285662726056]","[0.5,0.15477143372739444]",148.3751,151.2052,1,s,1,1.3148,,0.289050591,0.718911628,0.429861037,151.2073,151.2074,0,40,40,40,1,0.345228566,0.345228566,shape_difference4,1,,TRUE,,intensity,0.1,0.05,0.7,0.3,0.82,20,400,1E-11,3.5,0.01,0.5,0.1,,,,,,,,,,,,,,,,,,,,,,,,,,,,,,,,,,,,,,,,,,,,,,,,,,,,,,,,,,,,,,,,,,,,,,,,,,,,,,,,,
,,,,,856852,001,2025-03-14_11h38.16.574,Utility_discrimination_2024_2cat,2024.2.4,MacIntel,135.1351351,,,,,,,,3,"[0.5,0.5]","[0.383,0.924]",s,"[0.8322550535360386,0.8322550535360386]","[0.16774494646396143,0.16774494646396143]",151.2084,153.5634,1,d,1,0.8433,,-0.054518098,0.446883636,0.501401734,153.5646,153.5646,0,41,41,41,1,0.469950571,0.469950571,shape_difference2,1,,TRUE,,intensity,0.1,0.05,0.7,0.3,0.82,20,400,1E-11,3.5,0.01,0.5,0.1,,,,,,,,,,,,,,,,,,,,,,,,,,,,,,,,,,,,,,,,,,,,,,,,,,,,,,,,,,,,,,,,,,,,,,,,,,,,,,,,,
,,,,,856852,001,2025-03-14_11h38.16.574,Utility_discrimination_2024_2cat,2024.2.4,MacIntel,135.1351351,,,,,,,,0,"[0.5,0.5]","[1,0]",d,"[0.5579237525646837,0.6397429435241979]","[0.4420762474353162,0.36025705647580203]",153.5652,155.8551,1,d,1,0.7725,,0.313333371,0.755788241,0.44245487,155.8561,155.8561,0,42,42,42,1,0.151236952,0.151236952,shape_difference3,1,,TRUE,,intensity,0.1,0.05,0.7,0.3,0.82,20,400,1E-11,3.5,0.01,0.5,0.1,,,,,,,,,,,,,,,,,,,,,,,,,,,,,,,,,,,,,,,,,,,,,,,,,,,,,,,,,,,,,,,,,,,,,,,,,,,,,,,,,
,,,,,856852,001,2025-03-14_11h38.16.574,Utility_discrimination_2024_2cat,2024.2.4,MacIntel,135.1351351,,,,,,,,1,"[0.5,0.5]","[0.924,0.383]",d,"[0.9987002445720492,0.5]","[0.0012997554279507995,0.5]",155.8566,159.2473,1,s,1,1.8756,,0.024109304,0.475461602,0.451352298,159.2501,159.2503,0,43,43,43,1,0.498700245,0.498700245,shape_difference0,1,,TRUE,,intensity,0.1,0.05,0.7,0.3,0.82,20,400,1E-11,3.5,0.01,0.5,0.1,,,,,,,,,,,,,,,,,,,,,,,,,,,,,,,,,,,,,,,,,,,,,,,,,,,,,,,,,,,,,,,,,,,,,,,,,,,,,,,,,
,,,,,856852,001,2025-03-14_11h38.16.574,Utility_discrimination_2024_2cat,2024.2.4,MacIntel,135.1351351,,,,,,,,4,"[0.5,0.5]","[0,1]",s,"[0.7149016169243901,0.5890771853701747]","[0.28509838307560986,0.4109228146298253]",159.2524,161.4389,1,s,1,0.6778,,0.142524161,0.548170094,0.405645933,161.4404,161.4404,0,44,44,44,1,0.232577507,0.232577507,shape_difference1,1,,TRUE,,intensity,0.1,0.05,0.7,0.3,0.82,20,400,1E-11,3.5,0.01,0.5,0.1,,,,,,,,,,,,,,,,,,,,,,,,,,,,,,,,,,,,,,,,,,,,,,,,,,,,,,,,,,,,,,,,,,,,,,,,,,,,,,,,,
,,,,,856852,001,2025-03-14_11h38.16.574,Utility_discrimination_2024_2cat,2024.2.4,MacIntel,135.1351351,,,,,,,,2,"[0.5,0.5]","[0.707,0.707]",s,"[0.5,0.8239439507009252]","[0.5,0.1760560492990748]",161.4411,164.3384,0,d,0,1.3796,,0.272513921,0.678111783,0.405597862,164.3394,164.3394,0,45,45,45,1,0.323943951,0.323943951,shape_difference4,1,,TRUE,,intensity,0.1,0.05,0.7,0.3,0.82,20,400,1E-11,3.5,0.01,0.5,0.1,,,,,,,,,,,,,,,,,,,,,,,,,,,,,,,,,,,,,,,,,,,,,,,,,,,,,,,,,,,,,,,,,,,,,,,,,,,,,,,,,
,,,,,856852,001,2025-03-14_11h38.16.574,Utility_discrimination_2024_2cat,2024.2.4,MacIntel,135.1351351,,,,,,,,0,"[0.5,0.5]","[1,0]",s,"[0.8177533750996815,0.8177533750996815]","[0.1822466249003185,0.1822466249003185]",164.3399,166.7718,1,s,1,0.9175,,0.308906546,0.706394394,0.397487848,166.773,166.773,0,46,46,46,1,0.449439003,0.449439003,shape_difference2,1,,TRUE,,intensity,0.1,0.05,0.7,0.3,0.82,20,400,1E-11,3.5,0.01,0.5,0.1,,,,,,,,,,,,,,,,,,,,,,,,,,,,,,,,,,,,,,,,,,,,,,,,,,,,,,,,,,,,,,,,,,,,,,,,,,,,,,,,,
,,,,,856852,001,2025-03-14_11h38.16.574,Utility_discrimination_2024_2cat,2024.2.4,MacIntel,135.1351351,,,,,,,,1,"[0.5,0.5]","[0.924,0.383]",s,"[0.9783784765789904,0.5]","[0.021621523421009647,0.5]",166.7735,169.6883,0,s,0,1.3979,,0.015508524,0.434907051,0.419398527,169.69,169.69,0,47,47,47,1,0.478378477,0.478378477,shape_difference0,1,,TRUE,,intensity,0.1,0.05,0.7,0.3,0.82,20,400,1E-11,3.5,0.01,0.5,0.1,,,,,,,,,,,,,,,,,,,,,,,,,,,,,,,,,,,,,,,,,,,,,,,,,,,,,,,,,,,,,,,,,,,,,,,,,,,,,,,,,
,,,,,856852,001,2025-03-14_11h38.16.574,Utility_discrimination_2024_2cat,2024.2.4,MacIntel,135.1351351,,,,,,,,3,"[0.5,0.5]","[0.383,0.924]",d,"[0.6908192455562967,0.579094990311755]","[0.30918075444370335,0.420905009688245]",169.6907,171.7487,1,d,1,0.5475,,-0.062912641,0.382414135,0.445326776,171.7516,171.7517,0,48,48,48,1,0.206514335,0.206514335,shape_difference1,1,,TRUE,,intensity,0.1,0.05,0.7,0.3,0.82,20,400,1E-11,3.5,0.01,0.5,0.1,,,,,,,,,,,,,,,,,,,,,,,,,,,,,,,,,,,,,,,,,,,,,,,,,,,,,,,,,,,,,,,,,,,,,,,,,,,,,,,,,
,,,,,856852,001,2025-03-14_11h38.16.574,Utility_discrimination_2024_2cat,2024.2.4,MacIntel,135.1351351,,,,,,,,1,"[0.5,0.5]","[0.924,0.383]",d,"[0.5487637735029967,0.6176441950829475]","[0.45123622649700335,0.38235580491705246]",171.7525,174.3635,1,d,1,1.1034,,0.009255116,0.39185658,0.382601464,174.3661,174.3661,0,49,49,49,1,0.127320557,0.127320557,shape_difference3,1,,TRUE,,intensity,0.1,0.05,0.7,0.3,0.82,20,400,1E-11,3.5,0.01,0.5,0.1,,,,,,,,,,,,,,,,,,,,,,,,,,,,,,,,,,,,,,,,,,,,,,,,,,,,,,,,,,,,,,,,,,,,,,,,,,,,,,,,,
,,,,,856852,001,2025-03-14_11h38.16.574,Utility_discrimination_2024_2cat,2024.2.4,MacIntel,135.1351351,,,,,,,,3,"[0.5,0.5]","[0.383,0.924]",d,"[0.6723662576740936,0.5714461868930496]","[0.3276337423259063,0.42855381310695034]",174.367,177.8383,1,s,1,1.9587,,-0.072169357,0.337690322,0.409859679,177.8398,177.8398,0,50,50,50,1,0.186543569,0.186543569,shape_difference1,1,,TRUE,,intensity,0.1,0.05,0.7,0.3,0.82,20,400,1E-11,3.5,0.01,0.5,0.1,,,,,,,,,,,,,,,,,,,,,,,,,,,,,,,,,,,,,,,,,,,,,,,,,,,,,,,,,,,,,,,,,,,,,,,,,,,,,,,,,
,,,,,856852,001,2025-03-14_11h38.16.574,Utility_discrimination_2024_2cat,2024.2.4,MacIntel,135.1351351,,,,,,,,4,"[0.5,0.5]","[0,1]",s,"[0.538991080783602,0.5940672549452958]","[0.46100891921639797,0.4059327450547042]",177.8404,180.28,0,s,0,0.9226,,0.209308194,0.613257687,0.403949494,180.2813,180.2813,0,51,51,51,1,0.101804388,0.101804388,shape_difference3,1,,TRUE,,intensity,0.1,0.05,0.7,0.3,0.82,20,400,1E-11,3.5,0.01,0.5,0.1,,,,,,,,,,,,,,,,,,,,,,,,,,,,,,,,,,,,,,,,,,,,,,,,,,,,,,,,,,,,,,,,,,,,,,,,,,,,,,,,,
,,,,,856852,001,2025-03-14_11h38.16.574,Utility_discrimination_2024_2cat,2024.2.4,MacIntel,135.1351351,,,,,,,,2,"[0.5,0.5]","[0.707,0.707]",d,"[0.5,0.8748571622212424]","[0.5,0.12514283777875757]",180.2818,184.1989,0,s,0,2.4008,,0.255003966,0.64664109,0.391637124,184.201,184.201,0,52,52,52,1,0.374857162,0.374857162,shape_difference4,1,,TRUE,,intensity,0.1,0.05,0.7,0.3,0.82,20,400,1E-11,3.5,0.01,0.5,0.1,,,,,,,,,,,,,,,,,,,,,,,,,,,,,,,,,,,,,,,,,,,,,,,,,,,,,,,,,,,,,,,,,,,,,,,,,,,,,,,,,
,,,,,856852,001,2025-03-14_11h38.16.574,Utility_discrimination_2024_2cat,2024.2.4,MacIntel,135.1351351,,,,,,,,0,"[0.5,0.5]","[1,0]",d,"[0.8038363957513763,0.8038363957513763]","[0.19616360424862367,0.19616360424862367]",184.2016,186.6718,1,s,1,0.9571,,0.367786148,0.796473916,0.428687768,186.6735,186.6735,0,53,53,53,1,0.429754449,0.429754449,shape_difference2,1,,TRUE,,intensity,0.1,0.05,0.7,0.3,0.82,20,400,1E-11,3.5,0.01,0.5,0.1,,,,,,,,,,,,,,,,,,,,,,,,,,,,,,,,,,,,,,,,,,,,,,,,,,,,,,,,,,,,,,,,,,,,,,,,,,,,,,,,,
,,,,,856852,001,2025-03-14_11h38.16.574,Utility_discrimination_2024_2cat,2024.2.4,MacIntel,135.1351351,,,,,,,,1,"[0.5,0.5]","[0.924,0.383]",s,"[1.0601597753646501,0.5]","[-0.060159775364650114,0.5]",186.6741,188.6633,1,d,1,0.4786,,0.004551663,0.365258848,0.360707184,188.6656,188.6656,0,54,54,54,1,0.560159775,0.560159775,shape_difference0,1,,TRUE,,intensity,0.1,0.05,0.7,0.3,0.82,20,400,1E-11,3.5,0.01,0.5,0.1,,,,,,,,,,,,,,,,,,,,,,,,,,,,,,,,,,,,,,,,,,,,,,,,,,,,,,,,,,,,,,,,,,,,,,,,,,,,,,,,,
,,,,,856852,001,2025-03-14_11h38.16.574,Utility_discrimination_2024_2cat,2024.2.4,MacIntel,135.1351351,,,,,,,,3,"[0.5,0.5]","[0.383,0.924]",d,"[0.6585778372739957,0.5657308567921432]","[0.34142216272600434,0.43426914320785676]",188.6675,190.93,1,d,1,0.7514,,0.004864367,0.432005499,0.427141132,190.9327,190.9327,0,55,55,55,1,0.171621036,0.171621036,shape_difference1,1,,TRUE,,intensity,0.1,0.05,0.7,0.3,0.82,20,400,1E-11,3.5,0.01,0.5,0.1,,,,,,,,,,,,,,,,,,,,,,,,,,,,,,,,,,,,,,,,,,,,,,,,,,,,,,,,,,,,,,,,,,,,,,,,,,,,,,,,,
,,,,,856852,001,2025-03-14_11h38.16.574,Utility_discrimination_2024_2cat,2024.2.4,MacIntel,135.1351351,,,,,,,,4,"[0.5,0.5]","[0,1]",d,"[0.5631493721386276,0.6523499212952792]","[0.43685062786137235,0.34765007870472076]",190.9338,193.6632,1,d,1,1.2176,,0.263525291,0.713806234,0.450280942,193.6655,193.6655,0,56,56,56,1,0.164880867,0.164880867,shape_difference3,1,,TRUE,,intensity,0.1,0.05,0.7,0.3,0.82,20,400,1E-11,3.5,0.01,0.5,0.1,,,,,,,,,,,,,,,,,,,,,,,,,,,,,,,,,,,,,,,,,,,,,,,,,,,,,,,,,,,,,,,,,,,,,,,,,,,,,,,,,
,,,,,856852,001,2025-03-14_11h38.16.574,Utility_discrimination_2024_2cat,2024.2.4,MacIntel,135.1351351,,,,,,,,0,"[0.5,0.5]","[1,0]",d,"[0.5,0.9586248641043795]","[0.5,0.041375135895620474]",193.6666,197.1467,1,s,1,1.9698,,0.355931422,0.763964992,0.40803357,197.1489,197.1489,0,57,57,57,1,0.458624864,0.458624864,shape_difference4,1,,TRUE,,intensity,0.1,0.05,0.7,0.3,0.82,20,400,1E-11,3.5,0.01,0.5,0.1,,,,,,,,,,,,,,,,,,,,,,,,,,,,,,,,,,,,,,,,,,,,,,,,,,,,,,,,,,,,,,,,,,,,,,,,,,,,,,,,,
,,,,,856852,001,2025-03-14_11h38.16.574,Utility_discrimination_2024_2cat,2024.2.4,MacIntel,135.1351351,,,,,,,,2,"[0.5,0.5]","[0.707,0.707]",s,"[1.0391384931359056,0.5]","[-0.03913849313590556,0.5]",197.1497,198.7125,1,d,1,0.0504,,0.242714666,0.602222352,0.359507685,198.7153,198.7153,0,58,58,58,1,0.539138493,0.539138493,shape_difference0,1,,TRUE,,intensity,0.1,0.05,0.7,0.3,0.82,20,400,1E-11,3.5,0.01,0.5,0.1,,,,,,,,,,,,,,,,,,,,,,,,,,,,,,,,,,,,,,,,,,,,,,,,,,,,,,,,,,,,,,,,,,,,,,,,,,,,,,,,,
,,,,,856852,001,2025-03-14_11h38.16.574,Utility_discrimination_2024_2cat,2024.2.4,MacIntel,135.1351351,,,,,,,,1,"[0.5,0.5]","[0.924,0.383]",d,"[0.78870281495268,0.78870281495268]","[0.21129718504732004,0.21129718504732004]",198.7163,200.8383,1,d,1,0.6116,,0.000887689,0.329561909,0.328674219,200.8402,200.8402,0,59,59,59,1,0.408349102,0.408349102,shape_difference2,1,,TRUE,,intensity,0.1,0.05,0.7,0.3,0.82,20,400,1E-11,3.5,0.01,0.5,0.1,,,,,,,,,,,,,,,,,,,,,,,,,,,,,,,,,,,,,,,,,,,,,,,,,,,,,,,,,,,,,,,,,,,,,,,,,,,,,,,,,
,,,,,856852,001,2025-03-14_11h38.16.574,Utility_discrimination_2024_2cat,2024.2.4,MacIntel,135.1351351,,,,,,,,2,"[0.5,0.5]","[0.707,0.707]",d,"[0.6466091016486512,0.5607697899690838]","[0.35339089835134885,0.4392302100309162]",200.8407,203.9148,1,d,1,1.5632,,0.233898306,0.581127468,0.347229162,203.9171,203.9172,0,60,60,60,1,0.158667859,0.158667859,shape_difference1,1,,TRUE,,intensity,0.1,0.05,0.7,0.3,0.82,20,400,1E-11,3.5,0.01,0.5,0.1,,,,,,,,,,,,,,,,,,,,,,,,,,,,,,,,,,,,,,,,,,,,,,,,,,,,,,,,,,,,,,,,,,,,,,,,,,,,,,,,,
,,,,,856852,001,2025-03-14_11h38.16.574,Utility_discrimination_2024_2cat,2024.2.4,MacIntel,135.1351351,,,,,,,,4,"[0.5,0.5]","[0,1]",d,"[0.7768687068282399,0.7768687068282399]","[0.22313129317176006,0.22313129317176006]",203.9177,206.4132,0,d,0,0.9829,,0.252466759,0.672596848,0.420130089,206.4151,206.4151,0,61,61,61,1,0.391610618,0.391610618,shape_difference2,1,,TRUE,,intensity,0.1,0.05,0.7,0.3,0.82,20,400,1E-11,3.5,0.01,0.5,0.1,,,,,,,,,,,,,,,,,,,,,,,,,,,,,,,,,,,,,,,,,,,,,,,,,,,,,,,,,,,,,,,,,,,,,,,,,,,,,,,,,
,,,,,856852,001,2025-03-14_11h38.16.574,Utility_discrimination_2024_2cat,2024.2.4,MacIntel,135.1351351,,,,,,,,3,"[0.5,0.5]","[0.383,0.924]",s,"[0.5,0.9361635769429313]","[0.5,0.06383642305706871]",206.4157,208.8634,1,d,1,0.9359,,0.002217419,0.377326223,0.375108804,208.8657,208.8657,0,62,62,62,1,0.436163577,0.436163577,shape_difference4,1,,TRUE,,intensity,0.1,0.05,0.7,0.3,0.82,20,400,1E-11,3.5,0.01,0.5,0.1,,,,,,,,,,,,,,,,,,,,,,,,,,,,,,,,,,,,,,,,,,,,,,,,,,,,,,,,,,,,,,,,,,,,,,,,,,,,,,,,,
,,,,,856852,001,2025-03-14_11h38.16.574,Utility_discrimination_2024_2cat,2024.2.4,MacIntel,135.1351351,,,,,,,,0,"[0.5,0.5]","[1,0]",d,"[0.5563135485644148,0.6358582738211992]","[0.44368645143558516,0.3641417261788008]",208.8666,211.2291,1,s,1,0.8532,,0.342998595,0.728151233,0.385152638,211.232,211.232,0,63,63,63,1,0.147032764,0.147032764,shape_difference3,1,,TRUE,,intensity,0.1,0.05,0.7,0.3,0.82,20,400,1E-11,3.5,0.01,0.5,0.1,,,,,,,,,,,,,,,,,,,,,,,,,,,,,,,,,,,,,,,,,,,,,,,,,,,,,,,,,,,,,,,,,,,,,,,,,,,,,,,,,
,,,,,856852,001,2025-03-14_11h38.16.574,Utility_discrimination_2024_2cat,2024.2.4,MacIntel,135.1351351,,,,,,,,0,"[0.5,0.5]","[1,0]",s,"[1.0175630551390298,0.5]","[-0.017563055139029893,0.5]",211.2329,214.2222,1,s,1,1.4781,,0.333835096,0.692388437,0.358553341,214.2239,214.224,0,64,64,64,1,0.517563055,0.517563055,shape_difference0,1,,TRUE,,intensity,0.1,0.05,0.7,0.3,0.82,20,400,1E-11,3.5,0.01,0.5,0.1,,,,,,,,,,,,,,,,,,,,,,,,,,,,,,,,,,,,,,,,,,,,,,,,,,,,,,,,,,,,,,,,,,,,,,,,,,,,,,,,,
,,,,,856852,001,2025-03-14_11h38.16.574,Utility_discrimination_2024_2cat,2024.2.4,MacIntel,135.1351351,,,,,,,,3,"[0.5,0.5]","[0.383,0.924]",s,"[0.9963255472788447,0.5]","[0.003674452721155297,0.5]",214.2244,216.5965,0,d,0,0.8594,,-0.008400649,0.339233067,0.347633716,216.5978,216.5978,0,65,65,65,1,0.496325547,0.496325547,shape_difference0,1,,TRUE,,intensity,0.1,0.05,0.7,0.3,0.82,20,400,1E-11,3.5,0.01,0.5,0.1,,,,,,,,,,,,,,,,,,,,,,,,,,,,,,,,,,,,,,,,,,,,,,,,,,,,,,,,,,,,,,,,,,,,,,,,,,,,,,,,,
,,,,,856852,001,2025-03-14_11h38.16.574,Utility_discrimination_2024_2cat,2024.2.4,MacIntel,135.1351351,,,,,,,,1,"[0.5,0.5]","[0.924,0.383]",s,"[0.5498406318373515,0.6202421509600857]","[0.45015936816264845,0.3797578490399143]",216.5983,219.1136,1,d,1,1.0033,,-0.015122632,0.295532142,0.310654775,219.1157,219.1157,0,66,66,66,1,0.130132198,0.130132198,shape_difference3,1,,TRUE,,intensity,0.1,0.05,0.7,0.3,0.82,20,400,1E-11,3.5,0.01,0.5,0.1,,,,,,,,,,,,,,,,,,,,,,,,,,,,,,,,,,,,,,,,,,,,,,,,,,,,,,,,,,,,,,,,,,,,,,,,,,,,,,,,,
,,,,,856852,001,2025-03-14_11h38.16.574,Utility_discrimination_2024_2cat,2024.2.4,MacIntel,135.1351351,,,,,,,,4,"[0.5,0.5]","[0,1]",d,"[0.6357363014169961,0.5562629907388631]","[0.36426369858300384,0.4437370092611369]",219.1165,221.3464,0,s,0,0.7195,,0.240495408,0.635997281,0.395501873,221.3491,221.3491,0,67,67,67,1,0.146900759,0.146900759,shape_difference1,1,,TRUE,,intensity,0.1,0.05,0.7,0.3,0.82,20,400,1E-11,3.5,0.01,0.5,0.1,,,,,,,,,,,,,,,,,,,,,,,,,,,,,,,,,,,,,,,,,,,,,,,,,,,,,,,,,,,,,,,,,,,,,,,,,,,,,,,,,
,,,,,856852,001,2025-03-14_11h38.16.574,Utility_discrimination_2024_2cat,2024.2.4,MacIntel,135.1351351,,,,,,,,2,"[0.5,0.5]","[0.707,0.707]",d,"[0.5,0.9130937194203866]","[0.5,0.08690628057961336]",221.3497,223.5632,1,d,1,0.7012,,0.304269635,0.651359243,0.347089608,223.5655,223.5655,0,68,68,68,1,0.413093719,0.413093719,shape_difference4,1,,TRUE,,intensity,0.1,0.05,0.7,0.3,0.82,20,400,1E-11,3.5,0.01,0.5,0.1,,,,,,,,,,,,,,,,,,,,,,,,,,,,,,,,,,,,,,,,,,,,,,,,,,,,,,,,,,,,,,,,,,,,,,,,,,,,,,,,,
,,,,,856852,001,2025-03-14_11h38.16.574,Utility_discrimination_2024_2cat,2024.2.4,MacIntel,135.1351351,,,,,,,,3,"[0.5,0.5]","[0.383,0.924]",d,"[0.8151066255824562,0.8151066255824562]","[0.18489337441754378,0.18489337441754378]",223.5663,226.3798,1,s,1,1.3028,,-0.028846205,0.29585006,0.324696265,226.3819,226.3819,0,69,69,69,1,0.445695369,0.445695369,shape_difference2,1,,TRUE,,intensity,0.1,0.05,0.7,0.3,0.82,20,400,1E-11,3.5,0.01,0.5,0.1,,,,,,,,,,,,,,,,,,,,,,,,,,,,,,,,,,,,,,,,,,,,,,,,,,,,,,,,,,,,,,,,,,,,,,,,,,,,,,,,,
,,,,,856852,001,2025-03-14_11h38.16.574,Utility_discrimination_2024_2cat,2024.2.4,MacIntel,135.1351351,,,,,,,,2,"[0.5,0.5]","[0.707,0.707]",s,"[0.5428655368949199,0.6034145067647676]","[0.4571344631050801,0.3965854932352324]",226.3823,228.9131,0,s,0,1.0171,,0.301422548,0.613584733,0.312162185,228.9143,228.9143,0,70,70,70,1,0.111920462,0.111920462,shape_difference3,1,,TRUE,,intensity,0.1,0.05,0.7,0.3,0.82,20,400,1E-11,3.5,0.01,0.5,0.1,,,,,,,,,,,,,,,,,,,,,,,,,,,,,,,,,,,,,,,,,,,,,,,,,,,,,,,,,,,,,,,,,,,,,,,,,,,,,,,,,
,,,,,856852,001,2025-03-14_11h38.16.574,Utility_discrimination_2024_2cat,2024.2.4,MacIntel,135.1351351,,,,,,,,1,"[0.5,0.5]","[0.924,0.383]",d,"[0.803874335159569,0.803874335159569]","[0.19612566484043104,0.19612566484043104]",228.9148,231.263,1,d,1,0.8362,,0.018740566,0.346244812,0.327504246,231.2664,231.2664,0,71,71,71,1,0.429808112,0.429808112,shape_difference2,1,,TRUE,,intensity,0.1,0.05,0.7,0.3,0.82,20,400,1E-11,3.5,0.01,0.5,0.1,,,,,,,,,,,,,,,,,,,,,,,,,,,,,,,,,,,,,,,,,,,,,,,,,,,,,,,,,,,,,,,,,,,,,,,,,,,,,,,,,
,,,,,856852,001,2025-03-14_11h38.16.574,Utility_discrimination_2024_2cat,2024.2.4,MacIntel,135.1351351,,,,,,,,4,"[0.5,0.5]","[0,1]",d,"[0.6609154815414362,0.5666998154008334]","[0.3390845184585638,0.4333001845991666]",231.2673,233.6455,1,s,1,0.8661,,0.232017941,0.594315067,0.362297127,233.6478,233.6478,0,72,72,72,1,0.174150954,0.174150954,shape_difference1,1,,TRUE,,intensity,0.1,0.05,0.7,0.3,0.82,20,400,1E-11,3.5,0.01,0.5,0.1,,,,,,,,,,,,,,,,,,,,,,,,,,,,,,,,,,,,,,,,,,,,,,,,,,,,,,,,,,,,,,,,,,,,,,,,,,,,,,,,,
,,,,,856852,001,2025-03-14_11h38.16.574,Utility_discrimination_2024_2cat,2024.2.4,MacIntel,135.1351351,,,,,,,,0,"[0.5,0.5]","[1,0]",s,"[0.5,0.8932451903210137]","[0.5,0.10675480967898632]",233.6484,235.9299,1,s,1,0.7672,,0.404786832,0.76709593,0.362309098,235.9313,235.9313,0,73,73,73,1,0.39324519,0.39324519,shape_difference4,1,,TRUE,,intensity,0.1,0.05,0.7,0.3,0.82,20,400,1E-11,3.5,0.01,0.5,0.1,,,,,,,,,,,,,,,,,,,,,,,,,,,,,,,,,,,,,,,,,,,,,,,,,,,,,,,,,,,,,,,,,,,,,,,,,,,,,,,,,
,,,,,856852,001,2025-03-14_11h38.16.574,Utility_discrimination_2024_2cat,2024.2.4,MacIntel,135.1351351,,,,,,,,3,"[0.5,0.5]","[0.383,0.924]",s,"[1.053936282044107,0.5]","[-0.05393628204410705,0.5]",235.9318,238.2131,1,s,1,0.7686,,0.010019084,0.376181925,0.366162841,238.215,238.2151,0,74,74,74,1,0.553936282,0.553936282,shape_difference0,1,,TRUE,,intensity,0.1,0.05,0.7,0.3,0.82,20,400,1E-11,3.5,0.01,0.5,0.1,,,,,,,,,,,,,,,,,,,,,,,,,,,,,,,,,,,,,,,,,,,,,,,,,,,,,,,,,,,,,,,,,,,,,,,,,,,,,,,,,
,,,,,856852,001,2025-03-14_11h38.16.574,Utility_discrimination_2024_2cat,2024.2.4,MacIntel,135.1351351,,,,,,,,2,"[0.5,0.5]","[0.707,0.707]",s,"[0.5598032124988003,0.6442772019553302]","[0.44019678750119967,0.3557227980446698]",238.216,240.3622,1,d,1,0.6329,,0.28910753,0.58871697,0.29960944,240.3641,240.3641,0,75,75,75,1,0.156144158,0.156144158,shape_difference3,1,,TRUE,,intensity,0.1,0.05,0.7,0.3,0.82,20,400,1E-11,3.5,0.01,0.5,0.1,,,,,,,,,,,,,,,,,,,,,,,,,,,,,,,,,,,,,,,,,,,,,,,,,,,,,,,,,,,,,,,,,,,,,,,,,,,,,,,,,
,,,,,856852,001,2025-03-14_11h38.16.574,Utility_discrimination_2024_2cat,2024.2.4,MacIntel,135.1351351,,,,,,,,4,"[0.5,0.5]","[0,1]",d,"[0.7917177261680212,0.7917177261680212]","[0.20828227383197884,0.20828227383197884]",240.3645,243.6798,1,s,1,1.8074,,0.225874955,0.570463864,0.344588909,243.6819,243.682,0,76,76,76,1,0.412613474,0.412613474,shape_difference2,1,,TRUE,,intensity,0.1,0.05,0.7,0.3,0.82,20,400,1E-11,3.5,0.01,0.5,0.1,,,,,,,,,,,,,,,,,,,,,,,,,,,,,,,,,,,,,,,,,,,,,,,,,,,,,,,,,,,,,,,,,,,,,,,,,,,,,,,,,
,,,,,856852,001,2025-03-14_11h38.16.574,Utility_discrimination_2024_2cat,2024.2.4,MacIntel,135.1351351,,,,,,,,1,"[0.5,0.5]","[0.924,0.383]",s,"[0.5,0.8810818315499489]","[0.5,0.1189181684500511]",243.6826,253.1547,0,d,0,7.9607,,0.015061326,0.307939502,0.292878175,253.156,253.1561,0,77,77,77,1,0.381081832,0.381081832,shape_difference4,1,,TRUE,,intensity,0.1,0.05,0.7,0.3,0.82,20,400,1E-11,3.5,0.01,0.5,0.1,,,,,,,,,,,,,,,,,,,,,,,,,,,,,,,,,,,,,,,,,,,,,,,,,,,,,,,,,,,,,,,,,,,,,,,,,,,,,,,,,
,,,,,856852,001,2025-03-14_11h38.16.574,Utility_discrimination_2024_2cat,2024.2.4,MacIntel,135.1351351,,,,,,,,0,"[0.5,0.5]","[1,0]",s,"[0.6518067337719484,0.5629242197344764]","[0.34819326622805163,0.4370757802655236]",253.157,255.4297,0,s,0,0.758,,0.402636971,0.72665272,0.324015749,255.431,255.431,0,78,78,78,1,0.164293002,0.164293002,shape_difference1,1,,TRUE,,intensity,0.1,0.05,0.7,0.3,0.82,20,400,1E-11,3.5,0.01,0.5,0.1,,,,,,,,,,,,,,,,,,,,,,,,,,,,,,,,,,,,,,,,,,,,,,,,,,,,,,,,,,,,,,,,,,,,,,,,,,,,,,,,,
,,,,,856852,001,2025-03-14_11h38.16.574,Utility_discrimination_2024_2cat,2024.2.4,MacIntel,135.1351351,,,,,,,,3,"[0.5,0.5]","[0.383,0.924]",d,"[1.038258033131487,0.5]","[-0.03825803313148701,0.5]",255.4316,258.1963,1,d,1,1.2544,,0.007981229,0.328905515,0.320924286,258.1977,258.1977,0,79,79,79,1,0.538258033,0.538258033,shape_difference0,1,,TRUE,,intensity,0.1,0.05,0.7,0.3,0.82,20,400,1E-11,3.5,0.01,0.5,0.1,,,,,,,,,,,,,,,,,,,,,,,,,,,,,,,,,,,,,,,,,,,,,,,,,,,,,,,,,,,,,,,,,,,,,,,,,,,,,,,,,
,,,,,856852,001,2025-03-14_11h38.16.574,Utility_discrimination_2024_2cat,2024.2.4,MacIntel,135.1351351,,,,,,,,0,"[0.5,0.5]","[1,0]",d,"[0.5546308876704057,0.6317987994972711]","[0.4453691123295943,0.36820120050272886]",258.1983,260.3715,1,d,1,0.6546,,0.398622885,0.694763129,0.296140244,260.3727,260.3727,0,80,80,80,1,0.142639393,0.142639393,shape_difference3,1,,TRUE,,intensity,0.1,0.05,0.7,0.3,0.82,20,400,1E-11,3.5,0.01,0.5,0.1,,,,,,,,,,,,,,,,,,,,,,,,,,,,,,,,,,,,,,,,,,,,,,,,,,,,,,,,,,,,,,,,,,,,,,,,,,,,,,,,,
,,,,,856852,001,2025-03-14_11h38.16.574,Utility_discrimination_2024_2cat,2024.2.4,MacIntel,135.1351351,,,,,,,,2,"[0.5,0.5]","[0.707,0.707]",d,"[1.0220642034610363,0.5]","[-0.022064203461036436,0.5]",260.3732,262.9632,1,s,1,1.0746,,0.270703542,0.569752735,0.299049193,262.965,262.965,0,81,81,81,1,0.522064203,0.522064203,shape_difference0,1,,TRUE,,intensity,0.1,0.05,0.7,0.3,0.82,20,400,1E-11,3.5,0.01,0.5,0.1,,,,,,,,,,,,,,,,,,,,,,,,,,,,,,,,,,,,,,,,,,,,,,,,,,,,,,,,,,,,,,,,,,,,,,,,,,,,,,,,,
,,,,,856852,001,2025-03-14_11h38.16.574,Utility_discrimination_2024_2cat,2024.2.4,MacIntel,135.1351351,,,,,,,,1,"[0.5,0.5]","[0.924,0.383]",s,"[0.7802678126590322,0.7802678126590322]","[0.21973218734096778,0.21973218734096778]",262.966,265.5788,1,d,1,1.1006,,0.06643003,0.385433296,0.319003266,265.58,265.58,0,82,82,82,1,0.396418405,0.396418405,shape_difference2,1,,TRUE,,intensity,0.1,0.05,0.7,0.3,0.82,20,400,1E-11,3.5,0.01,0.5,0.1,,,,,,,,,,,,,,,,,,,,,,,,,,,,,,,,,,,,,,,,,,,,,,,,,,,,,,,,,,,,,,,,,,,,,,,,,,,,,,,,,
,,,,,856852,001,2025-03-14_11h38.16.574,Utility_discrimination_2024_2cat,2024.2.4,MacIntel,135.1351351,,,,,,,,4,"[0.5,0.5]","[0,1]",d,"[0.6917159709827561,0.5794666849419865]","[0.30828402901724394,0.42053331505801345]",265.5807,267.9293,1,d,1,0.8335,,0.300841204,0.644900352,0.344059148,267.9306,267.9306,0,83,83,83,1,0.207484817,0.207484817,shape_difference1,1,,TRUE,,intensity,0.1,0.05,0.7,0.3,0.82,20,400,1E-11,3.5,0.01,0.5,0.1,,,,,,,,,,,,,,,,,,,,,,,,,,,,,,,,,,,,,,,,,,,,,,,,,,,,,,,,,,,,,,,,,,,,,,,,,,,,,,,,,
,,,,,856852,001,2025-03-14_11h38.16.574,Utility_discrimination_2024_2cat,2024.2.4,MacIntel,135.1351351,,,,,,,,3,"[0.5,0.5]","[0.383,0.924]",d,"[0.5,0.9350671990153998]","[0.5,0.06493280098460019]",267.9313,270.4955,0,s,0,1.0477,,0.005827798,0.294359466,0.288531668,270.4971,270.4971,0,84,84,84,1,0.435067199,0.435067199,shape_difference4,1,,TRUE,,intensity,0.1,0.05,0.7,0.3,0.82,20,400,1E-11,3.5,0.01,0.5,0.1,,,,,,,,,,,,,,,,,,,,,,,,,,,,,,,,,,,,,,,,,,,,,,,,,,,,,,,,,,,,,,,,,,,,,,,,,,,,,,,,,
,,,,,856852,001,2025-03-14_11h38.16.574,Utility_discrimination_2024_2cat,2024.2.4,MacIntel,135.1351351,,,,,,,,1,"[0.5,0.5]","[0.924,0.383]",d,"[0.5494989161661337,0.6194177507506725]","[0.4505010838338663,0.38058224924932754]",270.4979,274.0797,0,s,0,2.0661,,0.052989358,0.364880045,0.311890687,274.0813,274.0813,0,85,85,85,1,0.12923999,0.12923999,shape_difference3,1,,TRUE,,intensity,0.1,0.05,0.7,0.3,0.82,20,400,1E-11,3.5,0.01,0.5,0.1,,,,,,,,,,,,,,,,,,,,,,,,,,,,,,,,,,,,,,,,,,,,,,,,,,,,,,,,,,,,,,,,,,,,,,,,,,,,,,,,,
,,,,,856852,001,2025-03-14_11h38.16.574,Utility_discrimination_2024_2cat,2024.2.4,MacIntel,135.1351351,,,,,,,,0,"[0.5,0.5]","[1,0]",d,"[0.6784640931651921,0.5739737529028881]","[0.3215359068348079,0.42602624709711195]",274.0819,276.1464,1,d,1,0.5543,,0.37751888,0.678303773,0.300784894,276.1479,276.1479,0,86,86,86,1,0.193142958,0.193142958,shape_difference1,1,,TRUE,,intensity,0.1,0.05,0.7,0.3,0.82,20,400,1E-11,3.5,0.01,0.5,0.1,,,,,,,,,,,,,,,,,,,,,,,,,,,,,,,,,,,,,,,,,,,,,,,,,,,,,,,,,,,,,,,,,,,,,,,,,,,,,,,,,
,,,,,856852,001,2025-03-14_11h38.16.574,Utility_discrimination_2024_2cat,2024.2.4,MacIntel,135.1351351,,,,,,,,4,"[0.5,0.5]","[0,1]",d,"[1.0041930797236107,0.5]","[-0.004193079723610604,0.5]",276.1492,278.3228,1,d,1,0.6571,,0.314283735,0.696205003,0.381921267,278.3253,278.3253,0,87,87,87,1,0.50419308,0.50419308,shape_difference0,1,,TRUE,,intensity,0.1,0.05,0.7,0.3,0.82,20,400,1E-11,3.5,0.01,0.5,0.1,,,,,,,,,,,,,,,,,,,,,,,,,,,,,,,,,,,,,,,,,,,,,,,,,,,,,,,,,,,,,,,,,,,,,,,,,,,,,,,,,
,,,,,856852,001,2025-03-14_11h38.16.574,Utility_discrimination_2024_2cat,2024.2.4,MacIntel,135.1351351,,,,,,,,2,"[0.5,0.5]","[0.707,0.707]",d,"[0.5,0.9747335612356508]","[0.5,0.025266438764349197]",278.3263,280.463,1,d,1,0.6283,,0.257093658,0.545731085,0.288637427,280.4645,280.4645,0,88,88,88,1,0.474733561,0.474733561,shape_difference4,1,,TRUE,,intensity,0.1,0.05,0.7,0.3,0.82,20,400,1E-11,3.5,0.01,0.5,0.1,,,,,,,,,,,,,,,,,,,,,,,,,,,,,,,,,,,,,,,,,,,,,,,,,,,,,,,,,,,,,,,,,,,,,,,,,,,,,,,,,
,,,,,856852,001,2025-03-14_11h38.16.574,Utility_discrimination_2024_2cat,2024.2.4,MacIntel,135.1351351,,,,,,,,4,"[0.5,0.5]","[0,1]",d,"[0.773634439034903,0.773634439034903]","[0.2263655609650969,0.2263655609650969]",280.4652,282.5216,1,d,1,0.5426,,0.311456987,0.666139189,0.354682202,282.5235,282.5236,0,89,89,89,1,0.387035982,0.387035982,shape_difference2,1,,TRUE,,intensity,0.1,0.05,0.7,0.3,0.82,20,400,1E-11,3.5,0.01,0.5,0.1,,,,,,,,,,,,,,,,,,,,,,,,,,,,,,,,,,,,,,,,,,,,,,,,,,,,,,,,,,,,,,,,,,,,,,,,,,,,,,,,,
,,,,,856852,001,2025-03-14_11h38.16.574,Utility_discrimination_2024_2cat,2024.2.4,MacIntel,135.1351351,,,,,,,,3,"[0.5,0.5]","[0.383,0.924]",d,"[0.5,0.9596973225040074]","[0.5,0.04030267749599259]",282.5244,284.538,1,d,1,0.5006,,0.014574321,0.361807225,0.347232904,284.54,284.54,0,90,90,90,1,0.459697323,0.459697323,shape_difference4,1,,TRUE,,intensity,0.1,0.05,0.7,0.3,0.82,20,400,1E-11,3.5,0.01,0.5,0.1,,,,,,,,,,,,,,,,,,,,,,,,,,,,,,,,,,,,,,,,,,,,,,,,,,,,,,,,,,,,,,,,,,,,,,,,,,,,,,,,,
,,,,,856852,001,2025-03-14_11h38.16.574,Utility_discrimination_2024_2cat,2024.2.4,MacIntel,135.1351351,,,,,,,,1,"[0.5,0.5]","[0.924,0.383]",d,"[0.5615929280089248,0.6485949490345864]","[0.43840707199107515,0.3514050509654137]",284.5408,286.8212,1,d,1,0.7691,,0.04301765,0.338569326,0.295551676,286.8232,286.8232,0,91,91,91,1,0.160817044,0.160817044,shape_difference3,1,,TRUE,,intensity,0.1,0.05,0.7,0.3,0.82,20,400,1E-11,3.5,0.01,0.5,0.1,,,,,,,,,,,,,,,,,,,,,,,,,,,,,,,,,,,,,,,,,,,,,,,,,,,,,,,,,,,,,,,,,,,,,,,,,,,,,,,,,
,,,,,856852,001,2025-03-14_11h38.16.574,Utility_discrimination_2024_2cat,2024.2.4,MacIntel,135.1351351,,,,,,,,0,"[0.5,0.5]","[1,0]",d,"[0.6698209840948884,0.570391165485219]","[0.33017901590511156,0.42960883451478105]",286.8241,289.2297,1,s,1,0.8904,,0.362056428,0.657720018,0.295663591,289.231,289.231,0,92,92,92,1,0.183788944,0.183788944,shape_difference1,1,,TRUE,,intensity,0.1,0.05,0.7,0.3,0.82,20,400,1E-11,3.5,0.01,0.5,0.1,,,,,,,,,,,,,,,,,,,,,,,,,,,,,,,,,,,,,,,,,,,,,,,,,,,,,,,,,,,,,,,,,,,,,,,,,,,,,,,,,
,,,,,856852,001,2025-03-14_11h38.16.574,Utility_discrimination_2024_2cat,2024.2.4,MacIntel,135.1351351,,,,,,,,2,"[0.5,0.5]","[0.707,0.707]",s,"[0.9919062134958012,0.5]","[0.008093786504198786,0.5]",289.2316,291.3121,1,d,1,0.5663,,0.246843347,0.514360401,0.267517054,291.3137,291.3137,0,93,93,93,1,0.491906213,0.491906213,shape_difference0,1,,TRUE,,intensity,0.1,0.05,0.7,0.3,0.82,20,400,1E-11,3.5,0.01,0.5,0.1,,,,,,,,,,,,,,,,,,,,,,,,,,,,,,,,,,,,,,,,,,,,,,,,,,,,,,,,,,,,,,,,,,,,,,,,,,,,,,,,,
,,,,,856852,001,2025-03-14_11h38.16.574,Utility_discrimination_2024_2cat,2024.2.4,MacIntel,135.1351351,,,,,,,,1,"[0.5,0.5]","[0.924,0.383]",d,"[0.7682269363569962,0.7682269363569962]","[0.2317730636430037,0.2317730636430037]",291.3145,293.4877,1,d,1,0.6586,,0.035481953,0.303833369,0.268351416,293.4888,293.4888,0,94,94,94,1,0.379387463,0.379387463,shape_difference2,1,,TRUE,,intensity,0.1,0.05,0.7,0.3,0.82,20,400,1E-11,3.5,0.01,0.5,0.1,,,,,,,,,,,,,,,,,,,,,,,,,,,,,,,,,,,,,,,,,,,,,,,,,,,,,,,,,,,,,,,,,,,,,,,,,,,,,,,,,
,,,,,856852,001,2025-03-14_11h38.16.574,Utility_discrimination_2024_2cat,2024.2.4,MacIntel,135.1351351,,,,,,,,2,"[0.5,0.5]","[0.707,0.707]",d,"[0.6626699642155103,0.5674270522668187]","[0.33733003578448967,0.43257294773318133]",293.4893,296.0796,1,s,1,1.0826,,0.238989202,0.495540188,0.256550986,296.0808,296.0808,0,95,95,95,1,0.176049745,0.176049745,shape_difference1,1,,TRUE,,intensity,0.1,0.05,0.7,0.3,0.82,20,400,1E-11,3.5,0.01,0.5,0.1,,,,,,,,,,,,,,,,,,,,,,,,,,,,,,,,,,,,,,,,,,,,,,,,,,,,,,,,,,,,,,,,,,,,,,,,,,,,,,,,,
,,,,,856852,001,2025-03-14_11h38.16.574,Utility_discrimination_2024_2cat,2024.2.4,MacIntel,135.1351351,,,,,,,,3,"[0.5,0.5]","[0.383,0.924]",s,"[0.7637159434188048,0.7637159434188048]","[0.23628405658119517,0.23628405658119517]",296.0814,298.2786,1,d,1,0.6834,,0.012341167,0.313724275,0.301383109,298.2799,298.2799,0,96,96,96,1,0.373006992,0.373006992,shape_difference2,1,,TRUE,,intensity,0.1,0.05,0.7,0.3,0.82,20,400,1E-11,3.5,0.01,0.5,0.1,,,,,,,,,,,,,,,,,,,,,,,,,,,,,,,,,,,,,,,,,,,,,,,,,,,,,,,,,,,,,,,,,,,,,,,,,,,,,,,,,
,,,,,856852,001,2025-03-14_11h38.16.574,Utility_discrimination_2024_2cat,2024.2.4,MacIntel,135.1351351,,,,,,,,4,"[0.5,0.5]","[0,1]",d,"[0.5573845677133192,0.6384421424728641]","[0.44261543228668077,0.3615578575271359]",298.2803,300.3802,1,d,1,0.591,,0.30933956,0.625395377,0.316055817,300.3814,300.3814,0,97,97,97,1,0.149829159,0.149829159,shape_difference3,1,,TRUE,,intensity,0.1,0.05,0.7,0.3,0.82,20,400,1E-11,3.5,0.01,0.5,0.1,,,,,,,,,,,,,,,,,,,,,,,,,,,,,,,,,,,,,,,,,,,,,,,,,,,,,,,,,,,,,,,,,,,,,,,,,,,,,,,,,
,,,,,856852,001,2025-03-14_11h38.16.574,Utility_discrimination_2024_2cat,2024.2.4,MacIntel,135.1351351,,,,,,,,0,"[0.5,0.5]","[1,0]",d,"[0.5,0.9464197458304057]","[0.5,0.05358025416959433]",300.3818,302.6291,1,d,1,0.7379,,0.350517079,0.631128795,0.280611716,302.6303,302.6303,0,98,98,98,1,0.446419746,0.446419746,shape_difference4,1,,TRUE,,intensity,0.1,0.05,0.7,0.3,0.82,20,400,1E-11,3.5,0.01,0.5,0.1,,,,,,,,,,,,,,,,,,,,,,,,,,,,,,,,,,,,,,,,,,,,,,,,,,,,,,,,,,,,,,,,,,,,,,,,,,,,,,,,,
,,,,,856852,001,2025-03-14_11h38.16.574,Utility_discrimination_2024_2cat,2024.2.4,MacIntel,135.1351351,,,,,,,,4,"[0.5,0.5]","[0,1]",d,"[0.9833284998509981,0.5]","[0.016671500149001872,0.5]",302.6308,304.6797,1,d,1,0.5361,,0.30721888,0.595120228,0.287901347,304.6815,304.6815,0,99,99,99,1,0.4833285,0.4833285,shape_difference0,1,,TRUE,,intensity,0.1,0.05,0.7,0.3,0.82,20,400,1E-11,3.5,0.01,0.5,0.1,,,,,,,,,,,,,,,,,,,,,,,,,,,,,,,,,,,,,,,,,,,,,,,,,,,,,,,,,,,,,,,,,,,,,,,,,,,,,,,,,
,,,,,856852,001,2025-03-14_11h38.16.574,Utility_discrimination_2024_2cat,2024.2.4,MacIntel,135.1351351,,,,,,,,0,"[0.5,0.5]","[1,0]",d,"[0.5,0.9334401015340348]","[0.5,0.06655989846596522]",304.6825,306.8128,1,s,1,0.6214,,0.341753185,0.59927228,0.257519096,306.8144,306.8144,0,100,100,100,1,0.433440102,0.433440102,shape_difference4,1,,TRUE,,intensity,0.1,0.05,0.7,0.3,0.82,20,400,1E-11,3.5,0.01,0.5,0.1,,,,,,,,,,,,,,,,,,,,,,,,,,,,,,,,,,,,,,,,,,,,,,,,,,,,,,,,,,,,,,,,,,,,,,,,,,,,,,,,,
,,,,,856852,001,2025-03-14_11h38.16.574,Utility_discrimination_2024_2cat,2024.2.4,MacIntel,135.1351351,,,,,,,,1,"[0.5,0.5]","[0.924,0.383]",s,"[0.9762466390059914,0.5]","[0.0237533609940086,0.5]",306.8152,309.6462,1,d,1,1.3155,,0.029687503,0.293255938,0.263568435,309.6476,309.6476,0,101,101,101,1,0.476246639,0.476246639,shape_difference0,1,,TRUE,,intensity,0.1,0.05,0.7,0.3,0.82,20,400,1E-11,3.5,0.01,0.5,0.1,,,,,,,,,,,,,,,,,,,,,,,,,,,,,,,,,,,,,,,,,,,,,,,,,,,,,,,,,,,,,,,,,,,,,,,,,,,,,,,,,
,,,,,856852,001,2025-03-14_11h38.16.574,Utility_discrimination_2024_2cat,2024.2.4,MacIntel,135.1351351,,,,,,,,2,"[0.5,0.5]","[0.707,0.707]",d,"[0.6565917603577397,0.5649076236114874]","[0.3434082396422603,0.4350923763885126]",309.6482,312.1214,1,s,1,0.9565,,0.232874184,0.488119684,0.2552455,312.1232,312.1232,0,102,102,102,1,0.169471602,0.169471602,shape_difference1,1,,TRUE,,intensity,0.1,0.05,0.7,0.3,0.82,20,400,1E-11,3.5,0.01,0.5,0.1,,,,,,,,,,,,,,,,,,,,,,,,,,,,,,,,,,,,,,,,,,,,,,,,,,,,,,,,,,,,,,,,,,,,,,,,,,,,,,,,,
,,,,,856852,001,2025-03-14_11h38.16.574,Utility_discrimination_2024_2cat,2024.2.4,MacIntel,135.1351351,,,,,,,,3,"[0.5,0.5]","[0.383,0.924]",s,"[0.7598528586566511,0.7598528586566511]","[0.2401471413433489,0.2401471413433489]",312.1241,314.2634,1,s,1,0.6301,,0.010301687,0.291329763,0.281028076,314.2652,314.2652,0,103,103,103,1,0.36754294,0.36754294,shape_difference2,1,,TRUE,,intensity,0.1,0.05,0.7,0.3,0.82,20,400,1E-11,3.5,0.01,0.5,0.1,,,,,,,,,,,,,,,,,,,,,,,,,,,,,,,,,,,,,,,,,,,,,,,,,,,,,,,,,,,,,,,,,,,,,,,,,,,,,,,,,
,,,,,856852,001,2025-03-14_11h38.16.574,Utility_discrimination_2024_2cat,2024.2.4,MacIntel,135.1351351,,,,,,,,2,"[0.5,0.5]","[0.707,0.707]",s,"[0.5533492863909847,0.62870689458295]","[0.4466507136090153,0.37129310541704996]",314.2662,316.4628,1,s,1,0.6839,,0.228043152,0.48007514,0.252031987,316.4644,316.4644,0,104,104,104,1,0.139293176,0.139293176,shape_difference3,1,,TRUE,,intensity,0.1,0.05,0.7,0.3,0.82,20,400,1E-11,3.5,0.01,0.5,0.1,,,,,,,,,,,,,,,,,,,,,,,,,,,,,,,,,,,,,,,,,,,,,,,,,,,,,,,,,,,,,,,,,,,,,,,,,,,,,,,,,
,,,,,856852,001,2025-03-14_11h38.16.574,Utility_discrimination_2024_2cat,2024.2.4,MacIntel,135.1351351,,,,,,,,3,"[0.5,0.5]","[0.383,0.924]",s,"[0.7564459690734909,0.7564459690734909]","[0.24355403092650907,0.24355403092650907]",316.4652,318.5962,1,d,1,0.6138,,0.008632237,0.276959347,0.26832711,318.5973,318.5973,0,105,105,105,1,0.362724143,0.362724143,shape_difference2,1,,TRUE,,intensity,0.1,0.05,0.7,0.3,0.82,20,400,1E-11,3.5,0.01,0.5,0.1,,,,,,,,,,,,,,,,,,,,,,,,,,,,,,,,,,,,,,,,,,,,,,,,,,,,,,,,,,,,,,,,,,,,,,,,,,,,,,,,,
,,,,,856852,001,2025-03-14_11h38.16.574,Utility_discrimination_2024_2cat,2024.2.4,MacIntel,135.1351351,,,,,,,,4,"[0.5,0.5]","[0,1]",d,"[0.5490409390785965,0.6183128660799561]","[0.4509590609214035,0.38168713392004394]",318.5978,320.6721,1,d,1,0.5586,,0.305388965,0.58049263,0.275103664,320.6756,320.6756,0,106,106,106,1,0.128044227,0.128044227,shape_difference3,1,,TRUE,,intensity,0.1,0.05,0.7,0.3,0.82,20,400,1E-11,3.5,0.01,0.5,0.1,,,,,,,,,,,,,,,,,,,,,,,,,,,,,,,,,,,,,,,,,,,,,,,,,,,,,,,,,,,,,,,,,,,,,,,,,,,,,,,,,
,,,,,856852,001,2025-03-14_11h38.16.574,Utility_discrimination_2024_2cat,2024.2.4,MacIntel,135.1351351,,,,,,,,0,"[0.5,0.5]","[1,0]",d,"[0.5,0.919463916932314]","[0.5,0.080536083067686]",320.6767,322.9963,0,d,0,0.8097,,0.334986869,0.592105616,0.257118747,322.999,322.9991,0,107,107,107,1,0.419463917,0.419463917,shape_difference4,1,,TRUE,,intensity,0.1,0.05,0.7,0.3,0.82,20,400,1E-11,3.5,0.01,0.5,0.1,,,,,,,,,,,,,,,,,,,,,,,,,,,,,,,,,,,,,,,,,,,,,,,,,,,,,,,,,,,,,,,,,,,,,,,,,,,,,,,,,
,,,,,856852,001,2025-03-14_11h38.16.574,Utility_discrimination_2024_2cat,2024.2.4,MacIntel,135.1351351,,,,,,,,1,"[0.5,0.5]","[0.924,0.383]",s,"[0.9702546573495724,0.5]","[0.02974534265042761,0.5]",323,325.2975,0,s,0,0.7888,,0.025159626,0.285375442,0.260215816,325.2994,325.2994,0,108,108,108,1,0.470254657,0.470254657,shape_difference0,1,,TRUE,,intensity,0.1,0.05,0.7,0.3,0.82,20,400,1E-11,3.5,0.01,0.5,0.1,,,,,,,,,,,,,,,,,,,,,,,,,,,,,,,,,,,,,,,,,,,,,,,,,,,,,,,,,,,,,,,,,,,,,,,,,,,,,,,,,
,,,,,856852,001,2025-03-14_11h38.16.574,Utility_discrimination_2024_2cat,2024.2.4,MacIntel,135.1351351,,,,,,,,2,"[0.5,0.5]","[0.707,0.707]",d,"[0.6512669442303493,0.5627004758011079]","[0.34873305576965075,0.43729952419889206]",325.3009,327.362,1,d,1,0.5514,,0.224175835,0.471015493,0.246839659,327.3634,327.3634,0,109,109,109,1,0.163708814,0.163708814,shape_difference1,1,,TRUE,,intensity,0.1,0.05,0.7,0.3,0.82,20,400,1E-11,3.5,0.01,0.5,0.1,,,,,,,,,,,,,,,,,,,,,,,,,,,,,,,,,,,,,,,,,,,,,,,,,,,,,,,,,,,,,,,,,,,,,,,,,,,,,,,,,
,,,,,856852,001,2025-03-14_11h38.16.574,Utility_discrimination_2024_2cat,2024.2.4,MacIntel,135.1351351,,,,,,,,3,"[0.5,0.5]","[0.383,0.924]",d,"[0.7533436129871816,0.7533436129871816]","[0.2466563870128184,0.2466563870128184]",327.3642,330.2953,1,s,1,1.4161,,0.007227004,0.2595387,0.252311696,330.2972,330.2972,0,110,110,110,1,0.358336086,0.358336086,shape_difference2,1,,TRUE,,intensity,0.1,0.05,0.7,0.3,0.82,20,400,1E-11,3.5,0.01,0.5,0.1,,,,,,,,,,,,,,,,,,,,,,,,,,,,,,,,,,,,,,,,,,,,,,,,,,,,,,,,,,,,,,,,,,,,,,,,,,,,,,,,,
,,,,,856852,001,2025-03-14_11h38.16.574,Utility_discrimination_2024_2cat,2024.2.4,MacIntel,135.1351351,,,,,,,,0,"[0.5,0.5]","[1,0]",s,"[0.5443035011417995,0.6068836424413127]","[0.4556964988582005,0.39311635755868735]",330.2987,332.2969,1,d,1,0.4879,,0.401987728,0.644166431,0.242178703,332.2985,332.2986,0,111,111,111,1,0.115674938,0.115674938,shape_difference3,1,,TRUE,,intensity,0.1,0.05,0.7,0.3,0.82,20,400,1E-11,3.5,0.01,0.5,0.1,,,,,,,,,,,,,,,,,,,,,,,,,,,,,,,,,,,,,,,,,,,,,,,,,,,,,,,,,,,,,,,,,,,,,,,,,,,,,,,,,
,,,,,856852,001,2025-03-14_11h38.16.574,Utility_discrimination_2024_2cat,2024.2.4,MacIntel,135.1351351,,,,,,,,4,"[0.5,0.5]","[0,1]",d,"[0.9941551993458901,0.5]","[0.005844800654109861,0.5]",332.2993,334.6285,1,s,1,0.8167,,0.312931163,0.623597806,0.310666643,334.6297,334.6297,0,112,112,112,1,0.494155199,0.494155199,shape_difference0,1,,TRUE,,intensity,0.1,0.05,0.7,0.3,0.82,20,400,1E-11,3.5,0.01,0.5,0.1,,,,,,,,,,,,,,,,,,,,,,,,,,,,,,,,,,,,,,,,,,,,,,,,,,,,,,,,,,,,,,,,,,,,,,,,,,,,,,,,,
,,,,,856852,001,2025-03-14_11h38.16.574,Utility_discrimination_2024_2cat,2024.2.4,MacIntel,135.1351351,,,,,,,,1,"[0.5,0.5]","[0.924,0.383]",s,"[0.5,0.9531307982527608]","[0.5,0.046869201747239186]",334.6302,337.0079,1,s,1,0.8668,,0.021568834,0.276659988,0.255091154,337.0089,337.0089,0,113,113,113,1,0.453130798,0.453130798,shape_difference4,1,,TRUE,,intensity,0.1,0.05,0.7,0.3,0.82,20,400,1E-11,3.5,0.01,0.5,0.1,,,,,,,,,,,,,,,,,,,,,,,,,,,,,,,,,,,,,,,,,,,,,,,,,,,,,,,,,,,,,,,,,,,,,,,,,,,,,,,,,
,,,,,856852,001,2025-03-14_11h38.16.574,Utility_discrimination_2024_2cat,2024.2.4,MacIntel,135.1351351,,,,,,,,2,"[0.5,0.5]","[0.707,0.707]",s,"[0.6464458794833274,0.5607021340282623]","[0.35355412051667257,0.4392978659717377]",337.0093,339.9785,1,s,1,1.4602,,0.221043296,0.460469886,0.23942659,339.98,339.98,0,114,114,114,1,0.158491212,0.158491212,shape_difference1,1,,TRUE,,intensity,0.1,0.05,0.7,0.3,0.82,20,400,1E-11,3.5,0.01,0.5,0.1,,,,,,,,,,,,,,,,,,,,,,,,,,,,,,,,,,,,,,,,,,,,,,,,,,,,,,,,,,,,,,,,,,,,,,,,,,,,,,,,,
,,,,,856852,001,2025-03-14_11h38.16.574,Utility_discrimination_2024_2cat,2024.2.4,MacIntel,135.1351351,,,,,,,,4,"[0.5,0.5]","[0,1]",s,"[0.7504221442278071,0.7504221442278071]","[0.24957785577219294,0.24957785577219294]",339.9806,342.4959,1,d,1,0.9988,,0.311120732,0.592351103,0.281230371,342.4979,342.498,0,115,115,115,1,0.354203882,0.354203882,shape_difference2,1,,TRUE,,intensity,0.1,0.05,0.7,0.3,0.82,20,400,1E-11,3.5,0.01,0.5,0.1,,,,,,,,,,,,,,,,,,,,,,,,,,,,,,,,,,,,,,,,,,,,,,,,,,,,,,,,,,,,,,,,,,,,,,,,,,,,,,,,,
,,,,,856852,001,2025-03-14_11h38.16.574,Utility_discrimination_2024_2cat,2024.2.4,MacIntel,135.1351351,,,,,,,,0,"[0.5,0.5]","[1,0]",d,"[0.5,0.9425178657090854]","[0.5,0.057482134290914644]",342.4993,347.8795,1,d,1,3.8688,,0.400414552,0.616500265,0.216085713,347.8813,347.8813,0,116,116,116,1,0.442517866,0.442517866,shape_difference4,1,,TRUE,,intensity,0.1,0.05,0.7,0.3,0.82,20,400,1E-11,3.5,0.01,0.5,0.1,,,,,,,,,,,,,,,,,,,,,,,,,,,,,,,,,,,,,,,,,,,,,,,,,,,,,,,,,,,,,,,,,,,,,,,,,,,,,,,,,
,,,,,856852,001,2025-03-14_11h38.16.574,Utility_discrimination_2024_2cat,2024.2.4,MacIntel,135.1351351,,,,,,,,3,"[0.5,0.5]","[0.383,0.924]",d,"[0.9864834732613034,0.5]","[0.013516526738696633,0.5]",347.8829,350.5879,1,s,1,1.192,,0.006006523,0.237784172,0.23177765,350.5891,350.5891,0,117,117,117,1,0.486483473,0.486483473,shape_difference0,1,,TRUE,,intensity,0.1,0.05,0.7,0.3,0.82,20,400,1E-11,3.5,0.01,0.5,0.1,,,,,,,,,,,,,,,,,,,,,,,,,,,,,,,,,,,,,,,,,,,,,,,,,,,,,,,,,,,,,,,,,,,,,,,,,,,,,,,,,
,,,,,856852,001,2025-03-14_11h38.16.574,Utility_discrimination_2024_2cat,2024.2.4,MacIntel,135.1351351,,,,,,,,1,"[0.5,0.5]","[0.924,0.383]",s,"[0.5389661564242637,0.5940071241149338]","[0.4610338435757363,0.40599287588506616]",350.5905,352.9129,1,d,1,0.8118,,0.01868276,0.266647335,0.247964574,352.9151,352.9152,0,118,118,118,1,0.101739312,0.101739312,shape_difference3,1,,TRUE,,intensity,0.1,0.05,0.7,0.3,0.82,20,400,1E-11,3.5,0.01,0.5,0.1,,,,,,,,,,,,,,,,,,,,,,,,,,,,,,,,,,,,,,,,,,,,,,,,,,,,,,,,,,,,,,,,,,,,,,,,,,,,,,,,,
,,,,,856852,001,2025-03-14_11h38.16.574,Utility_discrimination_2024_2cat,2024.2.4,MacIntel,135.1351351,,,,,,,,0,"[0.5,0.5]","[1,0]",d,"[0.6419274703839967,0.5588292436764835]","[0.35807252961600333,0.44117075632351654]",352.9162,356.5058,1,s,1,2.075,,0.386473116,0.597056219,0.210583103,356.5084,356.5084,0,119,119,119,1,0.153601158,0.153601158,shape_difference1,1,,TRUE,,intensity,0.1,0.05,0.7,0.3,0.82,20,400,1E-11,3.5,0.01,0.5,0.1,,,,,,,,,,,,,,,,,,,,,,,,,,,,,,,,,,,,,,,,,,,,,,,,,,,,,,,,,,,,,,,,,,,,,,,,,,,,,,,,,
,,,,,856852,001,2025-03-14_11h38.16.574,Utility_discrimination_2024_2cat,2024.2.4,MacIntel,135.1351351,,,,,,,,4,"[0.5,0.5]","[0,1]",s,"[0.9802448527826826,0.5]","[0.019755147217317415,0.5]",356.5093,358.971,1,d,1,0.9508,,0.309408479,0.57963086,0.27022238,358.9732,358.9732,0,120,120,120,1,0.480244853,0.480244853,shape_difference0,1,,TRUE,,intensity,0.1,0.05,0.7,0.3,0.82,20,400,1E-11,3.5,0.01,0.5,0.1,,,,,,,,,,,,,,,,,,,,,,,,,,,,,,,,,,,,,,,,,,,,,,,,,,,,,,,,,,,,,,,,,,,,,,,,,,,,,,,,,
,,,,,856852,001,2025-03-14_11h38.16.574,Utility_discrimination_2024_2cat,2024.2.4,MacIntel,135.1351351,,,,,,,,3,"[0.5,0.5]","[0.383,0.924]",d,"[0.5,0.9315545357448429]","[0.5,0.06844546425515707]",358.9739,361.3451,1,d,1,0.8582,,0.00490961,0.209943023,0.205033412,361.3465,361.3465,0,121,121,121,1,0.431554536,0.431554536,shape_difference4,1,,TRUE,,intensity,0.1,0.05,0.7,0.3,0.82,20,400,1E-11,3.5,0.01,0.5,0.1,,,,,,,,,,,,,,,,,,,,,,,,,,,,,,,,,,,,,,,,,,,,,,,,,,,,,,,,,,,,,,,,,,,,,,,,,,,,,,,,,
,,,,,856852,001,2025-03-14_11h38.16.574,Utility_discrimination_2024_2cat,2024.2.4,MacIntel,135.1351351,,,,,,,,2,"[0.5,0.5]","[0.707,0.707]",d,"[0.5355300823826663,0.5857174833461714]","[0.46446991761733375,0.41428251665382865]",361.347,363.5793,1,s,1,0.7188,,0.218479323,0.44785283,0.229373507,363.5811,363.5811,0,122,122,122,1,0.092767839,0.092767839,shape_difference3,1,,TRUE,,intensity,0.1,0.05,0.7,0.3,0.82,20,400,1E-11,3.5,0.01,0.5,0.1,,,,,,,,,,,,,,,,,,,,,,,,,,,,,,,,,,,,,,,,,,,,,,,,,,,,,,,,,,,,,,,,,,,,,,,,,,,,,,,,,
,,,,,856852,001,2025-03-14_11h38.16.574,Utility_discrimination_2024_2cat,2024.2.4,MacIntel,135.1351351,,,,,,,,1,"[0.5,0.5]","[0.924,0.383]",s,"[0.7475771841984106,0.7475771841984106]","[0.25242281580158943,0.25242281580158943]",363.5819,365.9128,1,s,1,0.8197,,0.016334913,0.254767674,0.238432761,365.9147,365.9147,0,123,123,123,1,0.350179893,0.350179893,shape_difference2,1,,TRUE,,intensity,0.1,0.05,0.7,0.3,0.82,20,400,1E-11,3.5,0.01,0.5,0.1,,,,,,,,,,,,,,,,,,,,,,,,,,,,,,,,,,,,,,,,,,,,,,,,,,,,,,,,,,,,,,,,,,,,,,,,,,,,,,,,,
,,,,,856852,001,2025-03-14_11h38.16.574,Utility_discrimination_2024_2cat,2024.2.4,MacIntel,135.1351351,,,,,,,,0,"[0.5,0.5]","[1,0]",s,"[0.6375438939046476,0.5570122417375325]","[0.3624561060953524,0.4429877582624675]",365.9155,368.4294,1,d,1,1.003,,0.371719426,0.59120536,0.219485934,368.4309,368.431,0,124,124,124,1,0.148857028,0.148857028,shape_difference1,1,,TRUE,,intensity,0.1,0.05,0.7,0.3,0.82,20,400,1E-11,3.5,0.01,0.5,0.1,,,,,,,,,,,,,,,,,,,,,,,,,,,,,,,,,,,,,,,,,,,,,,,,,,,,,,,,,,,,,,,,,,,,,,,,,,,,,,,,,
,,,,,856852,001,2025-03-14_11h38.16.574,Utility_discrimination_2024_2cat,2024.2.4,MacIntel,135.1351351,,,,,,,,2,"[0.5,0.5]","[0.707,0.707]",d,"[0.9750923214832157,0.5]","[0.024907678516784326,0.5]",368.4318,371.5377,0,d,0,1.5917,,0.216361375,0.432418688,0.216057313,371.5394,371.5394,0,125,125,125,1,0.475092321,0.475092321,shape_difference0,1,,TRUE,,intensity,0.1,0.05,0.7,0.3,0.82,20,400,1E-11,3.5,0.01,0.5,0.1,,,,,,,,,,,,,,,,,,,,,,,,,,,,,,,,,,,,,,,,,,,,,,,,,,,,,,,,,,,,,,,,,,,,,,,,,,,,,,,,,
,,,,,856852,001,2025-03-14_11h38.16.574,Utility_discrimination_2024_2cat,2024.2.4,MacIntel,135.1351351,,,,,,,,1,"[0.5,0.5]","[0.924,0.383]",s,"[0.7447171283769257,0.7447171283769257]","[0.2552828716230743,0.2552828716230743]",371.5401,374.346,1,d,1,1.2914,,0.013975868,0.242353655,0.228377787,374.3471,374.3472,0,126,126,126,1,0.346134552,0.346134552,shape_difference2,1,,TRUE,,intensity,0.1,0.05,0.7,0.3,0.82,20,400,1E-11,3.5,0.01,0.5,0.1,,,,,,,,,,,,,,,,,,,,,,,,,,,,,,,,,,,,,,,,,,,,,,,,,,,,,,,,,,,,,,,,,,,,,,,,,,,,,,,,,
,,,,,856852,001,2025-03-14_11h38.16.574,Utility_discrimination_2024_2cat,2024.2.4,MacIntel,135.1351351,,,,,,,,4,"[0.5,0.5]","[0,1]",d,"[0.6326298600700873,0.5549753640766704]","[0.3673701399299128,0.44502463592332964]",374.3477,377.2293,0,s,0,1.3686,,0.307991554,0.564220751,0.256229197,377.2305,377.2306,0,127,127,127,1,0.14353881,0.14353881,shape_difference1,1,,TRUE,,intensity,0.1,0.05,0.7,0.3,0.82,20,400,1E-11,3.5,0.01,0.5,0.1,,,,,,,,,,,,,,,,,,,,,,,,,,,,,,,,,,,,,,,,,,,,,,,,,,,,,,,,,,,,,,,,,,,,,,,,,,,,,,,,,
,,,,,856852,001,2025-03-14_11h38.16.574,Utility_discrimination_2024_2cat,2024.2.4,MacIntel,135.1351351,,,,,,,,3,"[0.5,0.5]","[0.383,0.924]",d,"[0.5,0.9195811008227864]","[0.5,0.08041889917721357]",377.231,379.6712,1,s,1,0.9261,,0.00388774,0.196806589,0.192918848,379.6735,379.6736,0,128,128,128,1,0.419581101,0.419581101,shape_difference4,1,,TRUE,,intensity,0.1,0.05,0.7,0.3,0.82,20,400,1E-11,3.5,0.01,0.5,0.1,,,,,,,,,,,,,,,,,,,,,,,,,,,,,,,,,,,,,,,,,,,,,,,,,,,,,,,,,,,,,,,,,,,,,,,,,,,,,,,,,
,,,,,856852,001,2025-03-14_11h38.16.574,Utility_discrimination_2024_2cat,2024.2.4,MacIntel,135.1351351,,,,,,,,0,"[0.5,0.5]","[1,0]",s,"[0.5329684124871729,0.5795373711178792]","[0.46703158751282714,0.4204626288821208]",379.6743,382.0304,0,s,0,0.842,,0.405340637,0.628133197,0.22279256,382.0336,382.0337,0,129,129,129,1,0.086079406,0.086079406,shape_difference3,1,,TRUE,,intensity,0.1,0.05,0.7,0.3,0.82,20,400,1E-11,3.5,0.01,0.5,0.1,,,,,,,,,,,,,,,,,,,,,,,,,,,,,,,,,,,,,,,,,,,,,,,,,,,,,,,,,,,,,,,,,,,,,,,,,,,,,,,,,
,,,,,856852,001,2025-03-14_11h38.16.574,Utility_discrimination_2024_2cat,2024.2.4,MacIntel,135.1351351,,,,,,,,3,"[0.5,0.5]","[0.383,0.924]",d,"[0.9949534878467816,0.5]","[0.005046512153218385,0.5]",382.0344,384.3821,1,s,1,0.8393,,0.008411913,0.243847808,0.235435895,384.3837,384.3837,0,130,130,130,1,0.494953488,0.494953488,shape_difference0,1,,TRUE,,intensity,0.1,0.05,0.7,0.3,0.82,20,400,1E-11,3.5,0.01,0.5,0.1,,,,,,,,,,,,,,,,,,,,,,,,,,,,,,,,,,,,,,,,,,,,,,,,,,,,,,,,,,,,,,,,,,,,,,,,,,,,,,,,,
,,,,,856852,001,2025-03-14_11h38.16.574,Utility_discrimination_2024_2cat,2024.2.4,MacIntel,135.1351351,,,,,,,,2,"[0.5,0.5]","[0.707,0.707]",s,"[0.5439878579762462,0.6061221430027454]","[0.4560121420237538,0.39387785699725464]",384.3851,386.545,0,s,0,0.6538,,0.214218049,0.415726334,0.201508284,386.5465,386.5466,0,131,131,131,1,0.114850804,0.114850804,shape_difference3,1,,TRUE,,intensity,0.1,0.05,0.7,0.3,0.82,20,400,1E-11,3.5,0.01,0.5,0.1,,,,,,,,,,,,,,,,,,,,,,,,,,,,,,,,,,,,,,,,,,,,,,,,,,,,,,,,,,,,,,,,,,,,,,,,,,,,,,,,,
,,,,,856852,001,2025-03-14_11h38.16.574,Utility_discrimination_2024_2cat,2024.2.4,MacIntel,135.1351351,,,,,,,,4,"[0.5,0.5]","[0,1]",d,"[0.7412959976730098,0.7412959976730098]","[0.2587040023269902,0.2587040023269902]",386.5474,388.6793,1,d,1,0.6167,,0.306786419,0.545007997,0.238221578,388.6805,388.6805,0,132,132,132,1,0.341295612,0.341295612,shape_difference2,1,,TRUE,,intensity,0.1,0.05,0.7,0.3,0.82,20,400,1E-11,3.5,0.01,0.5,0.1,,,,,,,,,,,,,,,,,,,,,,,,,,,,,,,,,,,,,,,,,,,,,,,,,,,,,,,,,,,,,,,,,,,,,,,,,,,,,,,,,
,,,,,856852,001,2025-03-14_11h38.16.574,Utility_discrimination_2024_2cat,2024.2.4,MacIntel,135.1351351,,,,,,,,1,"[0.5,0.5]","[0.924,0.383]",d,"[0.5,0.9061761736208838]","[0.5,0.09382382637911624]",388.6811,391.1301,1,s,1,0.9365,,0.022928933,0.265056535,0.242127601,391.132,391.132,0,133,133,133,1,0.406176174,0.406176174,shape_difference4,1,,TRUE,,intensity,0.1,0.05,0.7,0.3,0.82,20,400,1E-11,3.5,0.01,0.5,0.1,,,,,,,,,,,,,,,,,,,,,,,,,,,,,,,,,,,,,,,,,,,,,,,,,,,,,,,,,,,,,,,,,,,,,,,,,,,,,,,,,
,,,,,856852,001,2025-03-14_11h38.16.574,Utility_discrimination_2024_2cat,2024.2.4,MacIntel,135.1351351,,,,,,,,3,"[0.5,0.5]","[0.383,0.924]",s,"[0.6445127248792293,0.5599008372605463]","[0.3554872751207708,0.4400991627394537]",391.133,393.2291,1,s,1,0.5881,,0.012958311,0.279056975,0.266098664,393.2311,393.2312,0,134,134,134,1,0.156399053,0.156399053,shape_difference1,1,,TRUE,,intensity,0.1,0.05,0.7,0.3,0.82,20,400,1E-11,3.5,0.01,0.5,0.1,,,,,,,,,,,,,,,,,,,,,,,,,,,,,,,,,,,,,,,,,,,,,,,,,,,,,,,,,,,,,,,,,,,,,,,,,,,,,,,,,
,,,,,856852,001,2025-03-14_11h38.16.574,Utility_discrimination_2024_2cat,2024.2.4,MacIntel,135.1351351,,,,,,,,0,"[0.5,0.5]","[1,0]",s,"[0.5547533884525527,0.6320943366322682]","[0.44524661154744727,0.36790566336773173]",393.2323,395.4126,1,s,1,0.6642,,0.404317396,0.59969888,0.195381485,395.4145,395.4145,0,135,135,135,1,0.142959239,0.142959239,shape_difference3,1,,TRUE,,intensity,0.1,0.05,0.7,0.3,0.82,20,400,1E-11,3.5,0.01,0.5,0.1,,,,,,,,,,,,,,,,,,,,,,,,,,,,,,,,,,,,,,,,,,,,,,,,,,,,,,,,,,,,,,,,,,,,,,,,,,,,,,,,,
,,,,,856852,001,2025-03-14_11h38.16.574,Utility_discrimination_2024_2cat,2024.2.4,MacIntel,135.1351351,,,,,,,,4,"[0.5,0.5]","[0,1]",s,"[0.9878024018446979,0.5]","[0.01219759815530208,0.5]",395.4161,397.7131,1,s,1,0.7856,,0.30572935,0.520475075,0.214745725,397.7146,397.7146,0,136,136,136,1,0.487802402,0.487802402,shape_difference0,1,,TRUE,,intensity,0.1,0.05,0.7,0.3,0.82,20,400,1E-11,3.5,0.01,0.5,0.1,,,,,,,,,,,,,,,,,,,,,,,,,,,,,,,,,,,,,,,,,,,,,,,,,,,,,,,,,,,,,,,,,,,,,,,,,,,,,,,,,
,,,,,856852,001,2025-03-14_11h38.16.574,Utility_discrimination_2024_2cat,2024.2.4,MacIntel,135.1351351,,,,,,,,2,"[0.5,0.5]","[0.707,0.707]",s,"[0.5,0.8951444487822301]","[0.5,0.1048555512177699]",397.7159,399.596,1,d,1,0.3687,,0.212451907,0.399574037,0.18712213,399.5971,399.5971,0,137,137,137,1,0.395144449,0.395144449,shape_difference4,1,,TRUE,,intensity,0.1,0.05,0.7,0.3,0.82,20,400,1E-11,3.5,0.01,0.5,0.1,,,,,,,,,,,,,,,,,,,,,,,,,,,,,,,,,,,,,,,,,,,,,,,,,,,,,,,,,,,,,,,,,,,,,,,,,,,,,,,,,
,,,,,856852,001,2025-03-14_11h38.16.574,Utility_discrimination_2024_2cat,2024.2.4,MacIntel,135.1351351,,,,,,,,1,"[0.5,0.5]","[0.924,0.383]",d,"[0.7374153107536741,0.7374153107536741]","[0.2625846892463259,0.2625846892463259]",399.5976,401.9304,1,s,1,0.8182,,0.020051543,0.253729421,0.233677878,401.9322,401.9322,0,138,138,138,1,0.335806663,0.335806663,shape_difference2,1,,TRUE,,intensity,0.1,0.05,0.7,0.3,0.82,20,400,1E-11,3.5,0.01,0.5,0.1,,,,,,,,,,,,,,,,,,,,,,,,,,,,,,,,,,,,,,,,,,,,,,,,,,,,,,,,,,,,,,,,,,,,,,,,,,,,,,,,,
,,,,,856852,001,2025-03-14_11h38.16.574,Utility_discrimination_2024_2cat,2024.2.4,MacIntel,135.1351351,,,,,,,,4,"[0.5,0.5]","[0,1]",s,"[0.6408389037987903,0.5583780304707107]","[0.3591610962012097,0.4416219695292893]",401.9338,404.0878,0,s,0,0.6417,,0.304770507,0.498493752,0.193723245,404.0891,404.0891,0,139,139,139,1,0.152423056,0.152423056,shape_difference1,1,,TRUE,,intensity,0.1,0.05,0.7,0.3,0.82,20,400,1E-11,3.5,0.01,0.5,0.1,,,,,,,,,,,,,,,,,,,,,,,,,,,,,,,,,,,,,,,,,,,,,,,,,,,,,,,,,,,,,,,,,,,,,,,,,,,,,,,,,
,,,,,856852,001,2025-03-14_11h38.16.574,Utility_discrimination_2024_2cat,2024.2.4,MacIntel,135.1351351,,,,,,,,1,"[0.5,0.5]","[0.924,0.383]",d,"[0.5,0.8880765819984362]","[0.5,0.1119234180015638]",404.0896,406.2471,1,s,1,0.6456,,0.062637346,0.283585993,0.220948647,406.2496,406.2496,0,140,140,140,1,0.388076582,0.388076582,shape_difference4,1,,TRUE,,intensity,0.1,0.05,0.7,0.3,0.82,20,400,1E-11,3.5,0.01,0.5,0.1,,,,,,,,,,,,,,,,,,,,,,,,,,,,,,,,,,,,,,,,,,,,,,,,,,,,,,,,,,,,,,,,,,,,,,,,,,,,,,,,,
,,,,,856852,001,2025-03-14_11h38.16.574,Utility_discrimination_2024_2cat,2024.2.4,MacIntel,135.1351351,,,,,,,,2,"[0.5,0.5]","[0.707,0.707]",s,"[0.6575190351175608,0.5652919810065214]","[0.3424809648824391,0.43470801899347855]",406.2505,408.571,1,s,1,0.8071,,0.210986188,0.397780696,0.186794509,408.573,408.573,0,141,141,141,1,0.170475146,0.170475146,shape_difference1,1,,TRUE,,intensity,0.1,0.05,0.7,0.3,0.82,20,400,1E-11,3.5,0.01,0.5,0.1,,,,,,,,,,,,,,,,,,,,,,,,,,,,,,,,,,,,,,,,,,,,,,,,,,,,,,,,,,,,,,,,,,,,,,,,,,,,,,,,,
,,,,,856852,001,2025-03-14_11h38.16.574,Utility_discrimination_2024_2cat,2024.2.4,MacIntel,135.1351351,,,,,,,,0,"[0.5,0.5]","[1,0]",s,"[0.7329496671475213,0.7329496671475213]","[0.2670503328524787,0.2670503328524787]",408.5737,410.6793,1,d,1,0.5995,,0.40334546,0.594810911,0.191465452,410.683,410.6832,0,142,142,142,1,0.329490335,0.329490335,shape_difference2,1,,TRUE,,intensity,0.1,0.05,0.7,0.3,0.82,20,400,1E-11,3.5,0.01,0.5,0.1,,,,,,,,,,,,,,,,,,,,,,,,,,,,,,,,,,,,,,,,,,,,,,,,,,,,,,,,,,,,,,,,,,,,,,,,,,,,,,,,,
,,,,,856852,001,2025-03-14_11h38.16.574,Utility_discrimination_2024_2cat,2024.2.4,MacIntel,135.1351351,,,,,,,,3,"[0.5,0.5]","[0.383,0.924]",d,"[0.9820136629465694,0.5]","[0.017986337053430557,0.5]",410.6844,413.1285,1,s,1,0.9357,,0.011320948,0.265149294,0.253828346,413.1301,413.1301,0,143,143,143,1,0.482013663,0.482013663,shape_difference0,1,,TRUE,,intensity,0.1,0.05,0.7,0.3,0.82,20,400,1E-11,3.5,0.01,0.5,0.1,,,,,,,,,,,,,,,,,,,,,,,,,,,,,,,,,,,,,,,,,,,,,,,,,,,,,,,,,,,,,,,,,,,,,,,,,,,,,,,,,
,,,,,856852,001,2025-03-14_11h38.16.574,Utility_discrimination_2024_2cat,2024.2.4,MacIntel,135.1351351,,,,,,,,1,"[0.5,0.5]","[0.924,0.383]",s,"[0.551452593127325,0.6241310601818493]","[0.448547406872675,0.3758689398181507]",413.1309,415.2621,1,d,1,0.6197,,0.053026974,0.276911104,0.22388413,415.2635,415.2635,0,144,144,144,1,0.134340974,0.134340974,shape_difference3,1,,TRUE,,intensity,0.1,0.05,0.7,0.3,0.82,20,400,1E-11,3.5,0.01,0.5,0.1,,,,,,,,,,,,,,,,,,,,,,,,,,,,,,,,,,,,,,,,,,,,,,,,,,,,,,,,,,,,,,,,,,,,,,,,,,,,,,,,,
,,,,,856852,001,2025-03-14_11h38.16.574,Utility_discrimination_2024_2cat,2024.2.4,MacIntel,135.1351351,,,,,,,,4,"[0.5,0.5]","[0,1]",d,"[0.654221788080567,0.563925264972789]","[0.3457782119194331,0.4360747350272109]",415.2641,418.4375,1,s,1,1.6579,,0.303869728,0.493888254,0.190018526,418.4391,418.4391,0,145,145,145,1,0.166906697,0.166906697,shape_difference1,1,,TRUE,,intensity,0.1,0.05,0.7,0.3,0.82,20,400,1E-11,3.5,0.01,0.5,0.1,,,,,,,,,,,,,,,,,,,,,,,,,,,,,,,,,,,,,,,,,,,,,,,,,,,,,,,,,,,,,,,,,,,,,,,,,,,,,,,,,
,,,,,856852,001,2025-03-14_11h38.16.574,Utility_discrimination_2024_2cat,2024.2.4,MacIntel,135.1351351,,,,,,,,3,"[0.5,0.5]","[0.383,0.924]",s,"[0.5,0.8823466534823624]","[0.5,0.11765334651763759]",418.4396,420.5801,1,s,1,0.6281,,0.010006067,0.248129026,0.238122958,420.5814,420.5814,0,146,146,146,1,0.382346653,0.382346653,shape_difference4,1,,TRUE,,intensity,0.1,0.05,0.7,0.3,0.82,20,400,1E-11,3.5,0.01,0.5,0.1,,,,,,,,,,,,,,,,,,,,,,,,,,,,,,,,,,,,,,,,,,,,,,,,,,,,,,,,,,,,,,,,,,,,,,,,,,,,,,,,,
,,,,,856852,001,2025-03-14_11h38.16.574,Utility_discrimination_2024_2cat,2024.2.4,MacIntel,135.1351351,,,,,,,,0,"[0.5,0.5]","[1,0]",s,"[0.5478175853816459,0.6153614853593756]","[0.45218241461835407,0.38463851464062443]",420.5818,423.3455,1,s,1,1.2504,,0.402389002,0.589793725,0.187404724,423.3475,423.3475,0,147,147,147,1,0.124850092,0.124850092,shape_difference3,1,,TRUE,,intensity,0.1,0.05,0.7,0.3,0.82,20,400,1E-11,3.5,0.01,0.5,0.1,,,,,,,,,,,,,,,,,,,,,,,,,,,,,,,,,,,,,,,,,,,,,,,,,,,,,,,,,,,,,,,,,,,,,,,,,,,,,,,,,
,,,,,856852,001,2025-03-14_11h38.16.574,Utility_discrimination_2024_2cat,2024.2.4,MacIntel,135.1351351,,,,,,,,2,"[0.5,0.5]","[0.707,0.707]",s,"[0.9772812033893914,0.5]","[0.022718796610608605,0.5]",423.3485,427.3709,1,d,1,2.5048,,0.209759698,0.396005485,0.186245787,427.3732,427.3732,0,148,148,148,1,0.477281203,0.477281203,shape_difference0,1,,TRUE,,intensity,0.1,0.05,0.7,0.3,0.82,20,400,1E-11,3.5,0.01,0.5,0.1,,,,,,,,,,,,,,,,,,,,,,,,,,,,,,,,,,,,,,,,,,,,,,,,,,,,,,,,,,,,,,,,,,,,,,,,,,,,,,,,,
,,,,,856852,001,2025-03-14_11h38.16.574,Utility_discrimination_2024_2cat,2024.2.4,MacIntel,135.1351351,,,,,,,,1,"[0.5,0.5]","[0.924,0.383]",d,"[0.7277529863672862,0.7277529863672862]","[0.27224701363271375,0.27224701363271375]",427.3742,430.6458,1,d,1,1.756,,0.045265061,0.26934457,0.224079509,430.6471,430.6471,0,149,149,149,1,0.322140009,0.322140009,shape_difference2,1,,TRUE,,intensity,0.1,0.05,0.7,0.3,0.82,20,400,1E-11,3.5,0.01,0.5,0.1,,,,,,,,,,,,,,,,,,,,,,,,,,,,,,,,,,,,,,,,,,,,,,,,,,,,,,,,,,,,,,,,,,,,,,,,,,,,,,,,,
,,,,,856852,001,2025-03-14_11h38.16.574,Utility_discrimination_2024_2cat,2024.2.4,MacIntel,135.1351351,,,,,,,,0,"[0.5,0.5]","[1,0]",d,"[0.6513238798201555,0.5627240757263199]","[0.34867612017984445,0.4372759242736801]",430.6476,433.3782,1,d,1,1.2176,,0.401416687,0.584471814,0.183055128,433.3805,433.3805,0,150,150,150,1,0.163770433,0.163770433,shape_difference1,1,,TRUE,,intensity,0.1,0.05,0.7,0.3,0.82,20,400,1E-11,3.5,0.01,0.5,0.1,,,,,,,,,,,,,,,,,,,,,,,,,,,,,,,,,,,,,,,,,,,,,,,,,,,,,,,,,,,,,,,,,,,,,,,,,,,,,,,,,
,,,,,856852,001,2025-03-14_11h38.16.574,Utility_discrimination_2024_2cat,2024.2.4,MacIntel,135.1351351,,,,,,,,2,"[0.5,0.5]","[0.707,0.707]",d,"[0.973369900757075,0.5]","[0.02663009924292503,0.5]",433.3812,440.4616,1,d,1,5.5627,,0.208723218,0.394197929,0.185474711,440.4629,440.4629,0,151,151,151,1,0.473369901,0.473369901,shape_difference0,1,,TRUE,,intensity,0.1,0.05,0.7,0.3,0.82,20,400,1E-11,3.5,0.01,0.5,0.1,,,,,,,,,,,,,,,,,,,,,,,,,,,,,,,,,,,,,,,,,,,,,,,,,,,,,,,,,,,,,,,,,,,,,,,,,,,,,,,,,
,,,,,856852,001,2025-03-14_11h38.16.574,Utility_discrimination_2024_2cat,2024.2.4,MacIntel,135.1351351,,,,,,,,3,"[0.5,0.5]","[0.383,0.924]",d,"[0.7216534182939509,0.7216534182939509]","[0.2783465817060491,0.2783465817060491]",440.4634,442.9543,1,s,1,0.9763,,0.008937714,0.226787299,0.217849585,442.9563,442.9563,0,152,152,152,1,0.313512614,0.313512614,shape_difference2,1,,TRUE,,intensity,0.1,0.05,0.7,0.3,0.82,20,400,1E-11,3.5,0.01,0.5,0.1,,,,,,,,,,,,,,,,,,,,,,,,,,,,,,,,,,,,,,,,,,,,,,,,,,,,,,,,,,,,,,,,,,,,,,,,,,,,,,,,,
,,,,,856852,001,2025-03-14_11h38.16.574,Utility_discrimination_2024_2cat,2024.2.4,MacIntel,135.1351351,,,,,,,,4,"[0.5,0.5]","[0,1]",s,"[0.5437262633218372,0.605491037361299]","[0.4562737366781629,0.39450896263870106]",442.957,445.6792,0,s,0,1.2094,,0.302993487,0.489132531,0.186139044,445.681,445.6811,0,153,153,153,1,0.114167789,0.114167789,shape_difference3,1,,TRUE,,intensity,0.1,0.05,0.7,0.3,0.82,20,400,1E-11,3.5,0.01,0.5,0.1,,,,,,,,,,,,,,,,,,,,,,,,,,,,,,,,,,,,,,,,,,,,,,,,,,,,,,,,,,,,,,,,,,,,,,,,,,,,,,,,,
,,,,,856852,001,2025-03-14_11h38.16.574,Utility_discrimination_2024_2cat,2024.2.4,MacIntel,135.1351351,,,,,,,,0,"[0.5,0.5]","[1,0]",d,"[0.5,0.8776597435515356]","[0.5,0.12234025644846436]",445.6815,447.8208,1,d,1,0.6245,,0.400399859,0.578654292,0.178254433,447.8229,447.8229,0,154,154,154,1,0.377659744,0.377659744,shape_difference4,1,,TRUE,,intensity,0.1,0.05,0.7,0.3,0.82,20,400,1E-11,3.5,0.01,0.5,0.1,,,,,,,,,,,,,,,,,,,,,,,,,,,,,,,,,,,,,,,,,,,,,,,,,,,,,,,,,,,,,,,,,,,,,,,,,,,,,,,,,
,,,,,856852,001,2025-03-14_11h38.16.574,Utility_discrimination_2024_2cat,2024.2.4,MacIntel,135.1351351,,,,,,,,4,"[0.5,0.5]","[0,1]",d,"[0.9700969196268858,0.5]","[0.029903080373114177,0.5]",447.8238,450.1373,1,d,1,0.8005,,0.30211267,0.48406222,0.18194955,450.1383,450.1383,0,155,155,155,1,0.47009692,0.47009692,shape_difference0,1,,TRUE,,intensity,0.1,0.05,0.7,0.3,0.82,20,400,1E-11,3.5,0.01,0.5,0.1,,,,,,,,,,,,,,,,,,,,,,,,,,,,,,,,,,,,,,,,,,,,,,,,,,,,,,,,,,,,,,,,,,,,,,,,,,,,,,,,,
,,,,,856852,001,2025-03-14_11h38.16.574,Utility_discrimination_2024_2cat,2024.2.4,MacIntel,135.1351351,,,,,,,,2,"[0.5,0.5]","[0.707,0.707]",d,"[0.5,0.8737883922392143]","[0.5,0.12621160776078566]",450.1388,452.7051,1,s,1,1.0547,,0.207836764,0.392305191,0.184468427,452.7079,452.708,0,156,156,156,1,0.373788392,0.373788392,shape_difference4,1,,TRUE,,intensity,0.1,0.05,0.7,0.3,0.82,20,400,1E-11,3.5,0.01,0.5,0.1,,,,,,,,,,,,,,,,,,,,,,,,,,,,,,,,,,,,,,,,,,,,,,,,,,,,,,,,,,,,,,,,,,,,,,,,,,,,,,,,,
,,,,,856852,001,2025-03-14_11h38.16.574,Utility_discrimination_2024_2cat,2024.2.4,MacIntel,135.1351351,,,,,,,,1,"[0.5,0.5]","[0.924,0.383]",s,"[0.7144472825104147,0.7144472825104147]","[0.28555271748958533,0.28555271748958533]",452.7101,454.8784,1,d,1,0.6613,,0.038933684,0.260552405,0.221618721,454.8794,454.8794,0,157,157,157,1,0.30332006,0.30332006,shape_difference2,1,,TRUE,,intensity,0.1,0.05,0.7,0.3,0.82,20,400,1E-11,3.5,0.01,0.5,0.1,,,,,,,,,,,,,,,,,,,,,,,,,,,,,,,,,,,,,,,,,,,,,,,,,,,,,,,,,,,,,,,,,,,,,,,,,,,,,,,,,
,,,,,856852,001,2025-03-14_11h38.16.574,Utility_discrimination_2024_2cat,2024.2.4,MacIntel,135.1351351,,,,,,,,3,"[0.5,0.5]","[0.383,0.924]",d,"[0.6487100789582545,0.5616406496114843]","[0.3512899210417455,0.4383593503885157]",454.8803,457.1464,1,d,1,0.7528,,0.012969385,0.266595464,0.253626079,457.1482,457.1482,0,158,158,158,1,0.160941644,0.160941644,shape_difference1,1,,TRUE,,intensity,0.1,0.05,0.7,0.3,0.82,20,400,1E-11,3.5,0.01,0.5,0.1,,,,,,,,,,,,,,,,,,,,,,,,,,,,,,,,,,,,,,,,,,,,,,,,,,,,,,,,,,,,,,,,,,,,,,,,,,,,,,,,,
,,,,,856852,001,2025-03-14_11h38.16.574,Utility_discrimination_2024_2cat,2024.2.4,MacIntel,135.1351351,,,,,,,,3,"[0.5,0.5]","[0.383,0.924]",d,"[0.5538974805726642,0.630029430937707]","[0.44610251942733575,0.36997056906229303]",457.15,459.8125,1,d,1,1.1513,,0.011425268,0.251240448,0.23981518,459.8147,459.8147,0,159,159,159,1,0.140724492,0.140724492,shape_difference3,1,,TRUE,,intensity,0.1,0.05,0.7,0.3,0.82,20,400,1E-11,3.5,0.01,0.5,0.1,,,,,,,,,,,,,,,,,,,,,,,,,,,,,,,,,,,,,,,,,,,,,,,,,,,,,,,,,,,,,,,,,,,,,,,,,,,,,,,,,
,,,,,856852,001,2025-03-14_11h38.16.574,Utility_discrimination_2024_2cat,2024.2.4,MacIntel,135.1351351,,,,,,,,4,"[0.5,0.5]","[0,1]",d,"[0.5508417688550147,0.6226574266893826]","[0.4491582311449853,0.3773425733106174]",459.8153,462.5115,1,d,1,1.1847,,0.301200883,0.478497955,0.177297072,462.5134,462.5134,0,160,160,160,1,0.132746133,0.132746133,shape_difference3,1,,TRUE,,intensity,0.1,0.05,0.7,0.3,0.82,20,400,1E-11,3.5,0.01,0.5,0.1,,,,,,,,,,,,,,,,,,,,,,,,,,,,,,,,,,,,,,,,,,,,,,,,,,,,,,,,,,,,,,,,,,,,,,,,,,,,,,,,,
,,,,,856852,001,2025-03-14_11h38.16.574,Utility_discrimination_2024_2cat,2024.2.4,MacIntel,135.1351351,,,,,,,,1,"[0.5,0.5]","[0.924,0.383]",d,"[0.5,0.8705551313113474]","[0.5,0.12944486868865257]",462.5142,464.9951,1,s,1,0.967,,0.033723748,0.25012636,0.216402613,464.9962,464.9962,0,161,161,161,1,0.370555131,0.370555131,shape_difference4,1,,TRUE,,intensity,0.1,0.05,0.7,0.3,0.82,20,400,1E-11,3.5,0.01,0.5,0.1,,,,,,,,,,,,,,,,,,,,,,,,,,,,,,,,,,,,,,,,,,,,,,,,,,,,,,,,,,,,,,,,,,,,,,,,,,,,,,,,,
,,,,,856852,001,2025-03-14_11h38.16.574,Utility_discrimination_2024_2cat,2024.2.4,MacIntel,135.1351351,,,,,,,,2,"[0.5,0.5]","[0.707,0.707]",s,"[0.6462846033591003,0.5606352847256877]","[0.3537153966408997,0.4393647152743123]",464.9973,467.2791,1,s,1,0.7681,,0.207067492,0.390270329,0.183202837,467.2804,467.2804,0,162,162,162,1,0.15831667,0.15831667,shape_difference1,1,,TRUE,,intensity,0.1,0.05,0.7,0.3,0.82,20,400,1E-11,3.5,0.01,0.5,0.1,,,,,,,,,,,,,,,,,,,,,,,,,,,,,,,,,,,,,,,,,,,,,,,,,,,,,,,,,,,,,,,,,,,,,,,,,,,,,,,,,
,,,,,856852,001,2025-03-14_11h38.16.574,Utility_discrimination_2024_2cat,2024.2.4,MacIntel,135.1351351,,,,,,,,0,"[0.5,0.5]","[1,0]",s,"[0.7084302303517631,0.7084302303517631]","[0.2915697696482369,0.2915697696482369]",467.2809,469.7291,1,s,1,0.9325,,0.390141475,0.572125979,0.181984504,469.7309,469.7309,0,163,163,163,1,0.294809378,0.294809378,shape_difference2,1,,TRUE,,intensity,0.1,0.05,0.7,0.3,0.82,20,400,1E-11,3.5,0.01,0.5,0.1,,,,,,,,,,,,,,,,,,,,,,,,,,,,,,,,,,,,,,,,,,,,,,,,,,,,,,,,,,,,,,,,,,,,,,,,,,,,,,,,,
,,,,,856852,001,2025-03-14_11h38.16.574,Utility_discrimination_2024_2cat,2024.2.4,MacIntel,135.1351351,,,,,,,,2,"[0.5,0.5]","[0.707,0.707]",s,"[0.9673182072157459,0.5]","[0.03268179278425409,0.5]",469.7314,471.9119,1,s,1,0.671,,0.206388068,0.388030363,0.181642295,471.9134,471.9135,0,164,164,164,1,0.467318207,0.467318207,shape_difference0,1,,TRUE,,intensity,0.1,0.05,0.7,0.3,0.82,20,400,1E-11,3.5,0.01,0.5,0.1,,,,,,,,,,,,,,,,,,,,,,,,,,,,,,,,,,,,,,,,,,,,,,,,,,,,,,,,,,,,,,,,,,,,,,,,,,,,,,,,,
,,,,,856852,001,2025-03-14_11h38.16.574,Utility_discrimination_2024_2cat,2024.2.4,MacIntel,135.1351351,,,,,,,,4,"[0.5,0.5]","[0,1]",s,"[0.7040132830125863,0.7040132830125863]","[0.2959867169874138,0.2959867169874138]",471.914,474.0041,1,d,1,0.5788,,0.30023315,0.472237238,0.172004088,474.0056,474.0056,0,165,165,165,1,0.288561928,0.288561928,shape_difference2,1,,TRUE,,intensity,0.1,0.05,0.7,0.3,0.82,20,400,1E-11,3.5,0.01,0.5,0.1,,,,,,,,,,,,,,,,,,,,,,,,,,,,,,,,,,,,,,,,,,,,,,,,,,,,,,,,,,,,,,,,,,,,,,,,,,,,,,,,,
,,,,,856852,001,2025-03-14_11h38.16.574,Utility_discrimination_2024_2cat,2024.2.4,MacIntel,135.1351351,,,,,,,,3,"[0.5,0.5]","[0.383,0.924]",d,"[0.5,0.8678197900103385]","[0.5,0.1321802099896615]",474.0064,476.881,1,s,1,1.3622,,0.010183392,0.232150167,0.221966775,476.883,476.883,0,166,166,166,1,0.36781979,0.36781979,shape_difference4,1,,TRUE,,intensity,0.1,0.05,0.7,0.3,0.82,20,400,1E-11,3.5,0.01,0.5,0.1,,,,,,,,,,,,,,,,,,,,,,,,,,,,,,,,,,,,,,,,,,,,,,,,,,,,,,,,,,,,,,,,,,,,,,,,,,,,,,,,,
,,,,,856852,001,2025-03-14_11h38.16.574,Utility_discrimination_2024_2cat,2024.2.4,MacIntel,135.1351351,,,,,,,,0,"[0.5,0.5]","[1,0]",s,"[0.5474321121321808,0.6144315185643214]","[0.45256788786781915,0.3855684814356786]",476.8846,479.5121,1,d,1,1.1143,,0.376723833,0.564636943,0.18791311,479.5139,479.5139,0,167,167,167,1,0.123843635,0.123843635,shape_difference3,1,,TRUE,,intensity,0.1,0.05,0.7,0.3,0.82,20,400,1E-11,3.5,0.01,0.5,0.1,,,,,,,,,,,,,,,,,,,,,,,,,,,,,,,,,,,,,,,,,,,,,,,,,,,,,,,,,,,,,,,,,,,,,,,,,,,,,,,,,
,,,,,856852,001,2025-03-14_11h38.16.574,Utility_discrimination_2024_2cat,2024.2.4,MacIntel,135.1351351,,,,,,,,1,"[0.5,0.5]","[0.924,0.383]",d,"[0.9649186166918284,0.5]","[0.035081383308171565,0.5]",479.5144,481.8974,1,d,1,0.8708,,0.02940354,0.237557152,0.208153613,481.8995,481.8995,0,168,168,168,1,0.464918617,0.464918617,shape_difference0,1,,TRUE,,intensity,0.1,0.05,0.7,0.3,0.82,20,400,1E-11,3.5,0.01,0.5,0.1,,,,,,,,,,,,,,,,,,,,,,,,,,,,,,,,,,,,,,,,,,,,,,,,,,,,,,,,,,,,,,,,,,,,,,,,,,,,,,,,,
,,,,,856852,001,2025-03-14_11h38.16.574,Utility_discrimination_2024_2cat,2024.2.4,MacIntel,135.1351351,,,,,,,,3,"[0.5,0.5]","[0.383,0.924]",d,"[0.6439655484034376,0.559674031426966]","[0.35603445159656244,0.440325968573034]",481.9004,484.1948,1,s,1,0.7841,,0.009176603,0.20793213,0.198755527,484.1961,484.1961,0,169,169,169,1,0.155806871,0.155806871,shape_difference1,1,,TRUE,,intensity,0.1,0.05,0.7,0.3,0.82,20,400,1E-11,3.5,0.01,0.5,0.1,,,,,,,,,,,,,,,,,,,,,,,,,,,,,,,,,,,,,,,,,,,,,,,,,,,,,,,,,,,,,,,,,,,,,,,,,,,,,,,,,
,,,,,856852,001,2025-03-14_11h38.16.574,Utility_discrimination_2024_2cat,2024.2.4,MacIntel,135.1351351,,,,,,,,1,"[0.5,0.5]","[0.924,0.383]",s,"[0.5435558747880312,0.6050799694625089]","[0.4564441252119687,0.3949200305374911]",484.1974,486.804,0,s,0,1.0918,,0.025797059,0.222199432,0.196402373,486.8065,486.8065,0,170,170,170,1,0.113722911,0.113722911,shape_difference3,1,,TRUE,,intensity,0.1,0.05,0.7,0.3,0.82,20,400,1E-11,3.5,0.01,0.5,0.1,,,,,,,,,,,,,,,,,,,,,,,,,,,,,,,,,,,,,,,,,,,,,,,,,,,,,,,,,,,,,,,,,,,,,,,,,,,,,,,,,
,,,,,856852,001,2025-03-14_11h38.16.574,Utility_discrimination_2024_2cat,2024.2.4,MacIntel,135.1351351,,,,,,,,4,"[0.5,0.5]","[0,1]",d,"[0.6416806186472366,0.5587269230972853]","[0.3583193813527634,0.4412730769027147]",486.8074,489.0947,1,d,1,0.7753,,0.288278852,0.465044898,0.176766046,489.0967,489.0967,0,171,171,171,1,0.153334003,0.153334003,shape_difference1,1,,TRUE,,intensity,0.1,0.05,0.7,0.3,0.82,20,400,1E-11,3.5,0.01,0.5,0.1,,,,,,,,,,,,,,,,,,,,,,,,,,,,,,,,,,,,,,,,,,,,,,,,,,,,,,,,,,,,,,,,,,,,,,,,,,,,,,,,,
,,,,,856852,001,2025-03-14_11h38.16.574,Utility_discrimination_2024_2cat,2024.2.4,MacIntel,135.1351351,,,,,,,,2,"[0.5,0.5]","[0.707,0.707]",d,"[0.5,0.8654701730539784]","[0.5,0.13452982694602156]",489.0974,491.179,1,d,1,0.568,,0.205775398,0.385514091,0.179738693,491.181,491.181,0,172,172,172,1,0.365470173,0.365470173,shape_difference4,1,,TRUE,,intensity,0.1,0.05,0.7,0.3,0.82,20,400,1E-11,3.5,0.01,0.5,0.1,,,,,,,,,,,,,,,,,,,,,,,,,,,,,,,,,,,,,,,,,,,,,,,,,,,,,,,,,,,,,,,,,,,,,,,,,,,,,,,,,
,,,,,856852,001,2025-03-14_11h38.16.574,Utility_discrimination_2024_2cat,2024.2.4,MacIntel,135.1351351,,,,,,,,0,"[0.5,0.5]","[1,0]",d,"[0.7003461693688915,0.7003461693688915]","[0.29965383063110856,0.29965383063110856]",491.1818,493.1698,1,d,1,0.4751,,0.365692648,0.555889782,0.190197134,493.1724,493.1725,0,173,173,173,1,0.283375063,0.283375063,shape_difference2,1,,TRUE,,intensity,0.1,0.05,0.7,0.3,0.82,20,400,1E-11,3.5,0.01,0.5,0.1,,,,,,,,,,,,,,,,,,,,,,,,,,,,,,,,,,,,,,,,,,,,,,,,,,,,,,,,,,,,,,,,,,,,,,,,,,,,,,,,,
,,,,,856852,001,2025-03-14_11h38.16.574,Utility_discrimination_2024_2cat,2024.2.4,MacIntel,135.1351351,,,,,,,,4,"[0.5,0.5]","[0,1]",d,"[0.9628045995166573,0.5]","[0.03719540048334269,0.5]",493.1734,495.4114,1,s,1,0.7266,,0.2754619,0.456641548,0.181179648,495.4141,495.4141,0,174,174,174,1,0.4628046,0.4628046,shape_difference0,1,,TRUE,,intensity,0.1,0.05,0.7,0.3,0.82,20,400,1E-11,3.5,0.01,0.5,0.1,,,,,,,,,,,,,,,,,,,,,,,,,,,,,,,,,,,,,,,,,,,,,,,,,,,,,,,,,,,,,,,,,,,,,,,,,,,,,,,,,
,,,,,856852,001,2025-03-14_11h38.16.574,Utility_discrimination_2024_2cat,2024.2.4,MacIntel,135.1351351,,,,,,,,2,"[0.5,0.5]","[0.707,0.707]",s,"[0.5,0.8634151363886133]","[0.5,0.13658486361138666]",495.415,497.7955,1,s,1,0.8657,,0.205209613,0.382639546,0.177429933,497.7974,497.7975,0,175,175,175,1,0.363415136,0.363415136,shape_difference4,1,,TRUE,,intensity,0.1,0.05,0.7,0.3,0.82,20,400,1E-11,3.5,0.01,0.5,0.1,,,,,,,,,,,,,,,,,,,,,,,,,,,,,,,,,,,,,,,,,,,,,,,,,,,,,,,,,,,,,,,,,,,,,,,,,,,,,,,,,
,,,,,856852,001,2025-03-14_11h38.16.574,Utility_discrimination_2024_2cat,2024.2.4,MacIntel,135.1351351,,,,,,,,0,"[0.5,0.5]","[1,0]",s,"[0.6972930877228731,0.6972930877228731]","[0.3027069122771268,0.3027069122771268]",497.7981,500.0293,1,d,1,0.7159,,0.35655414,0.545523759,0.188969619,500.0333,500.0333,0,176,176,176,1,0.279056701,0.279056701,shape_difference2,1,,TRUE,,intensity,0.1,0.05,0.7,0.3,0.82,20,400,1E-11,3.5,0.01,0.5,0.1,,,,,,,,,,,,,,,,,,,,,,,,,,,,,,,,,,,,,,,,,,,,,,,,,,,,,,,,,,,,,,,,,,,,,,,,,,,,,,,,,
,,,,,856852,001,2025-03-14_11h38.16.574,Utility_discrimination_2024_2cat,2024.2.4,MacIntel,135.1351351,,,,,,,,1,"[0.5,0.5]","[0.924,0.383]",d,"[0.9608987275796352,0.5]","[0.03910127242036476,0.5]",500.0342,502.3789,1,s,1,0.8325,,0.022768904,0.203225385,0.180456481,502.3805,502.3805,0,177,177,177,1,0.460898728,0.460898728,shape_difference0,1,,TRUE,,intensity,0.1,0.05,0.7,0.3,0.82,20,400,1E-11,3.5,0.01,0.5,0.1,,,,,,,,,,,,,,,,,,,,,,,,,,,,,,,,,,,,,,,,,,,,,,,,,,,,,,,,,,,,,,,,,,,,,,,,,,,,,,,,,
,,,,,856852,001,2025-03-14_11h38.16.574,Utility_discrimination_2024_2cat,2024.2.4,MacIntel,135.1351351,,,,,,,,3,"[0.5,0.5]","[0.383,0.924]",s,"[0.6393637727615041,0.5577665854628312]","[0.36063622723849587,0.44223341453716875]",502.3812,504.6372,1,s,1,0.7452,,0.012950115,0.25347741,0.240527295,504.6382,504.6382,0,178,178,178,1,0.150826594,0.150826594,shape_difference1,1,,TRUE,,intensity,0.1,0.05,0.7,0.3,0.82,20,400,1E-11,3.5,0.01,0.5,0.1,,,,,,,,,,,,,,,,,,,,,,,,,,,,,,,,,,,,,,,,,,,,,,,,,,,,,,,,,,,,,,,,,,,,,,,,,,,,,,,,,
,,,,,856852,001,2025-03-14_11h38.16.574,Utility_discrimination_2024_2cat,2024.2.4,MacIntel,135.1351351,,,,,,,,3,"[0.5,0.5]","[0.383,0.924]",s,"[0.5532627123530688,0.6284980318909545]","[0.4467372876469312,0.3715019681090455]",504.6386,507.1789,0,s,0,1.0342,,0.019755388,0.278619808,0.25886442,507.1814,507.1815,0,179,179,179,1,0.139067134,0.139067134,shape_difference3,1,,TRUE,,intensity,0.1,0.05,0.7,0.3,0.82,20,400,1E-11,3.5,0.01,0.5,0.1,,,,,,,,,,,,,,,,,,,,,,,,,,,,,,,,,,,,,,,,,,,,,,,,,,,,,,,,,,,,,,,,,,,,,,,,,,,,,,,,,
,,,,,856852,001,2025-03-14_11h38.16.574,Utility_discrimination_2024_2cat,2024.2.4,MacIntel,135.1351351,,,,,,,,4,"[0.5,0.5]","[0,1]",d,"[0.5594705072132427,0.6434745395953948]","[0.44052949278675735,0.3565254604046052]",507.182,509.3789,0,s,0,0.6879,,0.264844888,0.446689233,0.181844346,509.3806,509.3806,0,180,180,180,1,0.155275476,0.155275476,shape_difference3,1,,TRUE,,intensity,0.1,0.05,0.7,0.3,0.82,20,400,1E-11,3.5,0.01,0.5,0.1,,,,,,,,,,,,,,,,,,,,,,,,,,,,,,,,,,,,,,,,,,,,,,,,,,,,,,,,,,,,,,,,,,,,,,,,,,,,,,,,,
,,,,,856852,001,2025-03-14_11h38.16.574,Utility_discrimination_2024_2cat,2024.2.4,MacIntel,135.1351351,,,,,,,,1,"[0.5,0.5]","[0.924,0.383]",d,"[0.5,0.861579378338547]","[0.5,0.13842062166145297]",509.3822,511.4373,1,d,1,0.5421,,0.020213627,0.198841201,0.178627575,511.4387,511.4387,0,181,181,181,1,0.361579378,0.361579378,shape_difference4,1,,TRUE,,intensity,0.1,0.05,0.7,0.3,0.82,20,400,1E-11,3.5,0.01,0.5,0.1,,,,,,,,,,,,,,,,,,,,,,,,,,,,,,,,,,,,,,,,,,,,,,,,,,,,,,,,,,,,,,,,,,,,,,,,,,,,,,,,,
,,,,,856852,001,2025-03-14_11h38.16.574,Utility_discrimination_2024_2cat,2024.2.4,MacIntel,135.1351351,,,,,,,,0,"[0.5,0.5]","[1,0]",d,"[0.6369525036246575,0.556767109186411]","[0.3630474963753425,0.4432328908135889]",511.4394,513.4949,1,d,1,0.5439,,0.348932915,0.533094607,0.184161693,513.4966,513.4967,0,182,182,182,1,0.148216995,0.148216995,shape_difference1,1,,TRUE,,intensity,0.1,0.05,0.7,0.3,0.82,20,400,1E-11,3.5,0.01,0.5,0.1,,,,,,,,,,,,,,,,,,,,,,,,,,,,,,,,,,,,,,,,,,,,,,,,,,,,,,,,,,,,,,,,,,,,,,,,,,,,,,,,,
,,,,,856852,001,2025-03-14_11h38.16.574,Utility_discrimination_2024_2cat,2024.2.4,MacIntel,135.1351351,,,,,,,,2,"[0.5,0.5]","[0.707,0.707]",d,"[0.9591355250327454,0.5]","[0.04086447496725465,0.5]",513.4976,515.8288,1,s,1,0.8133,,0.20467325,0.379310986,0.174637736,515.8307,515.8307,0,183,183,183,1,0.459135525,0.459135525,shape_difference0,1,,TRUE,,intensity,0.1,0.05,0.7,0.3,0.82,20,400,1E-11,3.5,0.01,0.5,0.1,,,,,,,,,,,,,,,,,,,,,,,,,,,,,,,,,,,,,,,,,,,,,,,,,,,,,,,,,,,,,,,,,,,,,,,,,,,,,,,,,
,,,,,856852,001,2025-03-14_11h38.16.574,Utility_discrimination_2024_2cat,2024.2.4,MacIntel,135.1351351,,,,,,,,3,"[0.5,0.5]","[0.383,0.924]",s,"[0.6947429547151744,0.6947429547151744]","[0.30525704528482556,0.30525704528482556]",515.8325,518.2971,1,s,1,0.9541,,0.0633257,0.336098202,0.272772502,518.2995,518.2995,0,184,184,184,1,0.275449724,0.275449724,shape_difference2,1,,TRUE,,intensity,0.1,0.05,0.7,0.3,0.82,20,400,1E-11,3.5,0.01,0.5,0.1,,,,,,,,,,,,,,,,,,,,,,,,,,,,,,,,,,,,,,,,,,,,,,,,,,,,,,,,,,,,,,,,,,,,,,,,,,,,,,,,,
,,,,,856852,001,2025-03-14_11h38.16.574,Utility_discrimination_2024_2cat,2024.2.4,MacIntel,135.1351351,,,,,,,,2,"[0.5,0.5]","[0.707,0.707]",s,"[0.5685486767830211,0.6653759199673931]","[0.4314513232169788,0.3346240800326069]",518.3001,520.4373,1,d,1,0.6236,,0.204150584,0.375415279,0.171264694,520.4391,520.4391,0,185,185,185,1,0.178978268,0.178978268,shape_difference3,1,,TRUE,,intensity,0.1,0.05,0.7,0.3,0.82,20,400,1E-11,3.5,0.01,0.5,0.1,,,,,,,,,,,,,,,,,,,,,,,,,,,,,,,,,,,,,,,,,,,,,,,,,,,,,,,,,,,,,,,,,,,,,,,,,,,,,,,,,
,,,,,856852,001,2025-03-14_11h38.16.574,Utility_discrimination_2024_2cat,2024.2.4,MacIntel,135.1351351,,,,,,,,0,"[0.5,0.5]","[1,0]",d,"[0.692604523158431,0.692604523158431]","[0.307395476841569,0.307395476841569]",520.4408,523.2621,1,s,1,1.3048,,0.342540102,0.518048455,0.175508352,523.2633,523.2633,0,186,186,186,1,0.272425068,0.272425068,shape_difference2,1,,TRUE,,intensity,0.1,0.05,0.7,0.3,0.82,20,400,1E-11,3.5,0.01,0.5,0.1,,,,,,,,,,,,,,,,,,,,,,,,,,,,,,,,,,,,,,,,,,,,,,,,,,,,,,,,,,,,,,,,,,,,,,,,,,,,,,,,,
,,,,,856852,001,2025-03-14_11h38.16.574,Utility_discrimination_2024_2cat,2024.2.4,MacIntel,135.1351351,,,,,,,,4,"[0.5,0.5]","[0,1]",s,"[0.9574582408027865,0.5]","[0.04254175919721348,0.5]",523.2638,525.3705,1,d,1,0.5911,,0.255991848,0.43477324,0.178781392,525.3724,525.3725,0,187,187,187,1,0.457458241,0.457458241,shape_difference0,1,,TRUE,,intensity,0.1,0.05,0.7,0.3,0.82,20,400,1E-11,3.5,0.01,0.5,0.1,,,,,,,,,,,,,,,,,,,,,,,,,,,,,,,,,,,,,,,,,,,,,,,,,,,,,,,,,,,,,,,,,,,,,,,,,,,,,,,,,
,,,,,856852,001,2025-03-14_11h38.16.574,Utility_discrimination_2024_2cat,2024.2.4,MacIntel,135.1351351,,,,,,,,1,"[0.5,0.5]","[0.924,0.383]",d,"[0.5,0.859899464675118]","[0.5,0.14010053532488198]",525.3733,528.0046,1,d,1,1.1152,,0.017571588,0.19773687,0.180165282,528.0082,528.0082,0,188,188,188,1,0.359899465,0.359899465,shape_difference4,1,,TRUE,,intensity,0.1,0.05,0.7,0.3,0.82,20,400,1E-11,3.5,0.01,0.5,0.1,,,,,,,,,,,,,,,,,,,,,,,,,,,,,,,,,,,,,,,,,,,,,,,,,,,,,,,,,,,,,,,,,,,,,,,,,,,,,,,,,
,,,,,856852,001,2025-03-14_11h38.16.574,Utility_discrimination_2024_2cat,2024.2.4,MacIntel,135.1351351,,,,,,,,4,"[0.5,0.5]","[0,1]",d,"[0.6338992810034347,0.5555015418012073]","[0.36610071899656527,0.44449845819879275]",528.0097,531.1872,1,s,1,1.6668,,0.248567018,0.420378726,0.171811708,531.1886,531.1886,0,189,189,189,1,0.144912642,0.144912642,shape_difference1,1,,TRUE,,intensity,0.1,0.05,0.7,0.3,0.82,20,400,1E-11,3.5,0.01,0.5,0.1,,,,,,,,,,,,,,,,,,,,,,,,,,,,,,,,,,,,,,,,,,,,,,,,,,,,,,,,,,,,,,,,,,,,,,,,,,,,,,,,,
,,,,,856852,001,2025-03-14_11h38.16.574,Utility_discrimination_2024_2cat,2024.2.4,MacIntel,135.1351351,,,,,,,,1,"[0.5,0.5]","[0.924,0.383]",s,"[0.5,0.8583207449459466]","[0.5,0.14167925505405343]",531.1894,533.5288,1,s,1,0.824,,0.015392062,0.196668092,0.181276031,533.53,533.53,0,190,190,190,1,0.358320745,0.358320745,shape_difference4,1,,TRUE,,intensity,0.1,0.05,0.7,0.3,0.82,20,400,1E-11,3.5,0.01,0.5,0.1,,,,,,,,,,,,,,,,,,,,,,,,,,,,,,,,,,,,,,,,,,,,,,,,,,,,,,,,,,,,,,,,,,,,,,,,,,,,,,,,,
