Consent.started,Consent.stopped,key_resp.keys,key_resp.rt,key_resp.duration,participant,session,date,expName,psychopyVersion,OS,frameRate,SetupExperiment.started,SetupExperiment.stopped,DiscrimInstructions_Pre.started,DiscrimInstructions_Pre.stopped,KeyboardResponse.keys,KeyboardResponse.rt,KeyboardResponse.duration,feature_index,feature_center,feature_vector,correct_answer,coord1,coord2,DiscriminationTrial.started,DiscriminationTrial.stopped,PreTest.response,Resp_s_or_d.keys,Resp_s_or_d.corr,Resp_s_or_d.rt,Resp_s_or_d.duration,PreTest.CI_lower,PreTest.CI_upper,PreTest.CI_width,CrashPretest_2.started,CrashPretest_2.stopped,PreTest.thisRepN,PreTest.thisTrialN,PreTest.thisN,PreTest.thisIndex,PreTest.ran,PreTest.intensity,intensity,PreTest.label,PreTest.nReps,PreTest.method,PreTest.autoLog,PreTest.seed,PreTest.varName,PreTest.startVal,PreTest.minVal,PreTest.maxVal,PreTest.startValSd,PreTest.pThreshold,PreTest.nTrials,PreTest.maxTrials,PreTest.stopInterval,PreTest.beta,PreTest.delta,PreTest.gamma,PreTest.grain,WelcomeToCategorizationTask.started,WelcomeToCategorizationTask.stopped,PressAnyKey3.keys,PressAnyKey3.rt,PressAnyKey3.duration,shape_coordinates,category_center,category_sigma,subspace_center,subspace_vector1,subspace_vector2,CategorizationTrial.started,CategorizationTrial.stopped,Respond_1or2.keys,Respond_1or2.rt,Respond_1or2.duration,Feedback.started,Feedback.stopped,xcoord,ycoord,shape_coord,numeric_response_minus1,correctness,truecategory,mixture_index,respAifA,respBifA,respAifB,respBifB,trial_number,D,muAx,muAy,muBx,muBy,sigmaA,sigmaB,priorA,priorB,TrialLoop.thisRepN,TrialLoop.thisTrialN,TrialLoop.thisN,TrialLoop.thisIndex,TrialLoop.ran,DiscriminationInstructions_Post.started,DiscriminationInstructions_Post.stopped,key_resp_2.keys,key_resp_2.rt,key_resp_2.duration,PostTest.response,PostTest.CI_lower,PostTest.CI_upper,PostTest.CI_width,CrashPosttest.started,CrashPosttest.stopped,PostTest.thisRepN,PostTest.thisTrialN,PostTest.thisN,PostTest.thisIndex,PostTest.ran,PostTest.intensity,PostTest.label,PostTest.nReps,PostTest.method,PostTest.autoLog,PostTest.seed,PostTest.varName,PostTest.startVal,PostTest.minVal,PostTest.maxVal,PostTest.startValSd,PostTest.pThreshold,PostTest.nTrials,PostTest.maxTrials,PostTest.stopInterval,PostTest.beta,PostTest.delta,PostTest.gamma,PostTest.grain,Thanks.started,Thanks.stopped
0.0001,2.9601,y,2.9366,,872718,001,2025-03-18_22h58.34.246,Utility_discrimination_2024_2cat,2024.2.4,MacIntel,60.24096386,,,,,,,,,,,,,,,,,,,,,,,,,,,,,,,,,,,,,,,,,,,,,,,,,,,,,,,,,,,,,,,,,,,,,,,,,,,,,,,,,,,,,,,,,,,,,,,,,,,,,,,,,,,,,,,,,,,,,,,,,,,,,,,,,,,
,,,,,872718,001,2025-03-18_22h58.34.246,Utility_discrimination_2024_2cat,2024.2.4,MacIntel,60.24096386,2.9605,2.9606,,,,,,,,,,,,,,,,,,,,,,,,,,,,,,,,,,,,,,,,,,,,,,,,,,,,,,,,,,,,,,,,,,,,,,,,,,,,,,,,,,,,,,,,,,,,,,,,,,,,,,,,,,,,,,,,,,,,,,,,,,,,,,,,,
,,,,,872718,001,2025-03-18_22h58.34.246,Utility_discrimination_2024_2cat,2024.2.4,MacIntel,60.24096386,,,2.9607,21.1603,space,18.1698,,,,,,,,,,,,,,,,,,,,,,,,,,,,,,,,,,,,,,,,,,,,,,,,,,,,,,,,,,,,,,,,,,,,,,,,,,,,,,,,,,,,,,,,,,,,,,,,,,,,,,,,,,,,,,,,,,,,,,,,,,,,,
,,,,,872718,001,2025-03-18_22h58.34.246,Utility_discrimination_2024_2cat,2024.2.4,MacIntel,60.24096386,,,,,,,,1,"[0.5,0.5]","[0.924,0.383]",,"[0.6185239449756466,0.5]","[0.3814760550243534,0.5]",21.1943,29.8768,0,s,0,7.15,,-0.447967632,0.547967632,0.995935263,29.8817,29.8819,0,0,0,0,1,0.118523945,0.118523945,shape_difference3,1,,TRUE,,intensity,0.1,0.05,0.7,0.3,0.82,20,400,1E-11,3.5,0.01,0.5,0.1,,,,,,,,,,,,,,,,,,,,,,,,,,,,,,,,,,,,,,,,,,,,,,,,,,,,,,,,,,,,,,,,,,,,,,,,,,,,,,,,,
,,,,,872718,001,2025-03-18_22h58.34.246,Utility_discrimination_2024_2cat,2024.2.4,MacIntel,60.24096386,,,,,,,,0,"[0.5,0.5]","[1,0]",d,"[0.6095161251574974,0.5453946709256726]","[0.3904838748425025,0.4546053290743273]",29.8833,32.6427,0,s,0,1.2388,,-0.447967632,0.547967632,0.995935263,32.646,32.646,0,1,1,1,1,0.118523945,0.118523945,shape_difference1,1,,TRUE,,intensity,0.1,0.05,0.7,0.3,0.82,20,400,1E-11,3.5,0.01,0.5,0.1,,,,,,,,,,,,,,,,,,,,,,,,,,,,,,,,,,,,,,,,,,,,,,,,,,,,,,,,,,,,,,,,,,,,,,,,,,,,,,,,,
,,,,,872718,001,2025-03-18_22h58.34.246,Utility_discrimination_2024_2cat,2024.2.4,MacIntel,60.24096386,,,,,,,,4,"[0.5,0.5]","[0,1]",d,"[0.6185239449756466,0.5]","[0.3814760550243534,0.5]",32.6472,34.8254,0,s,0,0.6489,,-0.447967632,0.547967632,0.995935263,34.829,34.829,0,2,2,2,1,0.118523945,0.118523945,shape_difference0,1,,TRUE,,intensity,0.1,0.05,0.7,0.3,0.82,20,400,1E-11,3.5,0.01,0.5,0.1,,,,,,,,,,,,,,,,,,,,,,,,,,,,,,,,,,,,,,,,,,,,,,,,,,,,,,,,,,,,,,,,,,,,,,,,,,,,,,,,,
,,,,,872718,001,2025-03-18_22h58.34.246,Utility_discrimination_2024_2cat,2024.2.4,MacIntel,60.24096386,,,,,,,,2,"[0.5,0.5]","[0.707,0.707]",d,"[0.5,0.6185239449756466]","[0.5,0.3814760550243534]",34.8301,36.8764,1,s,1,0.5159,,-0.447967632,0.547967632,0.995935263,36.8801,36.8803,0,3,3,3,1,0.118523945,0.118523945,shape_difference4,1,,TRUE,,intensity,0.1,0.05,0.7,0.3,0.82,20,400,1E-11,3.5,0.01,0.5,0.1,,,,,,,,,,,,,,,,,,,,,,,,,,,,,,,,,,,,,,,,,,,,,,,,,,,,,,,,,,,,,,,,,,,,,,,,,,,,,,,,,
,,,,,872718,001,2025-03-18_22h58.34.246,Utility_discrimination_2024_2cat,2024.2.4,MacIntel,60.24096386,,,,,,,,3,"[0.5,0.5]","[0.383,0.924]",s,"[0.5837964290977822,0.5837964290977822]","[0.4162035709022178,0.4162035709022178]",36.8813,38.8089,1,s,1,0.3979,,0.008797352,0.664308158,0.655510806,38.8115,38.8115,0,4,4,4,1,0.118523945,0.118523945,shape_difference2,1,,TRUE,,intensity,0.1,0.05,0.7,0.3,0.82,20,400,1E-11,3.5,0.01,0.5,0.1,,,,,,,,,,,,,,,,,,,,,,,,,,,,,,,,,,,,,,,,,,,,,,,,,,,,,,,,,,,,,,,,,,,,,,,,,,,,,,,,,
,,,,,872718,001,2025-03-18_22h58.34.246,Utility_discrimination_2024_2cat,2024.2.4,MacIntel,60.24096386,,,,,,,,2,"[0.5,0.5]","[0.707,0.707]",s,"[0.6243672079123823,0.8000399480706037]","[0.37563279208761774,0.19996005192939625]",38.8126,40.7264,1,s,1,0.3823,,-0.479157219,0.478510979,0.957668197,40.7289,40.729,0,5,5,5,1,0.324718559,0.324718559,shape_difference3,1,,TRUE,,intensity,0.1,0.05,0.7,0.3,0.82,20,400,1E-11,3.5,0.01,0.5,0.1,,,,,,,,,,,,,,,,,,,,,,,,,,,,,,,,,,,,,,,,,,,,,,,,,,,,,,,,,,,,,,,,,,,,,,,,,,,,,,,,,
,,,,,872718,001,2025-03-18_22h58.34.246,Utility_discrimination_2024_2cat,2024.2.4,MacIntel,60.24096386,,,,,,,,0,"[0.5,0.5]","[1,0]",s,"[0.5261601218135545,0.5261601218135545]","[0.4738398781864455,0.4738398781864455]",40.7299,42.5926,1,s,1,0.332,,0.008797352,0.664308158,0.655510806,42.596,42.596,0,6,6,6,1,0.037001587,0.037001587,shape_difference2,1,,TRUE,,intensity,0.1,0.05,0.7,0.3,0.82,20,400,1E-11,3.5,0.01,0.5,0.1,,,,,,,,,,,,,,,,,,,,,,,,,,,,,,,,,,,,,,,,,,,,,,,,,,,,,,,,,,,,,,,,,,,,,,,,,,,,,,,,,
,,,,,872718,001,2025-03-18_22h58.34.246,Utility_discrimination_2024_2cat,2024.2.4,MacIntel,60.24096386,,,,,,,,1,"[0.5,0.5]","[0.924,0.383]",s,"[0.8247185585179694,0.5]","[0.17528144148203062,0.5]",42.5969,44.4099,1,s,1,0.2823,,0.008797352,0.664308158,0.655510806,44.4135,44.4135,0,7,7,7,1,0.324718559,0.324718559,shape_difference0,1,,TRUE,,intensity,0.1,0.05,0.7,0.3,0.82,20,400,1E-11,3.5,0.01,0.5,0.1,,,,,,,,,,,,,,,,,,,,,,,,,,,,,,,,,,,,,,,,,,,,,,,,,,,,,,,,,,,,,,,,,,,,,,,,,,,,,,,,,
,,,,,872718,001,2025-03-18_22h58.34.246,Utility_discrimination_2024_2cat,2024.2.4,MacIntel,60.24096386,,,,,,,,4,"[0.5,0.5]","[0,1]",s,"[0.8000399480706037,0.6243672079123823]","[0.19996005192939625,0.37563279208761774]",44.4145,46.3087,1,s,1,0.3711,,-0.479157219,0.478510979,0.957668197,46.3121,46.3121,0,8,8,8,1,0.324718559,0.324718559,shape_difference1,1,,TRUE,,intensity,0.1,0.05,0.7,0.3,0.82,20,400,1E-11,3.5,0.01,0.5,0.1,,,,,,,,,,,,,,,,,,,,,,,,,,,,,,,,,,,,,,,,,,,,,,,,,,,,,,,,,,,,,,,,,,,,,,,,,,,,,,,,,
,,,,,872718,001,2025-03-18_22h58.34.246,Utility_discrimination_2024_2cat,2024.2.4,MacIntel,60.24096386,,,,,,,,0,"[0.5,0.5]","[1,0]",s,"[0.5,0.5370015867235566]","[0.5,0.4629984132764434]",46.3131,48.1432,0,s,0,0.299,,-0.003741292,0.604569979,0.608311271,48.1458,48.1459,0,9,9,9,1,0.037001587,0.037001587,shape_difference4,1,,TRUE,,intensity,0.1,0.05,0.7,0.3,0.82,20,400,1E-11,3.5,0.01,0.5,0.1,,,,,,,,,,,,,,,,,,,,,,,,,,,,,,,,,,,,,,,,,,,,,,,,,,,,,,,,,,,,,,,,,,,,,,,,,,,,,,,,,
,,,,,872718,001,2025-03-18_22h58.34.246,Utility_discrimination_2024_2cat,2024.2.4,MacIntel,60.24096386,,,,,,,,1,"[0.5,0.5]","[0.924,0.383]",d,"[0.7748173464265704,0.5]","[0.22518265357342954,0.5]",48.1467,50.0598,0,s,0,0.3828,,-0.003741292,0.604569979,0.608311271,50.063,50.063,0,10,10,10,1,0.274817346,0.274817346,shape_difference0,1,,TRUE,,intensity,0.1,0.05,0.7,0.3,0.82,20,400,1E-11,3.5,0.01,0.5,0.1,,,,,,,,,,,,,,,,,,,,,,,,,,,,,,,,,,,,,,,,,,,,,,,,,,,,,,,,,,,,,,,,,,,,,,,,,,,,,,,,,
,,,,,872718,001,2025-03-18_22h58.34.246,Utility_discrimination_2024_2cat,2024.2.4,MacIntel,60.24096386,,,,,,,,2,"[0.5,0.5]","[0.707,0.707]",d,"[0.7539312280981512,0.6052550436813765]","[0.2460687719018489,0.3947449563186235]",50.0638,52.0598,1,s,1,0.4657,,-0.510435314,0.404710629,0.915145943,52.0624,52.0624,0,11,11,11,1,0.274817346,0.274817346,shape_difference1,1,,TRUE,,intensity,0.1,0.05,0.7,0.3,0.82,20,400,1E-11,3.5,0.01,0.5,0.1,,,,,,,,,,,,,,,,,,,,,,,,,,,,,,,,,,,,,,,,,,,,,,,,,,,,,,,,,,,,,,,,,,,,,,,,,,,,,,,,,
,,,,,872718,001,2025-03-18_22h58.34.246,Utility_discrimination_2024_2cat,2024.2.4,MacIntel,60.24096386,,,,,,,,4,"[0.5,0.5]","[0,1]",s,"[0.47365134701532874,0.47365134701532874]","[0.5263486529846713,0.5263486529846713]",52.0635,54.0253,1,s,1,0.4367,,-0.090065158,0.591798206,0.681863364,54.0282,54.0282,0,12,12,12,1,-0.03726825,-0.03726825,shape_difference2,1,,TRUE,,intensity,0.1,0.05,0.7,0.3,0.82,20,400,1E-11,3.5,0.01,0.5,0.1,,,,,,,,,,,,,,,,,,,,,,,,,,,,,,,,,,,,,,,,,,,,,,,,,,,,,,,,,,,,,,,,,,,,,,,,,,,,,,,,,
,,,,,872718,001,2025-03-18_22h58.34.246,Utility_discrimination_2024_2cat,2024.2.4,MacIntel,60.24096386,,,,,,,,3,"[0.5,0.5]","[0.383,0.924]",s,"[0.5,0.7256621725789216]","[0.5,0.2743378274210784]",54.0291,56.0429,1,d,1,0.4885,,-0.003741292,0.604569979,0.608311271,56.0461,56.0461,0,13,13,13,1,0.225662173,0.225662173,shape_difference4,1,,TRUE,,intensity,0.1,0.05,0.7,0.3,0.82,20,400,1E-11,3.5,0.01,0.5,0.1,,,,,,,,,,,,,,,,,,,,,,,,,,,,,,,,,,,,,,,,,,,,,,,,,,,,,,,,,,,,,,,,,,,,,,,,,,,,,,,,,
,,,,,872718,001,2025-03-18_22h58.34.246,Utility_discrimination_2024_2cat,2024.2.4,MacIntel,60.24096386,,,,,,,,0,"[0.5,0.5]","[1,0]",d,"[0.6052550436813765,0.7539312280981512]","[0.3947449563186235,0.2460687719018489]",56.047,58.8428,1,s,1,1.2787,,0.166924593,0.726757578,0.559832986,58.8452,58.8453,0,14,14,14,1,0.274817346,0.274817346,shape_difference3,1,,TRUE,,intensity,0.1,0.05,0.7,0.3,0.82,20,400,1E-11,3.5,0.01,0.5,0.1,,,,,,,,,,,,,,,,,,,,,,,,,,,,,,,,,,,,,,,,,,,,,,,,,,,,,,,,,,,,,,,,,,,,,,,,,,,,,,,,,
,,,,,872718,001,2025-03-18_22h58.34.246,Utility_discrimination_2024_2cat,2024.2.4,MacIntel,60.24096386,,,,,,,,1,"[0.5,0.5]","[0.924,0.383]",s,"[0.9274973810135692,0.5]","[0.07250261898643084,0.5]",58.8468,60.8764,0,s,0,0.5013,,-0.026700702,0.552121039,0.578821741,60.8796,60.8796,0,15,15,15,1,0.427497381,0.427497381,shape_difference0,1,,TRUE,,intensity,0.1,0.05,0.7,0.3,0.82,20,400,1E-11,3.5,0.01,0.5,0.1,,,,,,,,,,,,,,,,,,,,,,,,,,,,,,,,,,,,,,,,,,,,,,,,,,,,,,,,,,,,,,,,,,,,,,,,,,,,,,,,,
,,,,,872718,001,2025-03-18_22h58.34.246,Utility_discrimination_2024_2cat,2024.2.4,MacIntel,60.24096386,,,,,,,,4,"[0.5,0.5]","[0,1]",d,"[0.7182179619957938,0.5904518175805076]","[0.2817820380042062,0.4095481824194924]",60.8805,62.4098,1,d,1,0.0008,,-0.09936101,0.537490534,0.636851544,62.4124,62.4124,0,16,16,16,1,0.236166626,0.236166626,shape_difference1,1,,TRUE,,intensity,0.1,0.05,0.7,0.3,0.82,20,400,1E-11,3.5,0.01,0.5,0.1,,,,,,,,,,,,,,,,,,,,,,,,,,,,,,,,,,,,,,,,,,,,,,,,,,,,,,,,,,,,,,,,,,,,,,,,,,,,,,,,,
,,,,,872718,001,2025-03-18_22h58.34.246,Utility_discrimination_2024_2cat,2024.2.4,MacIntel,60.24096386,,,,,,,,3,"[0.5,0.5]","[0.383,0.924]",d,"[0.5,0.6717231163357056]","[0.5,0.3282768836642944]",62.4135,64.0931,0,d,0,0.1492,,-0.026700702,0.552121039,0.578821741,64.0962,64.0963,0,17,17,17,1,0.171723116,0.171723116,shape_difference4,1,,TRUE,,intensity,0.1,0.05,0.7,0.3,0.82,20,400,1E-11,3.5,0.01,0.5,0.1,,,,,,,,,,,,,,,,,,,,,,,,,,,,,,,,,,,,,,,,,,,,,,,,,,,,,,,,,,,,,,,,,,,,,,,,,,,,,,,,,
,,,,,872718,001,2025-03-18_22h58.34.246,Utility_discrimination_2024_2cat,2024.2.4,MacIntel,60.24096386,,,,,,,,2,"[0.5,0.5]","[0.707,0.707]",s,"[0.5904518175805076,0.7182179619957938]","[0.4095481824194924,0.2817820380042062]",64.0971,65.7919,1,s,1,0.1656,,-0.540713527,0.322166073,0.862879599,65.7946,65.7946,0,18,18,18,1,0.236166626,0.236166626,shape_difference3,1,,TRUE,,intensity,0.1,0.05,0.7,0.3,0.82,20,400,1E-11,3.5,0.01,0.5,0.1,,,,,,,,,,,,,,,,,,,,,,,,,,,,,,,,,,,,,,,,,,,,,,,,,,,,,,,,,,,,,,,,,,,,,,,,,,,,,,,,,
,,,,,872718,001,2025-03-18_22h58.34.246,Utility_discrimination_2024_2cat,2024.2.4,MacIntel,60.24096386,,,,,,,,3,"[0.5,0.5]","[0.383,0.924]",s,"[0.431701919481697,0.431701919481697]","[0.568298080518303,0.568298080518303]",65.7956,67.4255,1,d,1,0.1017,,-0.050981617,0.494068035,0.545049652,67.4282,67.4282,0,19,19,19,1,-0.09660266,-0.09660266,shape_difference2,1,,TRUE,,intensity,0.1,0.05,0.7,0.3,0.82,20,400,1E-11,3.5,0.01,0.5,0.1,,,,,,,,,,,,,,,,,,,,,,,,,,,,,,,,,,,,,,,,,,,,,,,,,,,,,,,,,,,,,,,,,,,,,,,,,,,,,,,,,
,,,,,872718,001,2025-03-18_22h58.34.246,Utility_discrimination_2024_2cat,2024.2.4,MacIntel,60.24096386,,,,,,,,4,"[0.5,0.5]","[0,1]",d,"[0.5753418592221956,0.6817646943115111]","[0.4246581407778044,0.3182353056884889]",67.4291,68.976,1,d,1,0.0201,,0.064206312,0.666780888,0.602574576,68.9791,68.9792,0,20,20,20,1,0.196715037,0.196715037,shape_difference3,1,,TRUE,,intensity,0.1,0.05,0.7,0.3,0.82,20,400,1E-11,3.5,0.01,0.5,0.1,,,,,,,,,,,,,,,,,,,,,,,,,,,,,,,,,,,,,,,,,,,,,,,,,,,,,,,,,,,,,,,,,,,,,,,,,,,,,,,,,
,,,,,872718,001,2025-03-18_22h58.34.246,Utility_discrimination_2024_2cat,2024.2.4,MacIntel,60.24096386,,,,,,,,1,"[0.5,0.5]","[0.924,0.383]",d,"[0.5,0.8400297212439484]","[0.5,0.15997027875605163]",68.9802,70.5427,1,d,1,0.0343,,-0.050981617,0.494068035,0.545049652,70.5455,70.5456,0,21,21,21,1,0.340029721,0.340029721,shape_difference4,1,,TRUE,,intensity,0.1,0.05,0.7,0.3,0.82,20,400,1E-11,3.5,0.01,0.5,0.1,,,,,,,,,,,,,,,,,,,,,,,,,,,,,,,,,,,,,,,,,,,,,,,,,,,,,,,,,,,,,,,,,,,,,,,,,,,,,,,,,
,,,,,872718,001,2025-03-18_22h58.34.246,Utility_discrimination_2024_2cat,2024.2.4,MacIntel,60.24096386,,,,,,,,0,"[0.5,0.5]","[1,0]",d,"[0.6817646943115111,0.5753418592221956]","[0.3182353056884889,0.4246581407778044]",70.5464,72.143,0,d,0,0.0681,,0.301007827,0.80166167,0.500653843,72.1457,72.1457,0,22,22,22,1,0.196715037,0.196715037,shape_difference1,1,,TRUE,,intensity,0.1,0.05,0.7,0.3,0.82,20,400,1E-11,3.5,0.01,0.5,0.1,,,,,,,,,,,,,,,,,,,,,,,,,,,,,,,,,,,,,,,,,,,,,,,,,,,,,,,,,,,,,,,,,,,,,,,,,,,,,,,,,
,,,,,872718,001,2025-03-18_22h58.34.246,Utility_discrimination_2024_2cat,2024.2.4,MacIntel,60.24096386,,,,,,,,2,"[0.5,0.5]","[0.707,0.707]",s,"[1.0333423252790936,0.5]","[-0.03334232527909364,0.5]",72.1466,73.6762,1,d,1,0.0003,,-0.569624043,0.240042019,0.809666061,73.6791,73.6791,0,23,23,23,1,0.533342325,0.533342325,shape_difference0,1,,TRUE,,intensity,0.1,0.05,0.7,0.3,0.82,20,400,1E-11,3.5,0.01,0.5,0.1,,,,,,,,,,,,,,,,,,,,,,,,,,,,,,,,,,,,,,,,,,,,,,,,,,,,,,,,,,,,,,,,,,,,,,,,,,,,,,,,,
,,,,,872718,001,2025-03-18_22h58.34.246,Utility_discrimination_2024_2cat,2024.2.4,MacIntel,60.24096386,,,,,,,,2,"[0.5,0.5]","[0.707,0.707]",d,"[0.39567503934342785,0.39567503934342785]","[0.6043249606565722,0.6043249606565722]",73.6802,75.4924,0,d,0,0.2834,,-0.233083019,0.431441265,0.664524284,75.4949,75.4949,0,24,24,24,1,-0.147560058,-0.147560058,shape_difference2,1,,TRUE,,intensity,0.1,0.05,0.7,0.3,0.82,20,400,1E-11,3.5,0.01,0.5,0.1,,,,,,,,,,,,,,,,,,,,,,,,,,,,,,,,,,,,,,,,,,,,,,,,,,,,,,,,,,,,,,,,,,,,,,,,,,,,,,,,,
,,,,,872718,001,2025-03-18_22h58.34.246,Utility_discrimination_2024_2cat,2024.2.4,MacIntel,60.24096386,,,,,,,,1,"[0.5,0.5]","[0.924,0.383]",s,"[0.5217557912655285,0.5217557912655285]","[0.4782442087344715,0.4782442087344715]",75.4958,77.1431,1,d,1,0.1192,,0.086822279,0.600153011,0.513330733,77.1461,77.1462,0,25,25,25,1,0.030771982,0.030771982,shape_difference2,1,,TRUE,,intensity,0.1,0.05,0.7,0.3,0.82,20,400,1E-11,3.5,0.01,0.5,0.1,,,,,,,,,,,,,,,,,,,,,,,,,,,,,,,,,,,,,,,,,,,,,,,,,,,,,,,,,,,,,,,,,,,,,,,,,,,,,,,,,
,,,,,872718,001,2025-03-18_22h58.34.246,Utility_discrimination_2024_2cat,2024.2.4,MacIntel,60.24096386,,,,,,,,3,"[0.5,0.5]","[0.383,0.924]",d,"[0.7759011755379792,0.614361634449184]","[0.22409882446202078,0.385638365550816]",77.1472,78.7263,0,s,0,0.0486,,-0.067097964,0.445046575,0.512144539,78.7295,78.7295,0,26,26,26,1,0.298594346,0.298594346,shape_difference1,1,,TRUE,,intensity,0.1,0.05,0.7,0.3,0.82,20,400,1E-11,3.5,0.01,0.5,0.1,,,,,,,,,,,,,,,,,,,,,,,,,,,,,,,,,,,,,,,,,,,,,,,,,,,,,,,,,,,,,,,,,,,,,,,,,,,,,,,,,
,,,,,872718,001,2025-03-18_22h58.34.246,Utility_discrimination_2024_2cat,2024.2.4,MacIntel,60.24096386,,,,,,,,0,"[0.5,0.5]","[1,0]",d,"[0.5651464676424028,0.657167979377494]","[0.43485353235759716,0.34283202062250595]",78.7304,80.3752,0,s,0,0.1187,,0.278309554,0.769651804,0.49134225,80.3774,80.3774,0,27,27,27,1,0.170095216,0.170095216,shape_difference3,1,,TRUE,,intensity,0.1,0.05,0.7,0.3,0.82,20,400,1E-11,3.5,0.01,0.5,0.1,,,,,,,,,,,,,,,,,,,,,,,,,,,,,,,,,,,,,,,,,,,,,,,,,,,,,,,,,,,,,,,,,,,,,,,,,,,,,,,,,
,,,,,872718,001,2025-03-18_22h58.34.246,Utility_discrimination_2024_2cat,2024.2.4,MacIntel,60.24096386,,,,,,,,4,"[0.5,0.5]","[0,1]",d,"[0.9957746672049524,0.5]","[0.004225332795047554,0.5]",80.3789,81.9097,0,d,0,0.0003,,0.046106493,0.612747238,0.566640745,81.9129,81.9129,0,28,28,28,1,0.495774667,0.495774667,shape_difference0,1,,TRUE,,intensity,0.1,0.05,0.7,0.3,0.82,20,400,1E-11,3.5,0.01,0.5,0.1,,,,,,,,,,,,,,,,,,,,,,,,,,,,,,,,,,,,,,,,,,,,,,,,,,,,,,,,,,,,,,,,,,,,,,,,,,,,,,,,,
,,,,,872718,001,2025-03-18_22h58.34.246,Utility_discrimination_2024_2cat,2024.2.4,MacIntel,60.24096386,,,,,,,,2,"[0.5,0.5]","[0.707,0.707]",s,"[0.5,0.7937624942698775]","[0.5,0.20623750573012245]",81.9138,83.5602,1,d,1,0.1285,,-0.25333342,0.363948207,0.617281627,83.5623,83.5624,0,29,29,29,1,0.293762494,0.293762494,shape_difference4,1,,TRUE,,intensity,0.1,0.05,0.7,0.3,0.82,20,400,1E-11,3.5,0.01,0.5,0.1,,,,,,,,,,,,,,,,,,,,,,,,,,,,,,,,,,,,,,,,,,,,,,,,,,,,,,,,,,,,,,,,,,,,,,,,,,,,,,,,,
,,,,,872718,001,2025-03-18_22h58.34.246,Utility_discrimination_2024_2cat,2024.2.4,MacIntel,60.24096386,,,,,,,,3,"[0.5,0.5]","[0.383,0.924]",d,"[0.490276963316838,0.490276963316838]","[0.509723036683162,0.509723036683162]",83.5633,85.2253,1,s,1,0.1327,,0.060879157,0.569881129,0.509001971,85.2284,85.2284,0,30,30,30,1,-0.013752527,-0.013752527,shape_difference2,1,,TRUE,,intensity,0.1,0.05,0.7,0.3,0.82,20,400,1E-11,3.5,0.01,0.5,0.1,,,,,,,,,,,,,,,,,,,,,,,,,,,,,,,,,,,,,,,,,,,,,,,,,,,,,,,,,,,,,,,,,,,,,,,,,,,,,,,,,
,,,,,872718,001,2025-03-18_22h58.34.246,Utility_discrimination_2024_2cat,2024.2.4,MacIntel,60.24096386,,,,,,,,1,"[0.5,0.5]","[0.924,0.383]",s,"[0.6048647306697384,0.7529895852188989]","[0.3951352693302616,0.24701041478110108]",85.2294,86.8763,1,s,1,0.1168,,0.182403504,0.698781918,0.516378414,86.8788,86.8788,0,31,31,31,1,0.273798252,0.273798252,shape_difference3,1,,TRUE,,intensity,0.1,0.05,0.7,0.3,0.82,20,400,1E-11,3.5,0.01,0.5,0.1,,,,,,,,,,,,,,,,,,,,,,,,,,,,,,,,,,,,,,,,,,,,,,,,,,,,,,,,,,,,,,,,,,,,,,,,,,,,,,,,,
,,,,,872718,001,2025-03-18_22h58.34.246,Utility_discrimination_2024_2cat,2024.2.4,MacIntel,60.24096386,,,,,,,,4,"[0.5,0.5]","[0,1]",s,"[0.8758395931906585,0.6557863248831409]","[0.12416040680934148,0.3442136751168591]",86.88,88.4261,0,d,0,0.0156,,0.034258812,0.562756016,0.528497204,88.4291,88.4291,0,32,32,32,1,0.406752806,0.406752806,shape_difference1,1,,TRUE,,intensity,0.1,0.05,0.7,0.3,0.82,20,400,1E-11,3.5,0.01,0.5,0.1,,,,,,,,,,,,,,,,,,,,,,,,,,,,,,,,,,,,,,,,,,,,,,,,,,,,,,,,,,,,,,,,,,,,,,,,,,,,,,,,,
,,,,,872718,001,2025-03-18_22h58.34.246,Utility_discrimination_2024_2cat,2024.2.4,MacIntel,60.24096386,,,,,,,,0,"[0.5,0.5]","[1,0]",s,"[0.5,0.7622926100884712]","[0.5,0.23770738991152884]",88.4309,89.9931,1,s,1,0.0328,,0.38007158,0.856700825,0.476629245,89.9965,89.9966,0,33,33,33,1,0.26229261,0.26229261,shape_difference4,1,,TRUE,,intensity,0.1,0.05,0.7,0.3,0.82,20,400,1E-11,3.5,0.01,0.5,0.1,,,,,,,,,,,,,,,,,,,,,,,,,,,,,,,,,,,,,,,,,,,,,,,,,,,,,,,,,,,,,,,,,,,,,,,,,,,,,,,,,
,,,,,872718,001,2025-03-18_22h58.34.246,Utility_discrimination_2024_2cat,2024.2.4,MacIntel,60.24096386,,,,,,,,2,"[0.5,0.5]","[0.707,0.707]",s,"[1.094194446101008,0.5]","[-0.09419444610100813,0.5]",89.9977,91.5431,1,d,1,0.0184,,-0.266581438,0.284894715,0.551476153,91.5457,91.5463,0,34,34,34,1,0.594194446,0.594194446,shape_difference0,1,,TRUE,,intensity,0.1,0.05,0.7,0.3,0.82,20,400,1E-11,3.5,0.01,0.5,0.1,,,,,,,,,,,,,,,,,,,,,,,,,,,,,,,,,,,,,,,,,,,,,,,,,,,,,,,,,,,,,,,,,,,,,,,,,,,,,,,,,
,,,,,872718,001,2025-03-18_22h58.34.246,Utility_discrimination_2024_2cat,2024.2.4,MacIntel,60.24096386,,,,,,,,1,"[0.5,0.5]","[0.924,0.383]",d,"[0.4700100399811677,0.4700100399811677]","[0.5299899600188323,0.5299899600188323]",91.5473,93.1098,1,s,1,0.0341,,0.285381627,0.790377419,0.504995793,93.1123,93.1124,0,35,35,35,1,-0.042418614,-0.042418614,shape_difference2,1,,TRUE,,intensity,0.1,0.05,0.7,0.3,0.82,20,400,1E-11,3.5,0.01,0.5,0.1,,,,,,,,,,,,,,,,,,,,,,,,,,,,,,,,,,,,,,,,,,,,,,,,,,,,,,,,,,,,,,,,,,,,,,,,,,,,,,,,,
,,,,,872718,001,2025-03-18_22h58.34.246,Utility_discrimination_2024_2cat,2024.2.4,MacIntel,60.24096386,,,,,,,,4,"[0.5,0.5]","[0,1]",s,"[0.9760631213038491,0.697329194220102]","[0.023936878696150854,0.302670805779898]",93.1135,94.7262,1,d,1,0.0926,,0.026241905,0.49758731,0.471345405,94.7285,94.7286,0,36,36,36,1,0.515219828,0.515219828,shape_difference1,1,,TRUE,,intensity,0.1,0.05,0.7,0.3,0.82,20,400,1E-11,3.5,0.01,0.5,0.1,,,,,,,,,,,,,,,,,,,,,,,,,,,,,,,,,,,,,,,,,,,,,,,,,,,,,,,,,,,,,,,,,,,,,,,,,,,,,,,,,
,,,,,872718,001,2025-03-18_22h58.34.246,Utility_discrimination_2024_2cat,2024.2.4,MacIntel,60.24096386,,,,,,,,0,"[0.5,0.5]","[1,0]",d,"[0.5,0.7353586675087115]","[0.5,0.2646413324912885]",94.7296,96.643,1,d,1,0.3827,,0.362769636,0.807853515,0.445083879,96.6459,96.6459,0,37,37,37,1,0.235358668,0.235358668,shape_difference4,1,,TRUE,,intensity,0.1,0.05,0.7,0.3,0.82,20,400,1E-11,3.5,0.01,0.5,0.1,,,,,,,,,,,,,,,,,,,,,,,,,,,,,,,,,,,,,,,,,,,,,,,,,,,,,,,,,,,,,,,,,,,,,,,,,,,,,,,,,
,,,,,872718,001,2025-03-18_22h58.34.246,Utility_discrimination_2024_2cat,2024.2.4,MacIntel,60.24096386,,,,,,,,3,"[0.5,0.5]","[0.383,0.924]",d,"[1.0690724620203824,0.5]","[-0.06907246202038242,0.5]",96.6469,98.2764,1,s,1,0.1,,0.04845466,0.508656626,0.460201966,98.2787,98.2788,0,38,38,38,1,0.569072462,0.569072462,shape_difference0,1,,TRUE,,intensity,0.1,0.05,0.7,0.3,0.82,20,400,1E-11,3.5,0.01,0.5,0.1,,,,,,,,,,,,,,,,,,,,,,,,,,,,,,,,,,,,,,,,,,,,,,,,,,,,,,,,,,,,,,,,,,,,,,,,,,,,,,,,,
,,,,,872718,001,2025-03-18_22h58.34.246,Utility_discrimination_2024_2cat,2024.2.4,MacIntel,60.24096386,,,,,,,,4,"[0.5,0.5]","[0,1]",s,"[0.5954474337823668,0.7302700491250831]","[0.4045525662176333,0.2697299508749169]",98.2798,99.8253,1,d,1,0.016,,0.017569522,0.460819634,0.443250112,99.8282,99.8283,0,39,39,39,1,0.24921001,0.24921001,shape_difference3,1,,TRUE,,intensity,0.1,0.05,0.7,0.3,0.82,20,400,1E-11,3.5,0.01,0.5,0.1,,,,,,,,,,,,,,,,,,,,,,,,,,,,,,,,,,,,,,,,,,,,,,,,,,,,,,,,,,,,,,,,,,,,,,,,,,,,,,,,,
,,,,,872718,001,2025-03-18_22h58.34.246,Utility_discrimination_2024_2cat,2024.2.4,MacIntel,60.24096386,,,,,,,,3,"[0.5,0.5]","[0.383,0.924]",d,"[0.5,0.7073433495282743]","[0.5,0.29265665047172573]",99.8293,101.4928,1,s,1,0.1335,,0.035692706,0.472493779,0.436801073,101.496,101.496,0,40,40,40,1,0.20734335,0.20734335,shape_difference4,1,,TRUE,,intensity,0.1,0.05,0.7,0.3,0.82,20,400,1E-11,3.5,0.01,0.5,0.1,,,,,,,,,,,,,,,,,,,,,,,,,,,,,,,,,,,,,,,,,,,,,,,,,,,,,,,,,,,,,,,,,,,,,,,,,,,,,,,,,
,,,,,872718,001,2025-03-18_22h58.34.246,Utility_discrimination_2024_2cat,2024.2.4,MacIntel,60.24096386,,,,,,,,2,"[0.5,0.5]","[0.707,0.707]",s,"[0.5864751864407394,0.7086242095854914]","[0.4135248135592606,0.29137579041450856]",101.497,103.4264,0,d,0,0.3983,,-0.275570276,0.202427142,0.477997418,103.429,103.429,0,41,41,41,1,0.225783777,0.225783777,shape_difference3,1,,TRUE,,intensity,0.1,0.05,0.7,0.3,0.82,20,400,1E-11,3.5,0.01,0.5,0.1,,,,,,,,,,,,,,,,,,,,,,,,,,,,,,,,,,,,,,,,,,,,,,,,,,,,,,,,,,,,,,,,,,,,,,,,,,,,,,,,,
,,,,,872718,001,2025-03-18_22h58.34.246,Utility_discrimination_2024_2cat,2024.2.4,MacIntel,60.24096386,,,,,,,,1,"[0.5,0.5]","[0.924,0.383]",s,"[0.45269527258758707,0.45269527258758707]","[0.547304727412413,0.547304727412413]",103.4302,105.2263,1,d,1,0.2662,,0.265521056,0.753468129,0.487947073,105.2288,105.2288,0,42,42,42,1,-0.066909091,-0.066909091,shape_difference2,1,,TRUE,,intensity,0.1,0.05,0.7,0.3,0.82,20,400,1E-11,3.5,0.01,0.5,0.1,,,,,,,,,,,,,,,,,,,,,,,,,,,,,,,,,,,,,,,,,,,,,,,,,,,,,,,,,,,,,,,,,,,,,,,,,,,,,,,,,
,,,,,872718,001,2025-03-18_22h58.34.246,Utility_discrimination_2024_2cat,2024.2.4,MacIntel,60.24096386,,,,,,,,0,"[0.5,0.5]","[1,0]",d,"[0.9453135780790566,0.6845834419959725]","[0.05468642192094342,0.31541655800402746]",105.2298,106.7753,1,s,1,0.0203,,0.35078619,0.774189429,0.423403239,106.7779,106.778,0,43,43,43,1,0.481941102,0.481941102,shape_difference1,1,,TRUE,,intensity,0.1,0.05,0.7,0.3,0.82,20,400,1E-11,3.5,0.01,0.5,0.1,,,,,,,,,,,,,,,,,,,,,,,,,,,,,,,,,,,,,,,,,,,,,,,,,,,,,,,,,,,,,,,,,,,,,,,,,,,,,,,,,
,,,,,872718,001,2025-03-18_22h58.34.246,Utility_discrimination_2024_2cat,2024.2.4,MacIntel,60.24096386,,,,,,,,1,"[0.5,0.5]","[0.924,0.383]",s,"[1.0474430926832157,0.5]","[-0.04744309268321556,0.5]",106.7789,108.5262,0,s,0,0.2289,,0.252083086,0.698714408,0.446631323,108.5291,108.5292,0,44,44,44,1,0.547443093,0.547443093,shape_difference0,1,,TRUE,,intensity,0.1,0.05,0.7,0.3,0.82,20,400,1E-11,3.5,0.01,0.5,0.1,,,,,,,,,,,,,,,,,,,,,,,,,,,,,,,,,,,,,,,,,,,,,,,,,,,,,,,,,,,,,,,,,,,,,,,,,,,,,,,,,
,,,,,872718,001,2025-03-18_22h58.34.246,Utility_discrimination_2024_2cat,2024.2.4,MacIntel,60.24096386,,,,,,,,0,"[0.5,0.5]","[1,0]",d,"[0.922508720623537,0.6751307792194963]","[0.0774912793764631,0.3248692207805037]",108.5302,110.1928,0,s,0,0.1444,,0.414049473,0.829350429,0.415300956,110.1948,110.1953,0,45,45,45,1,0.45726052,0.45726052,shape_difference1,1,,TRUE,,intensity,0.1,0.05,0.7,0.3,0.82,20,400,1E-11,3.5,0.01,0.5,0.1,,,,,,,,,,,,,,,,,,,,,,,,,,,,,,,,,,,,,,,,,,,,,,,,,,,,,,,,,,,,,,,,,,,,,,,,,,,,,,,,,
,,,,,872718,001,2025-03-18_22h58.34.246,Utility_discrimination_2024_2cat,2024.2.4,MacIntel,60.24096386,,,,,,,,4,"[0.5,0.5]","[0,1]",d,"[1.0941169970157518,0.5]","[-0.09411699701575171,0.5]",110.1962,112.0763,0,d,0,0.349,,0.011343888,0.407493809,0.396149921,112.0787,112.0788,0,46,46,46,1,0.594116997,0.594116997,shape_difference0,1,,TRUE,,intensity,0.1,0.05,0.7,0.3,0.82,20,400,1E-11,3.5,0.01,0.5,0.1,,,,,,,,,,,,,,,,,,,,,,,,,,,,,,,,,,,,,,,,,,,,,,,,,,,,,,,,,,,,,,,,,,,,,,,,,,,,,,,,,
,,,,,872718,001,2025-03-18_22h58.34.246,Utility_discrimination_2024_2cat,2024.2.4,MacIntel,60.24096386,,,,,,,,2,"[0.5,0.5]","[0.707,0.707]",s,"[0.5,0.6866248210448489]","[0.5,0.31337517895515105]",112.0799,113.7086,0,d,0,0.099,,-0.285725719,0.155920815,0.441646534,113.7115,113.7115,0,47,47,47,1,0.186624821,0.186624821,shape_difference4,1,,TRUE,,intensity,0.1,0.05,0.7,0.3,0.82,20,400,1E-11,3.5,0.01,0.5,0.1,,,,,,,,,,,,,,,,,,,,,,,,,,,,,,,,,,,,,,,,,,,,,,,,,,,,,,,,,,,,,,,,,,,,,,,,,,,,,,,,,
,,,,,872718,001,2025-03-18_22h58.34.246,Utility_discrimination_2024_2cat,2024.2.4,MacIntel,60.24096386,,,,,,,,3,"[0.5,0.5]","[0.383,0.924]",s,"[0.43456996201013043,0.43456996201013043]","[0.5654300379898696,0.5654300379898696]",113.7125,115.6262,1,s,1,0.3823,,0.108843793,0.555025395,0.446181602,115.6292,115.6292,0,48,48,48,1,-0.092546023,-0.092546023,shape_difference2,1,,TRUE,,intensity,0.1,0.05,0.7,0.3,0.82,20,400,1E-11,3.5,0.01,0.5,0.1,,,,,,,,,,,,,,,,,,,,,,,,,,,,,,,,,,,,,,,,,,,,,,,,,,,,,,,,,,,,,,,,,,,,,,,,,,,,,,,,,
,,,,,872718,001,2025-03-18_22h58.34.246,Utility_discrimination_2024_2cat,2024.2.4,MacIntel,60.24096386,,,,,,,,2,"[0.5,0.5]","[0.707,0.707]",s,"[0.6077962826969145,0.7600620501617468]","[0.39220371730308545,0.23993794983825317]",115.6302,117.3431,0,d,0,0.1849,,-0.293145897,0.096937823,0.39008372,117.3454,117.3454,0,49,49,49,1,0.281452435,0.281452435,shape_difference3,1,,TRUE,,intensity,0.1,0.05,0.7,0.3,0.82,20,400,1E-11,3.5,0.01,0.5,0.1,,,,,,,,,,,,,,,,,,,,,,,,,,,,,,,,,,,,,,,,,,,,,,,,,,,,,,,,,,,,,,,,,,,,,,,,,,,,,,,,,
,,,,,872718,001,2025-03-18_22h58.34.246,Utility_discrimination_2024_2cat,2024.2.4,MacIntel,60.24096386,,,,,,,,4,"[0.5,0.5]","[0,1]",s,"[0.42064338487264363,0.42064338487264363]","[0.5793566151273564,0.5793566151273564]",117.347,118.9596,0,s,0,0.0964,,0.094504131,0.506022103,0.411517972,118.9617,118.9618,0,50,50,50,1,-0.112244152,-0.112244152,shape_difference2,1,,TRUE,,intensity,0.1,0.05,0.7,0.3,0.82,20,400,1E-11,3.5,0.01,0.5,0.1,,,,,,,,,,,,,,,,,,,,,,,,,,,,,,,,,,,,,,,,,,,,,,,,,,,,,,,,,,,,,,,,,,,,,,,,,,,,,,,,,
,,,,,872718,001,2025-03-18_22h58.34.246,Utility_discrimination_2024_2cat,2024.2.4,MacIntel,60.24096386,,,,,,,,1,"[0.5,0.5]","[0.924,0.383]",d,"[0.5,0.7573956190429769]","[0.5,0.24260438095702308]",118.9627,120.5597,0,s,0,0.068,,0.347135772,0.80775802,0.460622248,120.5623,120.5623,0,51,51,51,1,0.257395619,0.257395619,shape_difference4,1,,TRUE,,intensity,0.1,0.05,0.7,0.3,0.82,20,400,1E-11,3.5,0.01,0.5,0.1,,,,,,,,,,,,,,,,,,,,,,,,,,,,,,,,,,,,,,,,,,,,,,,,,,,,,,,,,,,,,,,,,,,,,,,,,,,,,,,,,
,,,,,872718,001,2025-03-18_22h58.34.246,Utility_discrimination_2024_2cat,2024.2.4,MacIntel,60.24096386,,,,,,,,3,"[0.5,0.5]","[0.383,0.924]",d,"[1.0184187353918104,0.7148856879383803]","[-0.01841873539181038,0.28511431206161975]",120.5633,122.2421,1,s,1,0.1499,,0.169232999,0.661380474,0.492147475,122.2452,122.2452,0,52,52,52,1,0.561059237,0.561059237,shape_difference1,1,,TRUE,,intensity,0.1,0.05,0.7,0.3,0.82,20,400,1E-11,3.5,0.01,0.5,0.1,,,,,,,,,,,,,,,,,,,,,,,,,,,,,,,,,,,,,,,,,,,,,,,,,,,,,,,,,,,,,,,,,,,,,,,,,,,,,,,,,
,,,,,872718,001,2025-03-18_22h58.34.246,Utility_discrimination_2024_2cat,2024.2.4,MacIntel,60.24096386,,,,,,,,0,"[0.5,0.5]","[1,0]",s,"[0.642729472462804,0.8443395105891147]","[0.357270527537196,0.15566048941088534]",122.2462,123.8418,0,d,0,0.0765,,0.489732822,0.897862477,0.408129655,123.8442,123.8442,0,53,53,53,1,0.372661808,0.372661808,shape_difference3,1,,TRUE,,intensity,0.1,0.05,0.7,0.3,0.82,20,400,1E-11,3.5,0.01,0.5,0.1,,,,,,,,,,,,,,,,,,,,,,,,,,,,,,,,,,,,,,,,,,,,,,,,,,,,,,,,,,,,,,,,,,,,,,,,,,,,,,,,,
,,,,,872718,001,2025-03-18_22h58.34.246,Utility_discrimination_2024_2cat,2024.2.4,MacIntel,60.24096386,,,,,,,,1,"[0.5,0.5]","[0.924,0.383]",s,"[1.172016740105815,0.5]","[-0.1720167401058149,0.5]",123.8451,125.4762,1,s,1,0.101,,0.338327879,0.77212546,0.433797582,125.4782,125.4782,0,54,54,54,1,0.67201674,0.67201674,shape_difference0,1,,TRUE,,intensity,0.1,0.05,0.7,0.3,0.82,20,400,1E-11,3.5,0.01,0.5,0.1,,,,,,,,,,,,,,,,,,,,,,,,,,,,,,,,,,,,,,,,,,,,,,,,,,,,,,,,,,,,,,,,,,,,,,,,,,,,,,,,,
,,,,,872718,001,2025-03-18_22h58.34.246,Utility_discrimination_2024_2cat,2024.2.4,MacIntel,60.24096386,,,,,,,,3,"[0.5,0.5]","[0.383,0.924]",s,"[0.9966089756187195,0.7058454953051618]","[0.0033910243812805274,0.29415450469483817]",125.4797,127.3763,0,d,0,0.3663,,0.256015204,0.768326518,0.512311313,127.3783,127.3783,0,55,55,55,1,0.537455601,0.537455601,shape_difference1,1,,TRUE,,intensity,0.1,0.05,0.7,0.3,0.82,20,400,1E-11,3.5,0.01,0.5,0.1,,,,,,,,,,,,,,,,,,,,,,,,,,,,,,,,,,,,,,,,,,,,,,,,,,,,,,,,,,,,,,,,,,,,,,,,,,,,,,,,,
,,,,,872718,001,2025-03-18_22h58.34.246,Utility_discrimination_2024_2cat,2024.2.4,MacIntel,60.24096386,,,,,,,,2,"[0.5,0.5]","[0.707,0.707]",s,"[0.6858696700640932,0.9484166452721201]","[0.3141303299359069,0.05158335472787984]",127.3795,128.9253,1,s,1,0.0168,,-0.198978432,0.213756981,0.412735412,128.928,128.928,0,56,56,56,1,0.4852994,0.4852994,shape_difference3,1,,TRUE,,intensity,0.1,0.05,0.7,0.3,0.82,20,400,1E-11,3.5,0.01,0.5,0.1,,,,,,,,,,,,,,,,,,,,,,,,,,,,,,,,,,,,,,,,,,,,,,,,,,,,,,,,,,,,,,,,,,,,,,,,,,,,,,,,,
,,,,,872718,001,2025-03-18_22h58.34.246,Utility_discrimination_2024_2cat,2024.2.4,MacIntel,60.24096386,,,,,,,,4,"[0.5,0.5]","[0,1]",s,"[0.46716018655308944,0.46716018655308944]","[0.5328398134469106,0.5328398134469106]",128.929,130.743,0,s,0,0.2855,,0.146276719,0.637726824,0.491450105,130.7458,130.7459,0,57,57,57,1,-0.046449524,-0.046449524,shape_difference2,1,,TRUE,,intensity,0.1,0.05,0.7,0.3,0.82,20,400,1E-11,3.5,0.01,0.5,0.1,,,,,,,,,,,,,,,,,,,,,,,,,,,,,,,,,,,,,,,,,,,,,,,,,,,,,,,,,,,,,,,,,,,,,,,,,,,,,,,,,
,,,,,872718,001,2025-03-18_22h58.34.246,Utility_discrimination_2024_2cat,2024.2.4,MacIntel,60.24096386,,,,,,,,0,"[0.5,0.5]","[1,0]",d,"[0.5,0.8538816209888822]","[0.5,0.1461183790111178]",130.7468,132.4597,0,s,0,0.184,,0.473028687,0.870244015,0.397215328,132.4622,132.4622,0,58,58,58,1,0.353881621,0.353881621,shape_difference4,1,,TRUE,,intensity,0.1,0.05,0.7,0.3,0.82,20,400,1E-11,3.5,0.01,0.5,0.1,,,,,,,,,,,,,,,,,,,,,,,,,,,,,,,,,,,,,,,,,,,,,,,,,,,,,,,,,,,,,,,,,,,,,,,,,,,,,,,,,
,,,,,872718,001,2025-03-18_22h58.34.246,Utility_discrimination_2024_2cat,2024.2.4,MacIntel,60.24096386,,,,,,,,3,"[0.5,0.5]","[0.383,0.924]",d,"[1.1519501977644482,0.5]","[-0.15195019776444807,0.5]",132.4638,134.3252,1,s,1,0.3318,,0.2443346,0.717925815,0.473591215,134.3274,134.3275,0,59,59,59,1,0.651950198,0.651950198,shape_difference0,1,,TRUE,,intensity,0.1,0.05,0.7,0.3,0.82,20,400,1E-11,3.5,0.01,0.5,0.1,,,,,,,,,,,,,,,,,,,,,,,,,,,,,,,,,,,,,,,,,,,,,,,,,,,,,,,,,,,,,,,,,,,,,,,,,,,,,,,,,
,,,,,872718,001,2025-03-18_22h58.34.246,Utility_discrimination_2024_2cat,2024.2.4,MacIntel,60.24096386,,,,,,,,2,"[0.5,0.5]","[0.707,0.707]",s,"[0.6751883353329935,0.922647576625812]","[0.3248116646670065,0.07735242337418796]",134.3289,135.9919,1,d,1,0.1325,,-0.155587269,0.387646191,0.543233461,135.994,135.9941,0,60,60,60,1,0.457410797,0.457410797,shape_difference3,1,,TRUE,,intensity,0.1,0.05,0.7,0.3,0.82,20,400,1E-11,3.5,0.01,0.5,0.1,,,,,,,,,,,,,,,,,,,,,,,,,,,,,,,,,,,,,,,,,,,,,,,,,,,,,,,,,,,,,,,,,,,,,,,,,,,,,,,,,
,,,,,872718,001,2025-03-18_22h58.34.246,Utility_discrimination_2024_2cat,2024.2.4,MacIntel,60.24096386,,,,,,,,0,"[0.5,0.5]","[1,0]",d,"[0.5318750177503628,0.5318750177503628]","[0.4681249822496371,0.4681249822496371]",135.9951,138.0263,1,s,1,0.5019,,0.461059162,0.832119567,0.371060405,138.0288,138.0289,0,61,61,61,1,0.045084891,0.045084891,shape_difference2,1,,TRUE,,intensity,0.1,0.05,0.7,0.3,0.82,20,400,1E-11,3.5,0.01,0.5,0.1,,,,,,,,,,,,,,,,,,,,,,,,,,,,,,,,,,,,,,,,,,,,,,,,,,,,,,,,,,,,,,,,,,,,,,,,,,,,,,,,,
,,,,,872718,001,2025-03-18_22h58.34.246,Utility_discrimination_2024_2cat,2024.2.4,MacIntel,60.24096386,,,,,,,,1,"[0.5,0.5]","[0.924,0.383]",s,"[1.133839328048147,0.5]","[-0.1338393280481469,0.5]",138.03,139.8596,0,s,0,0.3002,,0.410553479,0.833161574,0.422608095,139.8617,139.8617,0,62,62,62,1,0.633839328,0.633839328,shape_difference0,1,,TRUE,,intensity,0.1,0.05,0.7,0.3,0.82,20,400,1E-11,3.5,0.01,0.5,0.1,,,,,,,,,,,,,,,,,,,,,,,,,,,,,,,,,,,,,,,,,,,,,,,,,,,,,,,,,,,,,,,,,,,,,,,,,,,,,,,,,
,,,,,872718,001,2025-03-18_22h58.34.246,Utility_discrimination_2024_2cat,2024.2.4,MacIntel,60.24096386,,,,,,,,4,"[0.5,0.5]","[0,1]",d,"[1.0461912595837726,0.7263974593296373]","[-0.04619125958377246,0.2736025406703627]",139.8626,143.142,0,s,0,1.7501,,0.244338866,0.759298179,0.514959313,143.1443,143.1443,0,63,63,63,1,0.591116082,0.591116082,shape_difference1,1,,TRUE,,intensity,0.1,0.05,0.7,0.3,0.82,20,400,1E-11,3.5,0.01,0.5,0.1,,,,,,,,,,,,,,,,,,,,,,,,,,,,,,,,,,,,,,,,,,,,,,,,,,,,,,,,,,,,,,,,,,,,,,,,,,,,,,,,,
,,,,,872718,001,2025-03-18_22h58.34.246,Utility_discrimination_2024_2cat,2024.2.4,MacIntel,60.24096386,,,,,,,,3,"[0.5,0.5]","[0.383,0.924]",d,"[0.5,0.9754278643804639]","[0.5,0.024572135619536084]",143.1453,145.3762,0,d,0,0.7018,,0.236275471,0.674752689,0.438477217,145.38,145.38,0,64,64,64,1,0.475427864,0.475427864,shape_difference4,1,,TRUE,,intensity,0.1,0.05,0.7,0.3,0.82,20,400,1E-11,3.5,0.01,0.5,0.1,,,,,,,,,,,,,,,,,,,,,,,,,,,,,,,,,,,,,,,,,,,,,,,,,,,,,,,,,,,,,,,,,,,,,,,,,,,,,,,,,
,,,,,872718,001,2025-03-18_22h58.34.246,Utility_discrimination_2024_2cat,2024.2.4,MacIntel,60.24096386,,,,,,,,2,"[0.5,0.5]","[0.707,0.707]",s,"[0.665845205974484,0.9001069721159878]","[0.33415479402551596,0.09989302788401228]",145.3812,147.4428,1,s,1,0.5326,,-0.166350969,0.32933212,0.495683089,147.4461,147.4462,0,65,65,65,1,0.433016204,0.433016204,shape_difference3,1,,TRUE,,intensity,0.1,0.05,0.7,0.3,0.82,20,400,1E-11,3.5,0.01,0.5,0.1,,,,,,,,,,,,,,,,,,,,,,,,,,,,,,,,,,,,,,,,,,,,,,,,,,,,,,,,,,,,,,,,,,,,,,,,,,,,,,,,,
,,,,,872718,001,2025-03-18_22h58.34.246,Utility_discrimination_2024_2cat,2024.2.4,MacIntel,60.24096386,,,,,,,,0,"[0.5,0.5]","[1,0]",s,"[0.5107217063876616,0.5107217063876616]","[0.48927829361233843,0.48927829361233843]",147.4473,149.2763,1,s,1,0.2991,,0.512372367,0.884104327,0.37173196,149.2791,149.2792,0,66,66,66,1,0.015165073,0.015165073,shape_difference2,1,,TRUE,,intensity,0.1,0.05,0.7,0.3,0.82,20,400,1E-11,3.5,0.01,0.5,0.1,,,,,,,,,,,,,,,,,,,,,,,,,,,,,,,,,,,,,,,,,,,,,,,,,,,,,,,,,,,,,,,,,,,,,,,,,,,,,,,,,
,,,,,872718,001,2025-03-18_22h58.34.246,Utility_discrimination_2024_2cat,2024.2.4,MacIntel,60.24096386,,,,,,,,1,"[0.5,0.5]","[0.924,0.383]",s,"[1.1762838857188185,0.5]","[-0.1762838857188186,0.5]",149.2802,150.9098,1,s,1,0.1131,,0.480967973,0.904108915,0.423140943,150.9119,150.9119,0,67,67,67,1,0.676283886,0.676283886,shape_difference0,1,,TRUE,,intensity,0.1,0.05,0.7,0.3,0.82,20,400,1E-11,3.5,0.01,0.5,0.1,,,,,,,,,,,,,,,,,,,,,,,,,,,,,,,,,,,,,,,,,,,,,,,,,,,,,,,,,,,,,,,,,,,,,,,,,,,,,,,,,
,,,,,872718,001,2025-03-18_22h58.34.246,Utility_discrimination_2024_2cat,2024.2.4,MacIntel,60.24096386,,,,,,,,4,"[0.5,0.5]","[0,1]",s,"[1.1227470320777386,0.7581299927335217]","[-0.12274703207773874,0.2418700072664784]",150.9128,152.4422,1,s,1,0.0003,,0.359515652,0.858587369,0.499071717,152.4443,152.4444,0,68,68,68,1,0.673968649,0.673968649,shape_difference1,1,,TRUE,,intensity,0.1,0.05,0.7,0.3,0.82,20,400,1E-11,3.5,0.01,0.5,0.1,,,,,,,,,,,,,,,,,,,,,,,,,,,,,,,,,,,,,,,,,,,,,,,,,,,,,,,,,,,,,,,,,,,,,,,,,,,,,,,,,
,,,,,872718,001,2025-03-18_22h58.34.246,Utility_discrimination_2024_2cat,2024.2.4,MacIntel,60.24096386,,,,,,,,1,"[0.5,0.5]","[0.924,0.383]",s,"[0.5,1.091821529223452]","[0.5,-0.0918215292234521]",152.4454,154.1763,1,s,1,0.2036,,0.465681282,0.874927084,0.409245802,154.1783,154.1784,0,69,69,69,1,0.591821529,0.591821529,shape_difference4,1,,TRUE,,intensity,0.1,0.05,0.7,0.3,0.82,20,400,1E-11,3.5,0.01,0.5,0.1,,,,,,,,,,,,,,,,,,,,,,,,,,,,,,,,,,,,,,,,,,,,,,,,,,,,,,,,,,,,,,,,,,,,,,,,,,,,,,,,,
,,,,,872718,001,2025-03-18_22h58.34.246,Utility_discrimination_2024_2cat,2024.2.4,MacIntel,60.24096386,,,,,,,,0,"[0.5,0.5]","[1,0]",s,"[1.1032710662518346,0.7500571627429141]","[-0.10327106625183458,0.24994283725708588]",154.1794,155.893,1,s,1,0.1815,,0.509286768,0.856006296,0.346719527,155.8956,155.8956,0,70,70,70,1,0.652890764,0.652890764,shape_difference1,1,,TRUE,,intensity,0.1,0.05,0.7,0.3,0.82,20,400,1E-11,3.5,0.01,0.5,0.1,,,,,,,,,,,,,,,,,,,,,,,,,,,,,,,,,,,,,,,,,,,,,,,,,,,,,,,,,,,,,,,,,,,,,,,,,,,,,,,,,
,,,,,872718,001,2025-03-18_22h58.34.246,Utility_discrimination_2024_2cat,2024.2.4,MacIntel,60.24096386,,,,,,,,4,"[0.5,0.5]","[0,1]",s,"[1.161395259414097,0.5]","[-0.16139525941409694,0.5]",155.8967,157.893,0,s,0,0.4665,,0.346367306,0.809490413,0.463123107,157.8955,157.8956,0,71,71,71,1,0.661395259,0.661395259,shape_difference0,1,,TRUE,,intensity,0.1,0.05,0.7,0.3,0.82,20,400,1E-11,3.5,0.01,0.5,0.1,,,,,,,,,,,,,,,,,,,,,,,,,,,,,,,,,,,,,,,,,,,,,,,,,,,,,,,,,,,,,,,,,,,,,,,,,,,,,,,,,
,,,,,872718,001,2025-03-18_22h58.34.246,Utility_discrimination_2024_2cat,2024.2.4,MacIntel,60.24096386,,,,,,,,2,"[0.5,0.5]","[0.707,0.707]",d,"[0.5,1.0649142380976897]","[0.5,-0.0649142380976897]",157.8966,159.6926,1,s,1,0.2671,,-0.173770464,0.268771998,0.442542463,159.6951,159.6951,0,72,72,72,1,0.564914238,0.564914238,shape_difference4,1,,TRUE,,intensity,0.1,0.05,0.7,0.3,0.82,20,400,1E-11,3.5,0.01,0.5,0.1,,,,,,,,,,,,,,,,,,,,,,,,,,,,,,,,,,,,,,,,,,,,,,,,,,,,,,,,,,,,,,,,,,,,,,,,,,,,,,,,,
,,,,,872718,001,2025-03-18_22h58.34.246,Utility_discrimination_2024_2cat,2024.2.4,MacIntel,60.24096386,,,,,,,,3,"[0.5,0.5]","[0.383,0.924]",s,"[0.4939907567057585,0.4939907567057585]","[0.5060092432942415,0.5060092432942415]",159.6962,161.3265,1,s,1,0.0995,,0.227572772,0.637674551,0.410101779,161.3291,161.3292,0,73,73,73,1,-0.008499637,-0.008499637,shape_difference2,1,,TRUE,,intensity,0.1,0.05,0.7,0.3,0.82,20,400,1E-11,3.5,0.01,0.5,0.1,,,,,,,,,,,,,,,,,,,,,,,,,,,,,,,,,,,,,,,,,,,,,,,,,,,,,,,,,,,,,,,,,,,,,,,,,,,,,,,,,
,,,,,872718,001,2025-03-18_22h58.34.246,Utility_discrimination_2024_2cat,2024.2.4,MacIntel,60.24096386,,,,,,,,0,"[0.5,0.5]","[1,0]",s,"[0.6559313339530011,0.8761894323043682]","[0.3440686660469989,0.12381056769563181]",161.3302,163.0596,0,s,0,0.1991,,0.551689132,0.935091558,0.383402425,163.0618,163.0618,0,74,74,74,1,0.40713142,0.40713142,shape_difference3,1,,TRUE,,intensity,0.1,0.05,0.7,0.3,0.82,20,400,1E-11,3.5,0.01,0.5,0.1,,,,,,,,,,,,,,,,,,,,,,,,,,,,,,,,,,,,,,,,,,,,,,,,,,,,,,,,,,,,,,,,,,,,,,,,,,,,,,,,,
,,,,,872718,001,2025-03-18_22h58.34.246,Utility_discrimination_2024_2cat,2024.2.4,MacIntel,60.24096386,,,,,,,,1,"[0.5,0.5]","[0.924,0.383]",d,"[1.2292139430860316,0.5]","[-0.2292139430860317,0.5]",163.0627,164.5929,0,s,0,0.0005,,0.454782687,0.838229095,0.383446408,164.5954,164.5955,0,75,75,75,1,0.729213943,0.729213943,shape_difference0,1,,TRUE,,intensity,0.1,0.05,0.7,0.3,0.82,20,400,1E-11,3.5,0.01,0.5,0.1,,,,,,,,,,,,,,,,,,,,,,,,,,,,,,,,,,,,,,,,,,,,,,,,,,,,,,,,,,,,,,,,,,,,,,,,,,,,,,,,,
,,,,,872718,001,2025-03-18_22h58.34.246,Utility_discrimination_2024_2cat,2024.2.4,MacIntel,60.24096386,,,,,,,,3,"[0.5,0.5]","[0.383,0.924]",d,"[1.0857584294806877,0.7427981368951335]","[-0.08575842948068768,0.2572018631048665]",164.5967,166.2256,0,d,0,0.1,,0.304512407,0.705177113,0.400664706,166.229,166.229,0,76,76,76,1,0.633937694,0.633937694,shape_difference1,1,,TRUE,,intensity,0.1,0.05,0.7,0.3,0.82,20,400,1E-11,3.5,0.01,0.5,0.1,,,,,,,,,,,,,,,,,,,,,,,,,,,,,,,,,,,,,,,,,,,,,,,,,,,,,,,,,,,,,,,,,,,,,,,,,,,,,,,,,
,,,,,872718,001,2025-03-18_22h58.34.246,Utility_discrimination_2024_2cat,2024.2.4,MacIntel,60.24096386,,,,,,,,4,"[0.5,0.5]","[0,1]",s,"[0.6803763617130243,0.9351638595896459]","[0.31962363828697576,0.06483614041035407]",166.23,167.793,0,d,0,0.0325,,0.337284562,0.774022326,0.436737764,167.7957,167.7957,0,77,77,77,1,0.470956558,0.470956558,shape_difference3,1,,TRUE,,intensity,0.1,0.05,0.7,0.3,0.82,20,400,1E-11,3.5,0.01,0.5,0.1,,,,,,,,,,,,,,,,,,,,,,,,,,,,,,,,,,,,,,,,,,,,,,,,,,,,,,,,,,,,,,,,,,,,,,,,,,,,,,,,,
,,,,,872718,001,2025-03-18_22h58.34.246,Utility_discrimination_2024_2cat,2024.2.4,MacIntel,60.24096386,,,,,,,,2,"[0.5,0.5]","[0.707,0.707]",s,"[0.5,1.0415441058587007]","[0.5,-0.04154410585870072]",167.7966,169.542,0,d,0,0.2198,,-0.17903389,0.200640323,0.379674213,169.5443,169.5443,0,78,78,78,1,0.541544106,0.541544106,shape_difference4,1,,TRUE,,intensity,0.1,0.05,0.7,0.3,0.82,20,400,1E-11,3.5,0.01,0.5,0.1,,,,,,,,,,,,,,,,,,,,,,,,,,,,,,,,,,,,,,,,,,,,,,,,,,,,,,,,,,,,,,,,,,,,,,,,,,,,,,,,,
,,,,,872718,001,2025-03-18_22h58.34.246,Utility_discrimination_2024_2cat,2024.2.4,MacIntel,60.24096386,,,,,,,,1,"[0.5,0.5]","[0.924,0.383]",s,"[0.48427971393007346,0.48427971393007346]","[0.5157202860699266,0.5157202860699266]",169.5453,171.3096,1,s,1,0.2371,,0.511882658,0.888307864,0.376425206,171.3118,171.3118,0,79,79,79,1,-0.0222352,-0.0222352,shape_difference2,1,,TRUE,,intensity,0.1,0.05,0.7,0.3,0.82,20,400,1E-11,3.5,0.01,0.5,0.1,,,,,,,,,,,,,,,,,,,,,,,,,,,,,,,,,,,,,,,,,,,,,,,,,,,,,,,,,,,,,,,,,,,,,,,,,,,,,,,,,
,,,,,872718,001,2025-03-18_22h58.34.246,Utility_discrimination_2024_2cat,2024.2.4,MacIntel,60.24096386,,,,,,,,4,"[0.5,0.5]","[0,1]",s,"[1.1267820712731513,0.7598025252138711]","[-0.12678207127315122,0.24019747478612885]",171.3128,173.2763,0,s,0,0.4331,,0.411274077,0.833735669,0.422461592,173.2787,173.2787,0,80,80,80,1,0.678335575,0.678335575,shape_difference1,1,,TRUE,,intensity,0.1,0.05,0.7,0.3,0.82,20,400,1E-11,3.5,0.01,0.5,0.1,,,,,,,,,,,,,,,,,,,,,,,,,,,,,,,,,,,,,,,,,,,,,,,,,,,,,,,,,,,,,,,,,,,,,,,,,,,,,,,,,
,,,,,872718,001,2025-03-18_22h58.34.246,Utility_discrimination_2024_2cat,2024.2.4,MacIntel,60.24096386,,,,,,,,3,"[0.5,0.5]","[0.383,0.924]",d,"[0.5,1.0940388886138634]","[0.5,-0.09403888861386345]",173.2796,174.9432,0,s,0,0.1311,,0.357236385,0.800160649,0.442924264,174.9455,174.9455,0,81,81,81,1,0.594038889,0.594038889,shape_difference4,1,,TRUE,,intensity,0.1,0.05,0.7,0.3,0.82,20,400,1E-11,3.5,0.01,0.5,0.1,,,,,,,,,,,,,,,,,,,,,,,,,,,,,,,,,,,,,,,,,,,,,,,,,,,,,,,,,,,,,,,,,,,,,,,,,,,,,,,,,
,,,,,872718,001,2025-03-18_22h58.34.246,Utility_discrimination_2024_2cat,2024.2.4,MacIntel,60.24096386,,,,,,,,0,"[0.5,0.5]","[1,0]",d,"[0.7144542843360375,1.0173779601214066]","[0.2855457156639625,-0.017377960121406466]",174.9464,176.6762,1,s,1,0.1991,,0.610782633,0.986353101,0.375570467,176.6781,176.6781,0,82,82,82,1,0.559932857,0.559932857,shape_difference3,1,,TRUE,,intensity,0.1,0.05,0.7,0.3,0.82,20,400,1E-11,3.5,0.01,0.5,0.1,,,,,,,,,,,,,,,,,,,,,,,,,,,,,,,,,,,,,,,,,,,,,,,,,,,,,,,,,,,,,,,,,,,,,,,,,,,,,,,,,
,,,,,872718,001,2025-03-18_22h58.34.246,Utility_discrimination_2024_2cat,2024.2.4,MacIntel,60.24096386,,,,,,,,2,"[0.5,0.5]","[0.707,0.707]",s,"[1.2765709697888568,0.5]","[-0.27657096978885687,0.5]",176.6789,178.4597,1,d,1,0.25,,-0.182875887,0.163235156,0.346111043,178.462,178.4621,0,83,83,83,1,0.77657097,0.77657097,shape_difference0,1,,TRUE,,intensity,0.1,0.05,0.7,0.3,0.82,20,400,1E-11,3.5,0.01,0.5,0.1,,,,,,,,,,,,,,,,,,,,,,,,,,,,,,,,,,,,,,,,,,,,,,,,,,,,,,,,,,,,,,,,,,,,,,,,,,,,,,,,,
,,,,,872718,001,2025-03-18_22h58.34.246,Utility_discrimination_2024_2cat,2024.2.4,MacIntel,60.24096386,,,,,,,,1,"[0.5,0.5]","[0.924,0.383]",d,"[0.4763006697039007,0.4763006697039007]","[0.5236993302960993,0.5236993302960993]",178.4633,180.2761,0,s,0,0.2946,,0.56953347,0.970225552,0.400692082,180.2783,180.2783,0,84,84,84,1,-0.033520976,-0.033520976,shape_difference2,1,,TRUE,,intensity,0.1,0.05,0.7,0.3,0.82,20,400,1E-11,3.5,0.01,0.5,0.1,,,,,,,,,,,,,,,,,,,,,,,,,,,,,,,,,,,,,,,,,,,,,,,,,,,,,,,,,,,,,,,,,,,,,,,,,,,,,,,,,
,,,,,872718,001,2025-03-18_22h58.34.246,Utility_discrimination_2024_2cat,2024.2.4,MacIntel,60.24096386,,,,,,,,2,"[0.5,0.5]","[0.707,0.707]",d,"[1.1956161879467806,0.7883344155666852]","[-0.1956161879467807,0.2116655844333149]",180.2793,181.9088,1,s,1,0.0994,,-0.13103851,0.283508571,0.414547081,181.9111,181.9111,0,85,85,85,1,0.752831372,0.752831372,shape_difference1,1,,TRUE,,intensity,0.1,0.05,0.7,0.3,0.82,20,400,1E-11,3.5,0.01,0.5,0.1,,,,,,,,,,,,,,,,,,,,,,,,,,,,,,,,,,,,,,,,,,,,,,,,,,,,,,,,,,,,,,,,,,,,,,,,,,,,,,,,,
,,,,,872718,001,2025-03-18_22h58.34.246,Utility_discrimination_2024_2cat,2024.2.4,MacIntel,60.24096386,,,,,,,,0,"[0.5,0.5]","[1,0]",s,"[0.512917314871092,0.512917314871092]","[0.48708268512890796,0.48708268512890796]",181.9123,183.6929,1,d,1,0.2493,,0.607754658,0.959607275,0.351852618,183.6951,183.6951,0,86,86,86,1,0.018270601,0.018270601,shape_difference2,1,,TRUE,,intensity,0.1,0.05,0.7,0.3,0.82,20,400,1E-11,3.5,0.01,0.5,0.1,,,,,,,,,,,,,,,,,,,,,,,,,,,,,,,,,,,,,,,,,,,,,,,,,,,,,,,,,,,,,,,,,,,,,,,,,,,,,,,,,
,,,,,872718,001,2025-03-18_22h58.34.246,Utility_discrimination_2024_2cat,2024.2.4,MacIntel,60.24096386,,,,,,,,3,"[0.5,0.5]","[0.383,0.924]",d,"[1.2604815898774278,0.5]","[-0.26048158987742775,0.5]",183.6962,185.6428,0,d,0,0.4295,,0.34715301,0.768098767,0.420945757,185.6446,185.6446,0,87,87,87,1,0.76048159,0.76048159,shape_difference0,1,,TRUE,,intensity,0.1,0.05,0.7,0.3,0.82,20,400,1E-11,3.5,0.01,0.5,0.1,,,,,,,,,,,,,,,,,,,,,,,,,,,,,,,,,,,,,,,,,,,,,,,,,,,,,,,,,,,,,,,,,,,,,,,,,,,,,,,,,
,,,,,872718,001,2025-03-18_22h58.34.246,Utility_discrimination_2024_2cat,2024.2.4,MacIntel,60.24096386,,,,,,,,4,"[0.5,0.5]","[0,1]",s,"[0.7058693461537842,0.9966665165694428]","[0.29413065384621584,0.003333483430557227]",185.6456,187.3762,1,s,1,0.2,,0.486686961,0.901600644,0.414913683,187.3782,187.3783,0,88,88,88,1,0.537517875,0.537517875,shape_difference3,1,,TRUE,,intensity,0.1,0.05,0.7,0.3,0.82,20,400,1E-11,3.5,0.01,0.5,0.1,,,,,,,,,,,,,,,,,,,,,,,,,,,,,,,,,,,,,,,,,,,,,,,,,,,,,,,,,,,,,,,,,,,,,,,,,,,,,,,,,
,,,,,872718,001,2025-03-18_22h58.34.246,Utility_discrimination_2024_2cat,2024.2.4,MacIntel,60.24096386,,,,,,,,1,"[0.5,0.5]","[0.924,0.383]",s,"[0.5,1.1745471946341484]","[0.5,-0.17454719463414825]",187.3792,188.9591,1,s,1,0.0499,,0.558106145,0.933877981,0.375771836,188.9611,188.9612,0,89,89,89,1,0.674547195,0.674547195,shape_difference4,1,,TRUE,,intensity,0.1,0.05,0.7,0.3,0.82,20,400,1E-11,3.5,0.01,0.5,0.1,,,,,,,,,,,,,,,,,,,,,,,,,,,,,,,,,,,,,,,,,,,,,,,,,,,,,,,,,,,,,,,,,,,,,,,,,,,,,,,,,
,,,,,872718,001,2025-03-18_22h58.34.246,Utility_discrimination_2024_2cat,2024.2.4,MacIntel,60.24096386,,,,,,,,2,"[0.5,0.5]","[0.707,0.707]",s,"[1.1783933129910333,0.7811954966185777]","[-0.17839331299103334,0.21880450338142232]",188.9621,190.8425,0,s,0,0.361,,-0.145839492,0.23115374,0.376993232,190.8436,190.8437,0,90,90,90,1,0.734191897,0.734191897,shape_difference1,1,,TRUE,,intensity,0.1,0.05,0.7,0.3,0.82,20,400,1E-11,3.5,0.01,0.5,0.1,,,,,,,,,,,,,,,,,,,,,,,,,,,,,,,,,,,,,,,,,,,,,,,,,,,,,,,,,,,,,,,,,,,,,,,,,,,,,,,,,
,,,,,872718,001,2025-03-18_22h58.34.246,Utility_discrimination_2024_2cat,2024.2.4,MacIntel,60.24096386,,,,,,,,0,"[0.5,0.5]","[1,0]",d,"[0.4978061709031361,0.4978061709031361]","[0.5021938290968639,0.5021938290968639]",190.8442,192.4918,0,d,0,0.1159,,0.649459512,1.037952826,0.388493314,192.4936,192.4937,0,91,91,91,1,-0.003103011,-0.003103011,shape_difference2,1,,TRUE,,intensity,0.1,0.05,0.7,0.3,0.82,20,400,1E-11,3.5,0.01,0.5,0.1,,,,,,,,,,,,,,,,,,,,,,,,,,,,,,,,,,,,,,,,,,,,,,,,,,,,,,,,,,,,,,,,,,,,,,,,,,,,,,,,,
,,,,,872718,001,2025-03-18_22h58.34.246,Utility_discrimination_2024_2cat,2024.2.4,MacIntel,60.24096386,,,,,,,,4,"[0.5,0.5]","[0,1]",s,"[1.333018636216825,0.5]","[-0.3330186362168249,0.5]",192.4946,194.2094,0,d,0,0.1936,,0.470255814,0.873973275,0.403717461,194.2111,194.2112,0,92,92,92,1,0.833018636,0.833018636,shape_difference0,1,,TRUE,,intensity,0.1,0.05,0.7,0.3,0.82,20,400,1E-11,3.5,0.01,0.5,0.1,,,,,,,,,,,,,,,,,,,,,,,,,,,,,,,,,,,,,,,,,,,,,,,,,,,,,,,,,,,,,,,,,,,,,,,,,,,,,,,,,
,,,,,872718,001,2025-03-18_22h58.34.246,Utility_discrimination_2024_2cat,2024.2.4,MacIntel,60.24096386,,,,,,,,3,"[0.5,0.5]","[0.383,0.924]",s,"[0.5,1.1540107278042613]","[0.5,-0.15401072780426117]",194.212,195.8263,0,s,0,0.0828,,0.336242597,0.732663805,0.396421208,195.8283,195.8283,0,93,93,93,1,0.654010728,0.654010728,shape_difference4,1,,TRUE,,intensity,0.1,0.05,0.7,0.3,0.82,20,400,1E-11,3.5,0.01,0.5,0.1,,,,,,,,,,,,,,,,,,,,,,,,,,,,,,,,,,,,,,,,,,,,,,,,,,,,,,,,,,,,,,,,,,,,,,,,,,,,,,,,,
,,,,,872718,001,2025-03-18_22h58.34.246,Utility_discrimination_2024_2cat,2024.2.4,MacIntel,60.24096386,,,,,,,,3,"[0.5,0.5]","[0.383,0.924]",d,"[0.6969644878526923,0.9751832552895239]","[0.30303551214730773,0.02481674471047607]",195.8292,197.6262,1,s,1,0.2766,,0.328521719,0.693735374,0.365213656,197.6282,197.6282,0,94,94,94,1,0.514267592,0.514267592,shape_difference3,1,,TRUE,,intensity,0.1,0.05,0.7,0.3,0.82,20,400,1E-11,3.5,0.01,0.5,0.1,,,,,,,,,,,,,,,,,,,,,,,,,,,,,,,,,,,,,,,,,,,,,,,,,,,,,,,,,,,,,,,,,,,,,,,,,,,,,,,,,
,,,,,872718,001,2025-03-18_22h58.34.246,Utility_discrimination_2024_2cat,2024.2.4,MacIntel,60.24096386,,,,,,,,1,"[0.5,0.5]","[0.924,0.383]",s,"[0.68899762483452,0.9559629382430717]","[0.31100237516548,0.04403706175692834]",197.6292,199.2264,0,d,0,0.066,,0.612156383,0.983706045,0.371549662,199.2286,199.2286,0,95,95,95,1,0.493466383,0.493466383,shape_difference3,1,,TRUE,,intensity,0.1,0.05,0.7,0.3,0.82,20,400,1E-11,3.5,0.01,0.5,0.1,,,,,,,,,,,,,,,,,,,,,,,,,,,,,,,,,,,,,,,,,,,,,,,,,,,,,,,,,,,,,,,,,,,,,,,,,,,,,,,,,
,,,,,872718,001,2025-03-18_22h58.34.246,Utility_discrimination_2024_2cat,2024.2.4,MacIntel,60.24096386,,,,,,,,0,"[0.5,0.5]","[1,0]",s,"[1.218744385085763,0.7979211033418261]","[-0.2187443850857631,0.20207889665817397]",199.2295,200.8594,1,s,1,0.1013,,0.71109554,1.085614514,0.374518973,200.8613,200.8613,0,96,96,96,1,0.777861889,0.777861889,shape_difference1,1,,TRUE,,intensity,0.1,0.05,0.7,0.3,0.82,20,400,1E-11,3.5,0.01,0.5,0.1,,,,,,,,,,,,,,,,,,,,,,,,,,,,,,,,,,,,,,,,,,,,,,,,,,,,,,,,,,,,,,,,,,,,,,,,,,,,,,,,,
,,,,,872718,001,2025-03-18_22h58.34.246,Utility_discrimination_2024_2cat,2024.2.4,MacIntel,60.24096386,,,,,,,,4,"[0.5,0.5]","[0,1]",s,"[1.3802357675399093,0.5]","[-0.3802357675399094,0.5]",200.8623,202.7763,0,s,0,0.3871,,0.544265132,0.968082154,0.423817021,202.7793,202.7794,0,97,97,97,1,0.880235768,0.880235768,shape_difference0,1,,TRUE,,intensity,0.1,0.05,0.7,0.3,0.82,20,400,1E-11,3.5,0.01,0.5,0.1,,,,,,,,,,,,,,,,,,,,,,,,,,,,,,,,,,,,,,,,,,,,,,,,,,,,,,,,,,,,,,,,,,,,,,,,,,,,,,,,,
,,,,,872718,001,2025-03-18_22h58.34.246,Utility_discrimination_2024_2cat,2024.2.4,MacIntel,60.24096386,,,,,,,,2,"[0.5,0.5]","[0.707,0.707]",d,"[0.5,1.2445359630766477]","[0.5,-0.2445359630766476]",202.7807,204.5596,1,s,1,0.2603,,-0.092344929,0.339372937,0.431717867,204.5616,204.5617,0,98,98,98,1,0.744535963,0.744535963,shape_difference4,1,,TRUE,,intensity,0.1,0.05,0.7,0.3,0.82,20,400,1E-11,3.5,0.01,0.5,0.1,,,,,,,,,,,,,,,,,,,,,,,,,,,,,,,,,,,,,,,,,,,,,,,,,,,,,,,,,,,,,,,,,,,,,,,,,,,,,,,,,
,,,,,872718,001,2025-03-18_22h58.34.246,Utility_discrimination_2024_2cat,2024.2.4,MacIntel,60.24096386,,,,,,,,4,"[0.5,0.5]","[0,1]",s,"[0.5377328289821882,0.5377328289821882]","[0.46226717101781173,0.46226717101781173]",204.5628,206.343,1,s,1,0.2488,,0.533437746,0.937112393,0.403674647,206.3455,206.3456,0,99,99,99,1,0.053370338,0.053370338,shape_difference2,1,,TRUE,,intensity,0.1,0.05,0.7,0.3,0.82,20,400,1E-11,3.5,0.01,0.5,0.1,,,,,,,,,,,,,,,,,,,,,,,,,,,,,,,,,,,,,,,,,,,,,,,,,,,,,,,,,,,,,,,,,,,,,,,,,,,,,,,,,
,,,,,872718,001,2025-03-18_22h58.34.246,Utility_discrimination_2024_2cat,2024.2.4,MacIntel,60.24096386,,,,,,,,2,"[0.5,0.5]","[0.707,0.707]",s,"[0.5,1.221441954828535]","[0.5,-0.2214419548285349]",206.3473,208.21,1,s,1,0.3468,,-0.094270559,0.273227777,0.367498336,208.2122,208.2123,0,100,100,100,1,0.721441955,0.721441955,shape_difference4,1,,TRUE,,intensity,0.1,0.05,0.7,0.3,0.82,20,400,1E-11,3.5,0.01,0.5,0.1,,,,,,,,,,,,,,,,,,,,,,,,,,,,,,,,,,,,,,,,,,,,,,,,,,,,,,,,,,,,,,,,,,,,,,,,,,,,,,,,,
,,,,,872718,001,2025-03-18_22h58.34.246,Utility_discrimination_2024_2cat,2024.2.4,MacIntel,60.24096386,,,,,,,,1,"[0.5,0.5]","[0.924,0.383]",s,"[0.5250220421974413,0.5250220421974413]","[0.47497795780255875,0.47497795780255875]",208.2132,209.8928,0,s,0,0.1605,,0.609004279,0.957054935,0.348050656,209.8948,209.8949,0,101,101,101,1,0.035391856,0.035391856,shape_difference2,1,,TRUE,,intensity,0.1,0.05,0.7,0.3,0.82,20,400,1E-11,3.5,0.01,0.5,0.1,,,,,,,,,,,,,,,,,,,,,,,,,,,,,,,,,,,,,,,,,,,,,,,,,,,,,,,,,,,,,,,,,,,,,,,,,,,,,,,,,
,,,,,872718,001,2025-03-18_22h58.34.246,Utility_discrimination_2024_2cat,2024.2.4,MacIntel,60.24096386,,,,,,,,0,"[0.5,0.5]","[1,0]",d,"[1.2045813374431036,0.7920504894379964]","[-0.20458133744310358,0.20794951056200361]",209.8959,211.4262,0,d,0,0.0004,,0.769836336,1.159715072,0.389878737,211.4283,211.4284,0,102,102,102,1,0.762533915,0.762533915,shape_difference1,1,,TRUE,,intensity,0.1,0.05,0.7,0.3,0.82,20,400,1E-11,3.5,0.01,0.5,0.1,,,,,,,,,,,,,,,,,,,,,,,,,,,,,,,,,,,,,,,,,,,,,,,,,,,,,,,,,,,,,,,,,,,,,,,,,,,,,,,,,
,,,,,872718,001,2025-03-18_22h58.34.246,Utility_discrimination_2024_2cat,2024.2.4,MacIntel,60.24096386,,,,,,,,3,"[0.5,0.5]","[0.383,0.924]",s,"[1.45481476384946,0.5]","[-0.45481476384945985,0.5]",211.4294,213.1764,0,d,0,0.2287,,0.403115197,0.771991289,0.368876092,213.1785,213.1785,0,103,103,103,1,0.954814764,0.954814764,shape_difference0,1,,TRUE,,intensity,0.1,0.05,0.7,0.3,0.82,20,400,1E-11,3.5,0.01,0.5,0.1,,,,,,,,,,,,,,,,,,,,,,,,,,,,,,,,,,,,,,,,,,,,,,,,,,,,,,,,,,,,,,,,,,,,,,,,,,,,,,,,,
,,,,,872718,001,2025-03-18_22h58.34.246,Utility_discrimination_2024_2cat,2024.2.4,MacIntel,60.24096386,,,,,,,,4,"[0.5,0.5]","[0,1]",s,"[0.7122531396654193,1.0120676267646145]","[0.28774686033458075,-0.012067626764614592]",213.1802,214.8598,1,d,1,0.1508,,0.525812057,0.89737421,0.371562153,214.8629,214.8629,0,104,104,104,1,0.554185743,0.554185743,shape_difference3,1,,TRUE,,intensity,0.1,0.05,0.7,0.3,0.82,20,400,1E-11,3.5,0.01,0.5,0.1,,,,,,,,,,,,,,,,,,,,,,,,,,,,,,,,,,,,,,,,,,,,,,,,,,,,,,,,,,,,,,,,,,,,,,,,,,,,,,,,,
,,,,,872718,001,2025-03-18_22h58.34.246,Utility_discrimination_2024_2cat,2024.2.4,MacIntel,60.24096386,,,,,,,,3,"[0.5,0.5]","[0.383,0.924]",d,"[0.5,1.1973853518184285]","[0.5,-0.19738535181842853]",214.8639,216.5595,0,d,0,0.1771,,0.400869173,0.732861908,0.331992735,216.5615,216.5616,0,105,105,105,1,0.697385352,0.697385352,shape_difference4,1,,TRUE,,intensity,0.1,0.05,0.7,0.3,0.82,20,400,1E-11,3.5,0.01,0.5,0.1,,,,,,,,,,,,,,,,,,,,,,,,,,,,,,,,,,,,,,,,,,,,,,,,,,,,,,,,,,,,,,,,,,,,,,,,,,,,,,,,,
,,,,,872718,001,2025-03-18_22h58.34.246,Utility_discrimination_2024_2cat,2024.2.4,MacIntel,60.24096386,,,,,,,,2,"[0.5,0.5]","[0.707,0.707]",s,"[0.7059289638347793,0.9968103461705904]","[0.2940710361652207,0.003189653829409611]",216.5627,218.3599,0,s,0,0.2791,,-0.084622511,0.361402206,0.446024717,218.3617,218.3619,0,106,106,106,1,0.537673535,0.537673535,shape_difference3,1,,TRUE,,intensity,0.1,0.05,0.7,0.3,0.82,20,400,1E-11,3.5,0.01,0.5,0.1,,,,,,,,,,,,,,,,,,,,,,,,,,,,,,,,,,,,,,,,,,,,,,,,,,,,,,,,,,,,,,,,,,,,,,,,,,,,,,,,,
,,,,,872718,001,2025-03-18_22h58.34.246,Utility_discrimination_2024_2cat,2024.2.4,MacIntel,60.24096386,,,,,,,,0,"[0.5,0.5]","[1,0]",d,"[0.5519456609746191,0.5519456609746191]","[0.44805433902538094,0.44805433902538094]",218.3628,220.0929,1,d,1,0.1975,,0.844925655,1.23545887,0.390533216,220.0948,220.0949,0,107,107,107,1,0.073473354,0.073473354,shape_difference2,1,,TRUE,,intensity,0.1,0.05,0.7,0.3,0.82,20,400,1E-11,3.5,0.01,0.5,0.1,,,,,,,,,,,,,,,,,,,,,,,,,,,,,,,,,,,,,,,,,,,,,,,,,,,,,,,,,,,,,,,,,,,,,,,,,,,,,,,,,
,,,,,872718,001,2025-03-18_22h58.34.246,Utility_discrimination_2024_2cat,2024.2.4,MacIntel,60.24096386,,,,,,,,1,"[0.5,0.5]","[0.924,0.383]",d,"[1.5398243382578485,0.5]","[-0.5398243382578485,0.5]",220.0958,221.6595,0,s,0,0.0444,,0.652320376,1.031060024,0.378739648,221.6616,221.6617,0,108,108,108,1,1.039824338,1.039824338,shape_difference0,1,,TRUE,,intensity,0.1,0.05,0.7,0.3,0.82,20,400,1E-11,3.5,0.01,0.5,0.1,,,,,,,,,,,,,,,,,,,,,,,,,,,,,,,,,,,,,,,,,,,,,,,,,,,,,,,,,,,,,,,,,,,,,,,,,,,,,,,,,
,,,,,872718,001,2025-03-18_22h58.34.246,Utility_discrimination_2024_2cat,2024.2.4,MacIntel,60.24096386,,,,,,,,2,"[0.5,0.5]","[0.707,0.707]",d,"[1.2684341203324747,0.8185176061551274]","[-0.2684341203324746,0.18148239384487258]",221.6634,223.3264,1,d,1,0.1452,,-0.08734189,0.293028781,0.38037067,223.3286,223.3287,0,109,109,109,1,0.831638658,0.831638658,shape_difference1,1,,TRUE,,intensity,0.1,0.05,0.7,0.3,0.82,20,400,1E-11,3.5,0.01,0.5,0.1,,,,,,,,,,,,,,,,,,,,,,,,,,,,,,,,,,,,,,,,,,,,,,,,,,,,,,,,,,,,,,,,,,,,,,,,,,,,,,,,,
,,,,,872718,001,2025-03-18_22h58.34.246,Utility_discrimination_2024_2cat,2024.2.4,MacIntel,60.24096386,,,,,,,,3,"[0.5,0.5]","[0.383,0.924]",d,"[0.5409998624214533,0.5409998624214533]","[0.4590001375785467,0.4590001375785467]",223.3305,225.0263,0,d,0,0.1681,,0.414873702,0.784535964,0.369662261,225.0284,225.0285,0,110,110,110,1,0.057991319,0.057991319,shape_difference2,1,,TRUE,,intensity,0.1,0.05,0.7,0.3,0.82,20,400,1E-11,3.5,0.01,0.5,0.1,,,,,,,,,,,,,,,,,,,,,,,,,,,,,,,,,,,,,,,,,,,,,,,,,,,,,,,,,,,,,,,,,,,,,,,,,,,,,,,,,
,,,,,872718,001,2025-03-18_22h58.34.246,Utility_discrimination_2024_2cat,2024.2.4,MacIntel,60.24096386,,,,,,,,0,"[0.5,0.5]","[1,0]",s,"[0.7201342138759419,1.0310809755127162]","[0.27986578612405816,-0.031080975512716047]",225.0295,226.7929,0,d,0,0.2367,,0.911951031,1.279696655,0.367745625,226.7951,226.7952,0,111,111,111,1,0.574762961,0.574762961,shape_difference3,1,,TRUE,,intensity,0.1,0.05,0.7,0.3,0.82,20,400,1E-11,3.5,0.01,0.5,0.1,,,,,,,,,,,,,,,,,,,,,,,,,,,,,,,,,,,,,,,,,,,,,,,,,,,,,,,,,,,,,,,,,,,,,,,,,,,,,,,,,
,,,,,872718,001,2025-03-18_22h58.34.246,Utility_discrimination_2024_2cat,2024.2.4,MacIntel,60.24096386,,,,,,,,1,"[0.5,0.5]","[0.924,0.383]",s,"[1.5850568460865646,0.5]","[-0.5850568460865646,0.5]",226.797,228.3929,0,s,0,0.0785,,0.640723726,0.996512756,0.355789029,228.395,228.3958,0,112,112,112,1,1.085056846,1.085056846,shape_difference0,1,,TRUE,,intensity,0.1,0.05,0.7,0.3,0.82,20,400,1E-11,3.5,0.01,0.5,0.1,,,,,,,,,,,,,,,,,,,,,,,,,,,,,,,,,,,,,,,,,,,,,,,,,,,,,,,,,,,,,,,,,,,,,,,,,,,,,,,,,
,,,,,872718,001,2025-03-18_22h58.34.246,Utility_discrimination_2024_2cat,2024.2.4,MacIntel,60.24096386,,,,,,,,4,"[0.5,0.5]","[0,1]",d,"[1.2489098652149435,0.8104247601486183]","[-0.24890986521494352,0.18957523985138164]",228.3968,229.943,0,s,0,0.014,,0.602950859,0.971748303,0.368797444,229.9453,229.9453,0,113,113,113,1,0.810508512,0.810508512,shape_difference1,1,,TRUE,,intensity,0.1,0.05,0.7,0.3,0.82,20,400,1E-11,3.5,0.01,0.5,0.1,,,,,,,,,,,,,,,,,,,,,,,,,,,,,,,,,,,,,,,,,,,,,,,,,,,,,,,,,,,,,,,,,,,,,,,,,,,,,,,,,
,,,,,872718,001,2025-03-18_22h58.34.246,Utility_discrimination_2024_2cat,2024.2.4,MacIntel,60.24096386,,,,,,,,3,"[0.5,0.5]","[0.383,0.924]",d,"[0.5,1.260724905044083]","[0.5,-0.26072490504408286]",229.9471,231.4764,0,s,0,0.0013,,0.467498008,0.870333071,0.402835063,231.4792,231.4793,0,114,114,114,1,0.760724905,0.760724905,shape_difference4,1,,TRUE,,intensity,0.1,0.05,0.7,0.3,0.82,20,400,1E-11,3.5,0.01,0.5,0.1,,,,,,,,,,,,,,,,,,,,,,,,,,,,,,,,,,,,,,,,,,,,,,,,,,,,,,,,,,,,,,,,,,,,,,,,,,,,,,,,,
,,,,,872718,001,2025-03-18_22h58.34.246,Utility_discrimination_2024_2cat,2024.2.4,MacIntel,60.24096386,,,,,,,,1,"[0.5,0.5]","[0.924,0.383]",d,"[0.7474020103519818,1.096865424452301]","[0.25259798964801816,-0.09686542445230095]",231.4803,233.1262,1,s,1,0.1183,,0.70725181,1.062359326,0.355107516,233.1284,233.1285,0,115,115,115,1,0.645958252,0.645958252,shape_difference3,1,,TRUE,,intensity,0.1,0.05,0.7,0.3,0.82,20,400,1E-11,3.5,0.01,0.5,0.1,,,,,,,,,,,,,,,,,,,,,,,,,,,,,,,,,,,,,,,,,,,,,,,,,,,,,,,,,,,,,,,,,,,,,,,,,,,,,,,,,
,,,,,872718,001,2025-03-18_22h58.34.246,Utility_discrimination_2024_2cat,2024.2.4,MacIntel,60.24096386,,,,,,,,0,"[0.5,0.5]","[1,0]",s,"[1.2970795273073699,0.8303911893492669]","[-0.29707952730736986,0.16960881065073308]",233.1296,234.8263,1,s,1,0.1682,,0.97920642,1.340666286,0.361459866,234.8291,234.8293,0,116,116,116,1,0.862640181,0.862640181,shape_difference1,1,,TRUE,,intensity,0.1,0.05,0.7,0.3,0.82,20,400,1E-11,3.5,0.01,0.5,0.1,,,,,,,,,,,,,,,,,,,,,,,,,,,,,,,,,,,,,,,,,,,,,,,,,,,,,,,,,,,,,,,,,,,,,,,,,,,,,,,,,
,,,,,872718,001,2025-03-18_22h58.34.246,Utility_discrimination_2024_2cat,2024.2.4,MacIntel,60.24096386,,,,,,,,2,"[0.5,0.5]","[0.707,0.707]",s,"[1.6539350708457405,0.5]","[-0.6539350708457405,0.5]",234.8303,236.5097,1,d,1,0.1495,,-0.051590641,0.447208837,0.498799478,236.512,236.512,0,117,117,117,1,1.153935071,1.153935071,shape_difference0,1,,TRUE,,intensity,0.1,0.05,0.7,0.3,0.82,20,400,1E-11,3.5,0.01,0.5,0.1,,,,,,,,,,,,,,,,,,,,,,,,,,,,,,,,,,,,,,,,,,,,,,,,,,,,,,,,,,,,,,,,,,,,,,,,,,,,,,,,,
,,,,,872718,001,2025-03-18_22h58.34.246,Utility_discrimination_2024_2cat,2024.2.4,MacIntel,60.24096386,,,,,,,,4,"[0.5,0.5]","[0,1]",d,"[0.5930082409950128,0.5930082409950128]","[0.4069917590049872,0.4069917590049872]",236.5131,238.1432,1,d,1,0.0991,,0.64865772,1.056293192,0.407635472,238.1459,238.146,0,118,118,118,1,0.131553382,0.131553382,shape_difference2,1,,TRUE,,intensity,0.1,0.05,0.7,0.3,0.82,20,400,1E-11,3.5,0.01,0.5,0.1,,,,,,,,,,,,,,,,,,,,,,,,,,,,,,,,,,,,,,,,,,,,,,,,,,,,,,,,,,,,,,,,,,,,,,,,,,,,,,,,,
,,,,,872718,001,2025-03-18_22h58.34.246,Utility_discrimination_2024_2cat,2024.2.4,MacIntel,60.24096386,,,,,,,,1,"[0.5,0.5]","[0.924,0.383]",d,"[0.5,1.3425481306282294]","[0.5,-0.3425481306282293]",238.1471,241.3763,1,d,1,1.6995,,0.704819038,1.028030216,0.323211177,241.3786,241.3787,0,119,119,119,1,0.842548131,0.842548131,shape_difference4,1,,TRUE,,intensity,0.1,0.05,0.7,0.3,0.82,20,400,1E-11,3.5,0.01,0.5,0.1,,,,,,,,,,,,,,,,,,,,,,,,,,,,,,,,,,,,,,,,,,,,,,,,,,,,,,,,,,,,,,,,,,,,,,,,,,,,,,,,,
,,,,,872718,001,2025-03-18_22h58.34.246,Utility_discrimination_2024_2cat,2024.2.4,MacIntel,60.24096386,,,,,,,,3,"[0.5,0.5]","[0.383,0.924]",d,"[1.283352860342863,0.8247014561810786]","[-0.2833528603428631,0.17529854381892146]",241.3798,242.9425,1,d,1,0.0325,,0.451688256,0.839207149,0.387518893,242.9449,242.945,0,120,120,120,1,0.847784481,0.847784481,shape_difference1,1,,TRUE,,intensity,0.1,0.05,0.7,0.3,0.82,20,400,1E-11,3.5,0.01,0.5,0.1,,,,,,,,,,,,,,,,,,,,,,,,,,,,,,,,,,,,,,,,,,,,,,,,,,,,,,,,,,,,,,,,,,,,,,,,,,,,,,,,,
,,,,,872718,001,2025-03-18_22h58.34.246,Utility_discrimination_2024_2cat,2024.2.4,MacIntel,60.24096386,,,,,,,,0,"[0.5,0.5]","[1,0]",d,"[0.7394000213039276,1.0775603647123475]","[0.26059997869607243,-0.0775603647123474]",242.946,244.4931,0,s,0,0.018,,0.966275395,1.301181252,0.334905857,244.4955,244.4956,0,121,121,121,1,0.62506533,0.62506533,shape_difference3,1,,TRUE,,intensity,0.1,0.05,0.7,0.3,0.82,20,400,1E-11,3.5,0.01,0.5,0.1,,,,,,,,,,,,,,,,,,,,,,,,,,,,,,,,,,,,,,,,,,,,,,,,,,,,,,,,,,,,,,,,,,,,,,,,,,,,,,,,,
,,,,,872718,001,2025-03-18_22h58.34.246,Utility_discrimination_2024_2cat,2024.2.4,MacIntel,60.24096386,,,,,,,,2,"[0.5,0.5]","[0.707,0.707]",d,"[1.6382910272900617,0.5]","[-0.6382910272900617,0.5]",244.4973,246.2431,0,d,0,0.218,,-0.062382209,0.388661563,0.451043772,246.2455,246.2456,0,122,122,122,1,1.138291027,1.138291027,shape_difference0,1,,TRUE,,intensity,0.1,0.05,0.7,0.3,0.82,20,400,1E-11,3.5,0.01,0.5,0.1,,,,,,,,,,,,,,,,,,,,,,,,,,,,,,,,,,,,,,,,,,,,,,,,,,,,,,,,,,,,,,,,,,,,,,,,,,,,,,,,,
,,,,,872718,001,2025-03-18_22h58.34.246,Utility_discrimination_2024_2cat,2024.2.4,MacIntel,60.24096386,,,,,,,,4,"[0.5,0.5]","[0,1]",s,"[0.571905464156944,0.571905464156944]","[0.428094535843056,0.428094535843056]",246.2467,247.8428,0,s,0,0.0785,,0.637225556,1.023429963,0.386204407,247.8454,247.8456,0,123,123,123,1,0.101705041,0.101705041,shape_difference2,1,,TRUE,,intensity,0.1,0.05,0.7,0.3,0.82,20,400,1E-11,3.5,0.01,0.5,0.1,,,,,,,,,,,,,,,,,,,,,,,,,,,,,,,,,,,,,,,,,,,,,,,,,,,,,,,,,,,,,,,,,,,,,,,,,,,,,,,,,
,,,,,872718,001,2025-03-18_22h58.34.246,Utility_discrimination_2024_2cat,2024.2.4,MacIntel,60.24096386,,,,,,,,2,"[0.5,0.5]","[0.707,0.707]",d,"[0.5,1.320656697053407]","[0.5,-0.32065669705340705]",247.8467,249.5754,1,d,1,0.1992,,0.006271266,0.492932585,0.486661319,249.5773,249.5773,0,124,124,124,1,0.820656697,0.820656697,shape_difference4,1,,TRUE,,intensity,0.1,0.05,0.7,0.3,0.82,20,400,1E-11,3.5,0.01,0.5,0.1,,,,,,,,,,,,,,,,,,,,,,,,,,,,,,,,,,,,,,,,,,,,,,,,,,,,,,,,,,,,,,,,,,,,,,,,,,,,,,,,,
,,,,,872718,001,2025-03-18_22h58.34.246,Utility_discrimination_2024_2cat,2024.2.4,MacIntel,60.24096386,,,,,,,,3,"[0.5,0.5]","[0.383,0.924]",d,"[0.6224670577416418,0.6224670577416418]","[0.3775329422583582,0.3775329422583582]",249.5785,251.3597,0,s,0,0.2516,,0.51019141,0.892137352,0.381945942,251.3628,251.3629,0,125,125,125,1,0.173220732,0.173220732,shape_difference2,1,,TRUE,,intensity,0.1,0.05,0.7,0.3,0.82,20,400,1E-11,3.5,0.01,0.5,0.1,,,,,,,,,,,,,,,,,,,,,,,,,,,,,,,,,,,,,,,,,,,,,,,,,,,,,,,,,,,,,,,,,,,,,,,,,,,,,,,,,
,,,,,872718,001,2025-03-18_22h58.34.246,Utility_discrimination_2024_2cat,2024.2.4,MacIntel,60.24096386,,,,,,,,4,"[0.5,0.5]","[0,1]",d,"[0.7584436796851995,1.1235038120864866]","[0.24155632031480045,-0.12350381208648664]",251.364,253.0764,1,s,1,0.1823,,0.629149619,0.992296183,0.363146563,253.0794,253.0794,0,126,126,126,1,0.674787675,0.674787675,shape_difference3,1,,TRUE,,intensity,0.1,0.05,0.7,0.3,0.82,20,400,1E-11,3.5,0.01,0.5,0.1,,,,,,,,,,,,,,,,,,,,,,,,,,,,,,,,,,,,,,,,,,,,,,,,,,,,,,,,,,,,,,,,,,,,,,,,,,,,,,,,,
,,,,,872718,001,2025-03-18_22h58.34.246,Utility_discrimination_2024_2cat,2024.2.4,MacIntel,60.24096386,,,,,,,,1,"[0.5,0.5]","[0.924,0.383]",s,"[0.5,1.2976933406544688]","[0.5,-0.29769334065446895]",253.0807,254.7597,1,d,1,0.1495,,0.701913123,0.997321877,0.295408754,254.7618,254.7618,0,127,127,127,1,0.797693341,0.797693341,shape_difference4,1,,TRUE,,intensity,0.1,0.05,0.7,0.3,0.82,20,400,1E-11,3.5,0.01,0.5,0.1,,,,,,,,,,,,,,,,,,,,,,,,,,,,,,,,,,,,,,,,,,,,,,,,,,,,,,,,,,,,,,,,,,,,,,,,,,,,,,,,,
,,,,,872718,001,2025-03-18_22h58.34.246,Utility_discrimination_2024_2cat,2024.2.4,MacIntel,60.24096386,,,,,,,,0,"[0.5,0.5]","[1,0]",d,"[1.26976145020705,0.8190677872611474]","[-0.26976145020705,0.18093221273885263]",254.763,256.3763,0,d,0,0.0828,,1.013680368,1.356305743,0.342625375,256.3785,256.3786,0,128,128,128,1,0.833075163,0.833075163,shape_difference1,1,,TRUE,,intensity,0.1,0.05,0.7,0.3,0.82,20,400,1E-11,3.5,0.01,0.5,0.1,,,,,,,,,,,,,,,,,,,,,,,,,,,,,,,,,,,,,,,,,,,,,,,,,,,,,,,,,,,,,,,,,,,,,,,,,,,,,,,,,
,,,,,872718,001,2025-03-18_22h58.34.246,Utility_discrimination_2024_2cat,2024.2.4,MacIntel,60.24096386,,,,,,,,3,"[0.5,0.5]","[0.383,0.924]",s,"[1.675502697303192,0.5]","[-0.6755026973031919,0.5]",256.3796,258.3427,1,s,1,0.4327,,0.507322172,0.864451201,0.357129028,258.3455,258.3456,0,129,129,129,1,1.175502697,1.175502697,shape_difference0,1,,TRUE,,intensity,0.1,0.05,0.7,0.3,0.82,20,400,1E-11,3.5,0.01,0.5,0.1,,,,,,,,,,,,,,,,,,,,,,,,,,,,,,,,,,,,,,,,,,,,,,,,,,,,,,,,,,,,,,,,,,,,,,,,,,,,,,,,,
,,,,,872718,001,2025-03-18_22h58.34.246,Utility_discrimination_2024_2cat,2024.2.4,MacIntel,60.24096386,,,,,,,,1,"[0.5,0.5]","[0.924,0.383]",s,"[0.752031506540751,1.108034235100924]","[0.24796849345924898,-0.10803423510092414]",258.3475,260.4764,0,d,0,0.5993,,0.714315299,1.053734128,0.33941883,260.4786,260.4787,0,130,130,130,1,0.658045709,0.658045709,shape_difference3,1,,TRUE,,intensity,0.1,0.05,0.7,0.3,0.82,20,400,1E-11,3.5,0.01,0.5,0.1,,,,,,,,,,,,,,,,,,,,,,,,,,,,,,,,,,,,,,,,,,,,,,,,,,,,,,,,,,,,,,,,,,,,,,,,,,,,,,,,,
,,,,,872718,001,2025-03-18_22h58.34.246,Utility_discrimination_2024_2cat,2024.2.4,MacIntel,60.24096386,,,,,,,,0,"[0.5,0.5]","[1,0]",s,"[1.301781133739257,0.8323400153919215]","[-0.3017811337392571,0.16765998460807852]",260.4799,262.1928,0,s,0,0.1947,,1.010488151,1.327233822,0.316745671,262.1947,262.1947,0,131,131,131,1,0.8677285,0.8677285,shape_difference1,1,,TRUE,,intensity,0.1,0.05,0.7,0.3,0.82,20,400,1E-11,3.5,0.01,0.5,0.1,,,,,,,,,,,,,,,,,,,,,,,,,,,,,,,,,,,,,,,,,,,,,,,,,,,,,,,,,,,,,,,,,,,,,,,,,,,,,,,,,
,,,,,872718,001,2025-03-18_22h58.34.246,Utility_discrimination_2024_2cat,2024.2.4,MacIntel,60.24096386,,,,,,,,4,"[0.5,0.5]","[0,1]",d,"[1.662622231586572,0.5]","[-0.662622231586572,0.5]",262.1963,264.2595,1,d,1,0.5325,,0.623318096,0.972324063,0.349005967,264.2619,264.2619,0,132,132,132,1,1.162622232,1.162622232,shape_difference0,1,,TRUE,,intensity,0.1,0.05,0.7,0.3,0.82,20,400,1E-11,3.5,0.01,0.5,0.1,,,,,,,,,,,,,,,,,,,,,,,,,,,,,,,,,,,,,,,,,,,,,,,,,,,,,,,,,,,,,,,,,,,,,,,,,,,,,,,,,
,,,,,872718,001,2025-03-18_22h58.34.246,Utility_discrimination_2024_2cat,2024.2.4,MacIntel,60.24096386,,,,,,,,2,"[0.5,0.5]","[0.707,0.707]",d,"[0.5,1.2838187963498158]","[0.5,-0.28381879634981577]",264.2631,266.3096,0,s,0,0.5187,,0.054513396,0.620287648,0.565774253,266.3119,266.312,0,133,133,133,1,0.783818796,0.783818796,shape_difference4,1,,TRUE,,intensity,0.1,0.05,0.7,0.3,0.82,20,400,1E-11,3.5,0.01,0.5,0.1,,,,,,,,,,,,,,,,,,,,,,,,,,,,,,,,,,,,,,,,,,,,,,,,,,,,,,,,,,,,,,,,,,,,,,,,,,,,,,,,,
,,,,,872718,001,2025-03-18_22h58.34.246,Utility_discrimination_2024_2cat,2024.2.4,MacIntel,60.24096386,,,,,,,,3,"[0.5,0.5]","[0.383,0.924]",d,"[0.7045313182248666,0.7045313182248666]","[0.2954686817751334,0.2954686817751334]",266.3136,267.8929,0,s,0,0.0492,,0.546734384,0.952209943,0.40547556,267.8952,267.8952,0,134,134,134,1,0.289294651,0.289294651,shape_difference2,1,,TRUE,,intensity,0.1,0.05,0.7,0.3,0.82,20,400,1E-11,3.5,0.01,0.5,0.1,,,,,,,,,,,,,,,,,,,,,,,,,,,,,,,,,,,,,,,,,,,,,,,,,,,,,,,,,,,,,,,,,,,,,,,,,,,,,,,,,
,,,,,872718,001,2025-03-18_22h58.34.246,Utility_discrimination_2024_2cat,2024.2.4,MacIntel,60.24096386,,,,,,,,2,"[0.5,0.5]","[0.707,0.707]",d,"[0.7811322673062265,1.1782407702113664]","[0.21886773269377346,-0.17824077021136642]",267.8969,269.7263,1,d,1,0.3004,,0.166606133,0.727453144,0.560847011,269.7284,269.7285,0,135,135,135,1,0.734026808,0.734026808,shape_difference3,1,,TRUE,,intensity,0.1,0.05,0.7,0.3,0.82,20,400,1E-11,3.5,0.01,0.5,0.1,,,,,,,,,,,,,,,,,,,,,,,,,,,,,,,,,,,,,,,,,,,,,,,,,,,,,,,,,,,,,,,,,,,,,,,,,,,,,,,,,
,,,,,872718,001,2025-03-18_22h58.34.246,Utility_discrimination_2024_2cat,2024.2.4,MacIntel,60.24096386,,,,,,,,0,"[0.5,0.5]","[1,0]",d,"[0.8005941941600851,0.8005941941600851]","[0.1994058058399148,0.1994058058399148]",269.7303,273.2262,1,d,1,1.9659,,1.00801372,1.296790712,0.288776992,273.2284,273.2285,0,136,136,136,1,0.425168591,0.425168591,shape_difference2,1,,TRUE,,intensity,0.1,0.05,0.7,0.3,0.82,20,400,1E-11,3.5,0.01,0.5,0.1,,,,,,,,,,,,,,,,,,,,,,,,,,,,,,,,,,,,,,,,,,,,,,,,,,,,,,,,,,,,,,,,,,,,,,,,,,,,,,,,,
,,,,,872718,001,2025-03-18_22h58.34.246,Utility_discrimination_2024_2cat,2024.2.4,MacIntel,60.24096386,,,,,,,,1,"[0.5,0.5]","[0.924,0.383]",d,"[1.6510000070607904,0.5]","[-0.6510000070607904,0.5]",273.2296,276.1097,0,d,0,1.3491,,0.760435052,1.114336896,0.353901844,276.1122,276.1123,0,137,137,137,1,1.151000007,1.151000007,shape_difference0,1,,TRUE,,intensity,0.1,0.05,0.7,0.3,0.82,20,400,1E-11,3.5,0.01,0.5,0.1,,,,,,,,,,,,,,,,,,,,,,,,,,,,,,,,,,,,,,,,,,,,,,,,,,,,,,,,,,,,,,,,,,,,,,,,,,,,,,,,,
,,,,,872718,001,2025-03-18_22h58.34.246,Utility_discrimination_2024_2cat,2024.2.4,MacIntel,60.24096386,,,,,,,,4,"[0.5,0.5]","[0,1]",s,"[1.3592438102458362,0.8561584191819862]","[-0.3592438102458362,0.1438415808180138]",276.1139,278.4432,0,s,0,0.8121,,0.700090458,1.032693053,0.332602595,278.4453,278.4454,0,138,138,138,1,0.929917544,0.929917544,shape_difference1,1,,TRUE,,intensity,0.1,0.05,0.7,0.3,0.82,20,400,1E-11,3.5,0.01,0.5,0.1,,,,,,,,,,,,,,,,,,,,,,,,,,,,,,,,,,,,,,,,,,,,,,,,,,,,,,,,,,,,,,,,,,,,,,,,,,,,,,,,,
,,,,,872718,001,2025-03-18_22h58.34.246,Utility_discrimination_2024_2cat,2024.2.4,MacIntel,60.24096386,,,,,,,,2,"[0.5,0.5]","[0.707,0.707]",d,"[0.5,1.3418501758311807]","[0.5,-0.3418501758311806]",278.4464,280.0584,1,d,1,0.084,,0.150306565,0.680648115,0.53034155,280.0605,280.0605,0,139,139,139,1,0.841850176,0.841850176,shape_difference4,1,,TRUE,,intensity,0.1,0.05,0.7,0.3,0.82,20,400,1E-11,3.5,0.01,0.5,0.1,,,,,,,,,,,,,,,,,,,,,,,,,,,,,,,,,,,,,,,,,,,,,,,,,,,,,,,,,,,,,,,,,,,,,,,,,,,,,,,,,
,,,,,872718,001,2025-03-18_22h58.34.246,Utility_discrimination_2024_2cat,2024.2.4,MacIntel,60.24096386,,,,,,,,3,"[0.5,0.5]","[0.383,0.924]",d,"[0.7722423635986985,0.7722423635986985]","[0.22775763640130153,0.22775763640130153]",280.0623,281.9931,1,d,1,0.398,,0.536265578,0.915023686,0.378758108,281.996,281.9961,0,140,140,140,1,0.385066992,0.385066992,shape_difference2,1,,TRUE,,intensity,0.1,0.05,0.7,0.3,0.82,20,400,1E-11,3.5,0.01,0.5,0.1,,,,,,,,,,,,,,,,,,,,,,,,,,,,,,,,,,,,,,,,,,,,,,,,,,,,,,,,,,,,,,,,,,,,,,,,,,,,,,,,,
,,,,,872718,001,2025-03-18_22h58.34.246,Utility_discrimination_2024_2cat,2024.2.4,MacIntel,60.24096386,,,,,,,,4,"[0.5,0.5]","[0,1]",d,"[0.7722965028652412,1.1569242001239761]","[0.2277034971347588,-0.15692420012397623]",281.9972,283.5587,1,d,1,0.0331,,0.677402179,0.998276052,0.320873873,283.5609,283.5609,0,141,141,141,1,0.710956927,0.710956927,shape_difference3,1,,TRUE,,intensity,0.1,0.05,0.7,0.3,0.82,20,400,1E-11,3.5,0.01,0.5,0.1,,,,,,,,,,,,,,,,,,,,,,,,,,,,,,,,,,,,,,,,,,,,,,,,,,,,,,,,,,,,,,,,,,,,,,,,,,,,,,,,,
,,,,,872718,001,2025-03-18_22h58.34.246,Utility_discrimination_2024_2cat,2024.2.4,MacIntel,60.24096386,,,,,,,,0,"[0.5,0.5]","[1,0]",d,"[0.5,1.324711120876306]","[0.5,-0.32471112087630594]",283.562,285.5097,0,d,0,0.4193,,1.043399841,1.372532653,0.329132812,285.5124,285.5124,0,142,142,142,1,0.824711121,0.824711121,shape_difference4,1,,TRUE,,intensity,0.1,0.05,0.7,0.3,0.82,20,400,1E-11,3.5,0.01,0.5,0.1,,,,,,,,,,,,,,,,,,,,,,,,,,,,,,,,,,,,,,,,,,,,,,,,,,,,,,,,,,,,,,,,,,,,,,,,,,,,,,,,,
,,,,,872718,001,2025-03-18_22h58.34.246,Utility_discrimination_2024_2cat,2024.2.4,MacIntel,60.24096386,,,,,,,,1,"[0.5,0.5]","[0.924,0.383]",s,"[1.7017393601355082,0.5]","[-0.7017393601355082,0.5]",285.5135,288.943,0,d,0,1.9003,,0.811615661,1.169592019,0.357976358,288.9454,288.9455,0,143,143,143,1,1.20173936,1.20173936,shape_difference0,1,,TRUE,,intensity,0.1,0.05,0.7,0.3,0.82,20,400,1E-11,3.5,0.01,0.5,0.1,,,,,,,,,,,,,,,,,,,,,,,,,,,,,,,,,,,,,,,,,,,,,,,,,,,,,,,,,,,,,,,,,,,,,,,,,,,,,,,,,
,,,,,872718,001,2025-03-18_22h58.34.246,Utility_discrimination_2024_2cat,2024.2.4,MacIntel,60.24096386,,,,,,,,2,"[0.5,0.5]","[0.707,0.707]",s,"[1.3991807811044419,0.8727123800465382]","[-0.399180781104442,0.12728761995346183]",288.9465,290.6251,0,d,0,0.1534,,0.139468077,0.630848462,0.491380385,290.6271,290.6272,0,144,144,144,1,0.973139373,0.973139373,shape_difference1,1,,TRUE,,intensity,0.1,0.05,0.7,0.3,0.82,20,400,1E-11,3.5,0.01,0.5,0.1,,,,,,,,,,,,,,,,,,,,,,,,,,,,,,,,,,,,,,,,,,,,,,,,,,,,,,,,,,,,,,,,,,,,,,,,,,,,,,,,,
,,,,,872718,001,2025-03-18_22h58.34.246,Utility_discrimination_2024_2cat,2024.2.4,MacIntel,60.24096386,,,,,,,,1,"[0.5,0.5]","[0.924,0.383]",s,"[0.7518880664767673,0.7518880664767673]","[0.24811193352323263,0.24811193352323263]",290.6289,292.793,0,d,0,0.6361,,0.863029392,1.234482764,0.371453372,292.7949,292.795,0,145,145,145,1,0.356277322,0.356277322,shape_difference2,1,,TRUE,,intensity,0.1,0.05,0.7,0.3,0.82,20,400,1E-11,3.5,0.01,0.5,0.1,,,,,,,,,,,,,,,,,,,,,,,,,,,,,,,,,,,,,,,,,,,,,,,,,,,,,,,,,,,,,,,,,,,,,,,,,,,,,,,,,
,,,,,872718,001,2025-03-18_22h58.34.246,Utility_discrimination_2024_2cat,2024.2.4,MacIntel,60.24096386,,,,,,,,3,"[0.5,0.5]","[0.383,0.924]",s,"[1.4640660703769066,0.8996074728943237]","[-0.4640660703769066,0.1003925271056762]",292.7962,294.3928,0,s,0,0.0667,,0.528823336,0.887459953,0.358636618,294.3948,294.3948,0,146,146,146,1,1.043361548,1.043361548,shape_difference1,1,,TRUE,,intensity,0.1,0.05,0.7,0.3,0.82,20,400,1E-11,3.5,0.01,0.5,0.1,,,,,,,,,,,,,,,,,,,,,,,,,,,,,,,,,,,,,,,,,,,,,,,,,,,,,,,,,,,,,,,,,,,,,,,,,,,,,,,,,
,,,,,872718,001,2025-03-18_22h58.34.246,Utility_discrimination_2024_2cat,2024.2.4,MacIntel,60.24096386,,,,,,,,0,"[0.5,0.5]","[1,0]",d,"[0.7649650064493858,1.1392367257421214]","[0.23503499355061414,-0.13923672574212154]",294.3963,296.3586,1,d,1,0.433,,1.10676929,1.399979145,0.293209855,296.3615,296.3616,0,147,147,147,1,0.691814638,0.691814638,shape_difference3,1,,TRUE,,intensity,0.1,0.05,0.7,0.3,0.82,20,400,1E-11,3.5,0.01,0.5,0.1,,,,,,,,,,,,,,,,,,,,,,,,,,,,,,,,,,,,,,,,,,,,,,,,,,,,,,,,,,,,,,,,,,,,,,,,,,,,,,,,,
,,,,,872718,001,2025-03-18_22h58.34.246,Utility_discrimination_2024_2cat,2024.2.4,MacIntel,60.24096386,,,,,,,,4,"[0.5,0.5]","[0,1]",d,"[1.7499539918780942,0.5]","[-0.7499539918780942,0.5]",296.3626,298.0585,1,d,1,0.1775,,0.711792643,1.059723286,0.347930643,298.0602,298.0604,0,148,148,148,1,1.249953992,1.249953992,shape_difference0,1,,TRUE,,intensity,0.1,0.05,0.7,0.3,0.82,20,400,1E-11,3.5,0.01,0.5,0.1,,,,,,,,,,,,,,,,,,,,,,,,,,,,,,,,,,,,,,,,,,,,,,,,,,,,,,,,,,,,,,,,,,,,,,,,,,,,,,,,,
,,,,,872718,001,2025-03-18_22h58.34.246,Utility_discrimination_2024_2cat,2024.2.4,MacIntel,60.24096386,,,,,,,,1,"[0.5,0.5]","[0.924,0.383]",d,"[0.5,1.3657253199743664]","[0.5,-0.3657253199743664]",298.0613,299.8751,1,d,1,0.2827,,0.914215459,1.27750178,0.36328632,299.8772,299.8773,0,149,149,149,1,0.86572532,0.86572532,shape_difference4,1,,TRUE,,intensity,0.1,0.05,0.7,0.3,0.82,20,400,1E-11,3.5,0.01,0.5,0.1,,,,,,,,,,,,,,,,,,,,,,,,,,,,,,,,,,,,,,,,,,,,,,,,,,,,,,,,,,,,,,,,,,,,,,,,,,,,,,,,,
,,,,,872718,001,2025-03-18_22h58.34.246,Utility_discrimination_2024_2cat,2024.2.4,MacIntel,60.24096386,,,,,,,,0,"[0.5,0.5]","[1,0]",d,"[1.5017428092642902,0.9152245627145272]","[-0.5017428092642902,0.08477543728547282]",299.8791,301.7262,1,s,1,0.3201,,1.10396348,1.39031282,0.286349339,301.7286,301.7287,0,150,150,150,1,1.084137239,1.084137239,shape_difference1,1,,TRUE,,intensity,0.1,0.05,0.7,0.3,0.82,20,400,1E-11,3.5,0.01,0.5,0.1,,,,,,,,,,,,,,,,,,,,,,,,,,,,,,,,,,,,,,,,,,,,,,,,,,,,,,,,,,,,,,,,,,,,,,,,,,,,,,,,,
,,,,,872718,001,2025-03-18_22h58.34.246,Utility_discrimination_2024_2cat,2024.2.4,MacIntel,60.24096386,,,,,,,,2,"[0.5,0.5]","[0.707,0.707]",s,"[1.737096255922596,0.5]","[-0.737096255922596,0.5]",301.7295,303.3928,1,s,1,0.137,,0.247196947,0.751298034,0.504101087,303.3948,303.3949,0,151,151,151,1,1.237096256,1.237096256,shape_difference0,1,,TRUE,,intensity,0.1,0.05,0.7,0.3,0.82,20,400,1E-11,3.5,0.01,0.5,0.1,,,,,,,,,,,,,,,,,,,,,,,,,,,,,,,,,,,,,,,,,,,,,,,,,,,,,,,,,,,,,,,,,,,,,,,,,,,,,,,,,
,,,,,872718,001,2025-03-18_22h58.34.246,Utility_discrimination_2024_2cat,2024.2.4,MacIntel,60.24096386,,,,,,,,3,"[0.5,0.5]","[0.383,0.924]",s,"[0.8347701671961579,0.8347701671961579]","[0.16522983280384207,0.16522983280384207]",303.3967,304.9262,0,d,0,0.0036,,0.523415484,0.864797806,0.341382322,304.9282,304.9283,0,152,152,152,1,0.473508016,0.473508016,shape_difference2,1,,TRUE,,intensity,0.1,0.05,0.7,0.3,0.82,20,400,1E-11,3.5,0.01,0.5,0.1,,,,,,,,,,,,,,,,,,,,,,,,,,,,,,,,,,,,,,,,,,,,,,,,,,,,,,,,,,,,,,,,,,,,,,,,,,,,,,,,,
,,,,,872718,001,2025-03-18_22h58.34.246,Utility_discrimination_2024_2cat,2024.2.4,MacIntel,60.24096386,,,,,,,,4,"[0.5,0.5]","[0,1]",s,"[0.7602017320783137,1.1277451708625637]","[0.23979826792168635,-0.12774517086256354]",304.9301,306.743,0,s,0,0.2852,,0.709367044,1.025605832,0.316238788,306.7454,306.7455,0,153,153,153,1,0.679377891,0.679377891,shape_difference3,1,,TRUE,,intensity,0.1,0.05,0.7,0.3,0.82,20,400,1E-11,3.5,0.01,0.5,0.1,,,,,,,,,,,,,,,,,,,,,,,,,,,,,,,,,,,,,,,,,,,,,,,,,,,,,,,,,,,,,,,,,,,,,,,,,,,,,,,,,
,,,,,872718,001,2025-03-18_22h58.34.246,Utility_discrimination_2024_2cat,2024.2.4,MacIntel,60.24096386,,,,,,,,3,"[0.5,0.5]","[0.383,0.924]",d,"[0.5,1.352295370901595]","[0.5,-0.35229537090159513]",306.7471,308.6096,1,d,1,0.3454,,0.59561756,0.926229305,0.330611745,308.6116,308.6117,0,154,154,154,1,0.852295371,0.852295371,shape_difference4,1,,TRUE,,intensity,0.1,0.05,0.7,0.3,0.82,20,400,1E-11,3.5,0.01,0.5,0.1,,,,,,,,,,,,,,,,,,,,,,,,,,,,,,,,,,,,,,,,,,,,,,,,,,,,,,,,,,,,,,,,,,,,,,,,,,,,,,,,,
,,,,,872718,001,2025-03-18_22h58.34.246,Utility_discrimination_2024_2cat,2024.2.4,MacIntel,60.24096386,,,,,,,,4,"[0.5,0.5]","[0,1]",d,"[0.7812857832864819,1.1786111325240451]","[0.21871421671351804,-0.17861113252404526]",308.6126,310.4597,0,s,0,0.3284,,0.707490306,0.994276424,0.286786118,310.4617,310.4617,0,155,155,155,1,0.734427633,0.734427633,shape_difference3,1,,TRUE,,intensity,0.1,0.05,0.7,0.3,0.82,20,400,1E-11,3.5,0.01,0.5,0.1,,,,,,,,,,,,,,,,,,,,,,,,,,,,,,,,,,,,,,,,,,,,,,,,,,,,,,,,,,,,,,,,,,,,,,,,,,,,,,,,,
,,,,,872718,001,2025-03-18_22h58.34.246,Utility_discrimination_2024_2cat,2024.2.4,MacIntel,60.24096386,,,,,,,,0,"[0.5,0.5]","[1,0]",d,"[0.5,1.3399382137153097]","[0.5,-0.33993821371530974]",310.4627,312.0097,0,s,0,0.0151,,1.101402305,1.378616574,0.277214269,312.012,312.0121,0,156,156,156,1,0.839938214,0.839938214,shape_difference4,1,,TRUE,,intensity,0.1,0.05,0.7,0.3,0.82,20,400,1E-11,3.5,0.01,0.5,0.1,,,,,,,,,,,,,,,,,,,,,,,,,,,,,,,,,,,,,,,,,,,,,,,,,,,,,,,,,,,,,,,,,,,,,,,,,,,,,,,,,
,,,,,872718,001,2025-03-18_22h58.34.246,Utility_discrimination_2024_2cat,2024.2.4,MacIntel,60.24096386,,,,,,,,2,"[0.5,0.5]","[0.707,0.707]",d,"[1.7231498064895834,0.5]","[-0.7231498064895834,0.5]",312.0132,313.6431,0,d,0,0.1024,,0.358495846,0.851195736,0.49269989,313.6454,313.6455,0,157,157,157,1,1.223149806,1.223149806,shape_difference0,1,,TRUE,,intensity,0.1,0.05,0.7,0.3,0.82,20,400,1E-11,3.5,0.01,0.5,0.1,,,,,,,,,,,,,,,,,,,,,,,,,,,,,,,,,,,,,,,,,,,,,,,,,,,,,,,,,,,,,,,,,,,,,,,,,,,,,,,,,
,,,,,872718,001,2025-03-18_22h58.34.246,Utility_discrimination_2024_2cat,2024.2.4,MacIntel,60.24096386,,,,,,,,1,"[0.5,0.5]","[0.924,0.383]",s,"[0.9143997472483045,0.9143997472483045]","[0.08560025275169547,0.08560025275169547]",313.6466,315.493,0,d,0,0.3157,,0.910608444,1.254137741,0.343529297,315.4953,315.4953,0,158,158,158,1,0.586138256,0.586138256,shape_difference2,1,,TRUE,,intensity,0.1,0.05,0.7,0.3,0.82,20,400,1E-11,3.5,0.01,0.5,0.1,,,,,,,,,,,,,,,,,,,,,,,,,,,,,,,,,,,,,,,,,,,,,,,,,,,,,,,,,,,,,,,,,,,,,,,,,,,,,,,,,
,,,,,872718,001,2025-03-18_22h58.34.246,Utility_discrimination_2024_2cat,2024.2.4,MacIntel,60.24096386,,,,,,,,3,"[0.5,0.5]","[0.383,0.924]",s,"[1.4877366109406158,0.9094189631929175]","[-0.4877366109406157,0.09058103680708246]",315.4972,317.059,1,s,1,0.0453,,0.613893294,0.97813302,0.364239726,317.0613,317.0615,0,159,159,159,1,1.068979016,1.068979016,shape_difference1,1,,TRUE,,intensity,0.1,0.05,0.7,0.3,0.82,20,400,1E-11,3.5,0.01,0.5,0.1,,,,,,,,,,,,,,,,,,,,,,,,,,,,,,,,,,,,,,,,,,,,,,,,,,,,,,,,,,,,,,,,,,,,,,,,,,,,,,,,,
,,,,,872718,001,2025-03-18_22h58.34.246,Utility_discrimination_2024_2cat,2024.2.4,MacIntel,60.24096386,,,,,,,,4,"[0.5,0.5]","[0,1]",s,"[0.7963505364092787,1.2149553411022809]","[0.20364946359072128,-0.21495534110228076]",317.0628,318.9591,1,s,1,0.3668,,0.717123429,1.041996772,0.324873343,318.9612,318.9613,0,160,160,160,1,0.773761192,0.773761192,shape_difference3,1,,TRUE,,intensity,0.1,0.05,0.7,0.3,0.82,20,400,1E-11,3.5,0.01,0.5,0.1,,,,,,,,,,,,,,,,,,,,,,,,,,,,,,,,,,,,,,,,,,,,,,,,,,,,,,,,,,,,,,,,,,,,,,,,,,,,,,,,,
,,,,,872718,001,2025-03-18_22h58.34.246,Utility_discrimination_2024_2cat,2024.2.4,MacIntel,60.24096386,,,,,,,,0,"[0.5,0.5]","[1,0]",s,"[0.5,1.3682129193293036]","[0.5,-0.36821291932930367]",318.9624,320.643,1,d,1,0.1616,,1.1125962,1.399939993,0.287343793,320.6449,320.645,0,161,161,161,1,0.868212919,0.868212919,shape_difference4,1,,TRUE,,intensity,0.1,0.05,0.7,0.3,0.82,20,400,1E-11,3.5,0.01,0.5,0.1,,,,,,,,,,,,,,,,,,,,,,,,,,,,,,,,,,,,,,,,,,,,,,,,,,,,,,,,,,,,,,,,,,,,,,,,,,,,,,,,,
,,,,,872718,001,2025-03-18_22h58.34.246,Utility_discrimination_2024_2cat,2024.2.4,MacIntel,60.24096386,,,,,,,,2,"[0.5,0.5]","[0.707,0.707]",d,"[1.75700917194893,0.5]","[-0.75700917194893,0.5]",320.646,322.493,0,d,0,0.3154,,0.469481715,0.935586496,0.466104781,322.4954,322.4955,0,162,162,162,1,1.257009172,1.257009172,shape_difference0,1,,TRUE,,intensity,0.1,0.05,0.7,0.3,0.82,20,400,1E-11,3.5,0.01,0.5,0.1,,,,,,,,,,,,,,,,,,,,,,,,,,,,,,,,,,,,,,,,,,,,,,,,,,,,,,,,,,,,,,,,,,,,,,,,,,,,,,,,,
,,,,,872718,001,2025-03-18_22h58.34.246,Utility_discrimination_2024_2cat,2024.2.4,MacIntel,60.24096386,,,,,,,,1,"[0.5,0.5]","[0.924,0.383]",s,"[0.9867025818418964,0.9867025818418964]","[0.013297418158103647,0.013297418158103647]",322.4965,324.543,0,s,0,0.5169,,0.907859514,1.2218288,0.313969286,324.5456,324.5458,0,163,163,163,1,0.688405349,0.688405349,shape_difference2,1,,TRUE,,intensity,0.1,0.05,0.7,0.3,0.82,20,400,1E-11,3.5,0.01,0.5,0.1,,,,,,,,,,,,,,,,,,,,,,,,,,,,,,,,,,,,,,,,,,,,,,,,,,,,,,,,,,,,,,,,,,,,,,,,,,,,,,,,,
,,,,,872718,001,2025-03-18_22h58.34.246,Utility_discrimination_2024_2cat,2024.2.4,MacIntel,60.24096386,,,,,,,,2,"[0.5,0.5]","[0.707,0.707]",d,"[1.4754113726089895,0.9043101252264534]","[-0.47541137260898947,0.09568987477354662]",324.5469,326.5085,0,d,0,0.4453,,0.573185675,1.006069772,0.432884097,326.5107,326.5107,0,164,164,164,1,1.055640014,1.055640014,shape_difference1,1,,TRUE,,intensity,0.1,0.05,0.7,0.3,0.82,20,400,1E-11,3.5,0.01,0.5,0.1,,,,,,,,,,,,,,,,,,,,,,,,,,,,,,,,,,,,,,,,,,,,,,,,,,,,,,,,,,,,,,,,,,,,,,,,,,,,,,,,,
,,,,,872718,001,2025-03-18_22h58.34.246,Utility_discrimination_2024_2cat,2024.2.4,MacIntel,60.24096386,,,,,,,,0,"[0.5,0.5]","[1,0]",s,"[1.0530020115534322,1.0530020115534322]","[-0.053002011553432316,-0.053002011553432316]",326.5117,328.5593,0,s,0,0.5183,,1.149494173,1.475026434,0.325532261,328.5614,328.5615,0,165,165,165,1,0.782181063,0.782181063,shape_difference2,1,,TRUE,,intensity,0.1,0.05,0.7,0.3,0.82,20,400,1E-11,3.5,0.01,0.5,0.1,,,,,,,,,,,,,,,,,,,,,,,,,,,,,,,,,,,,,,,,,,,,,,,,,,,,,,,,,,,,,,,,,,,,,,,,,,,,,,,,,
,,,,,872718,001,2025-03-18_22h58.34.246,Utility_discrimination_2024_2cat,2024.2.4,MacIntel,60.24096386,,,,,,,,3,"[0.5,0.5]","[0.383,0.924]",d,"[1.806685510733951,0.5]","[-0.806685510733951,0.5]",328.5625,330.093,0,s,0,0.001,,0.61109328,0.949203203,0.338109923,330.0952,330.0953,0,166,166,166,1,1.306685511,1.306685511,shape_difference0,1,,TRUE,,intensity,0.1,0.05,0.7,0.3,0.82,20,400,1E-11,3.5,0.01,0.5,0.1,,,,,,,,,,,,,,,,,,,,,,,,,,,,,,,,,,,,,,,,,,,,,,,,,,,,,,,,,,,,,,,,,,,,,,,,,,,,,,,,,
,,,,,872718,001,2025-03-18_22h58.34.246,Utility_discrimination_2024_2cat,2024.2.4,MacIntel,60.24096386,,,,,,,,4,"[0.5,0.5]","[0,1]",d,"[0.7908539566464683,1.2016946630322107]","[0.2091460433535317,-0.20169466303221073]",330.0965,332.042,1,d,1,0.4276,,0.714419566,1.004358524,0.289938957,332.0442,332.0442,0,167,167,167,1,0.759409808,0.759409808,shape_difference3,1,,TRUE,,intensity,0.1,0.05,0.7,0.3,0.82,20,400,1E-11,3.5,0.01,0.5,0.1,,,,,,,,,,,,,,,,,,,,,,,,,,,,,,,,,,,,,,,,,,,,,,,,,,,,,,,,,,,,,,,,,,,,,,,,,,,,,,,,,
,,,,,872718,001,2025-03-18_22h58.34.246,Utility_discrimination_2024_2cat,2024.2.4,MacIntel,60.24096386,,,,,,,,1,"[0.5,0.5]","[0.924,0.383]",d,"[0.5,1.3577007882804297]","[0.5,-0.3577007882804296]",332.0454,333.7932,1,d,1,0.2155,,0.946599797,1.288859269,0.342259472,333.7953,333.7954,0,168,168,168,1,0.857700788,0.857700788,shape_difference4,1,,TRUE,,intensity,0.1,0.05,0.7,0.3,0.82,20,400,1E-11,3.5,0.01,0.5,0.1,,,,,,,,,,,,,,,,,,,,,,,,,,,,,,,,,,,,,,,,,,,,,,,,,,,,,,,,,,,,,,,,,,,,,,,,,,,,,,,,,
,,,,,872718,001,2025-03-18_22h58.34.246,Utility_discrimination_2024_2cat,2024.2.4,MacIntel,60.24096386,,,,,,,,1,"[0.5,0.5]","[0.924,0.383]",d,"[1.531488993381036,0.9275544204165983]","[-0.5314889933810361,0.0724455795834017]",333.7967,335.5918,1,d,1,0.2668,,0.936932756,1.2733536,0.336420844,335.5937,335.594,0,169,169,169,1,1.116330079,1.116330079,shape_difference1,1,,TRUE,,intensity,0.1,0.05,0.7,0.3,0.82,20,400,1E-11,3.5,0.01,0.5,0.1,,,,,,,,,,,,,,,,,,,,,,,,,,,,,,,,,,,,,,,,,,,,,,,,,,,,,,,,,,,,,,,,,,,,,,,,,,,,,,,,,
,,,,,872718,001,2025-03-18_22h58.34.246,Utility_discrimination_2024_2cat,2024.2.4,MacIntel,60.24096386,,,,,,,,0,"[0.5,0.5]","[1,0]",d,"[1.5138220441917454,0.9202314317374876]","[-0.5138220441917454,0.07976856826251244]",335.595,337.3095,1,s,1,0.184,,1.207863715,1.501683142,0.293819427,337.3117,337.3119,0,170,170,170,1,1.097210005,1.097210005,shape_difference1,1,,TRUE,,intensity,0.1,0.05,0.7,0.3,0.82,20,400,1E-11,3.5,0.01,0.5,0.1,,,,,,,,,,,,,,,,,,,,,,,,,,,,,,,,,,,,,,,,,,,,,,,,,,,,,,,,,,,,,,,,,,,,,,,,,,,,,,,,,
,,,,,872718,001,2025-03-18_22h58.34.246,Utility_discrimination_2024_2cat,2024.2.4,MacIntel,60.24096386,,,,,,,,3,"[0.5,0.5]","[0.383,0.924]",s,"[1.8522580222249134,0.5]","[-0.8522580222249134,0.5]",337.3132,339.0585,1,d,1,0.2158,,0.608968944,0.909088049,0.300119105,339.0606,339.0606,0,171,171,171,1,1.352258022,1.352258022,shape_difference0,1,,TRUE,,intensity,0.1,0.05,0.7,0.3,0.82,20,400,1E-11,3.5,0.01,0.5,0.1,,,,,,,,,,,,,,,,,,,,,,,,,,,,,,,,,,,,,,,,,,,,,,,,,,,,,,,,,,,,,,,,,,,,,,,,,,,,,,,,,
,,,,,872718,001,2025-03-18_22h58.34.246,Utility_discrimination_2024_2cat,2024.2.4,MacIntel,60.24096386,,,,,,,,2,"[0.5,0.5]","[0.707,0.707]",d,"[0.7859341784739081,1.1898255376237366]","[0.21406582152609188,-0.18982553762373666]",339.0617,340.9428,0,s,0,0.3527,,0.668263214,1.086628193,0.418364979,340.9449,340.945,0,172,172,172,1,0.746564435,0.746564435,shape_difference3,1,,TRUE,,intensity,0.1,0.05,0.7,0.3,0.82,20,400,1E-11,3.5,0.01,0.5,0.1,,,,,,,,,,,,,,,,,,,,,,,,,,,,,,,,,,,,,,,,,,,,,,,,,,,,,,,,,,,,,,,,,,,,,,,,,,,,,,,,,
,,,,,872718,001,2025-03-18_22h58.34.246,Utility_discrimination_2024_2cat,2024.2.4,MacIntel,60.24096386,,,,,,,,4,"[0.5,0.5]","[0,1]",d,"[1.1162285496110478,1.1162285496110478]","[-0.11622854961104767,-0.11622854961104767]",340.9461,342.4931,1,s,1,0.0148,,0.712340218,0.98964985,0.277309632,342.4954,342.4955,0,173,173,173,1,0.871610395,0.871610395,shape_difference2,1,,TRUE,,intensity,0.1,0.05,0.7,0.3,0.82,20,400,1E-11,3.5,0.01,0.5,0.1,,,,,,,,,,,,,,,,,,,,,,,,,,,,,,,,,,,,,,,,,,,,,,,,,,,,,,,,,,,,,,,,,,,,,,,,,,,,,,,,,
,,,,,872718,001,2025-03-18_22h58.34.246,Utility_discrimination_2024_2cat,2024.2.4,MacIntel,60.24096386,,,,,,,,2,"[0.5,0.5]","[0.707,0.707]",s,"[0.5,1.3480894294265342]","[0.5,-0.3480894294265341]",342.4967,344.1757,1,s,1,0.1495,,0.655223473,1.059810375,0.404586902,344.1777,344.1778,0,174,174,174,1,0.848089429,0.848089429,shape_difference4,1,,TRUE,,intensity,0.1,0.05,0.7,0.3,0.82,20,400,1E-11,3.5,0.01,0.5,0.1,,,,,,,,,,,,,,,,,,,,,,,,,,,,,,,,,,,,,,,,,,,,,,,,,,,,,,,,,,,,,,,,,,,,,,,,,,,,,,,,,
,,,,,872718,001,2025-03-18_22h58.34.246,Utility_discrimination_2024_2cat,2024.2.4,MacIntel,60.24096386,,,,,,,,3,"[0.5,0.5]","[0.383,0.924]",s,"[1.1021745417487503,1.1021745417487503]","[-0.10217454174875029,-0.10217454174875029]",344.1789,345.7765,1,s,1,0.0789,,0.619059152,0.961259432,0.34220028,345.7785,345.7787,0,175,175,175,1,0.851732025,0.851732025,shape_difference2,1,,TRUE,,intensity,0.1,0.05,0.7,0.3,0.82,20,400,1E-11,3.5,0.01,0.5,0.1,,,,,,,,,,,,,,,,,,,,,,,,,,,,,,,,,,,,,,,,,,,,,,,,,,,,,,,,,,,,,,,,,,,,,,,,,,,,,,,,,
,,,,,872718,001,2025-03-18_22h58.34.246,Utility_discrimination_2024_2cat,2024.2.4,MacIntel,60.24096386,,,,,,,,0,"[0.5,0.5]","[1,0]",s,"[0.7965643045426215,1.215471063700737]","[0.2034356954573785,-0.2154710637007371]",345.7797,347.425,1,s,1,0.1268,,1.205885634,1.48911,0.283224366,347.4271,347.4271,0,176,176,176,1,0.774319333,0.774319333,shape_difference3,1,,TRUE,,intensity,0.1,0.05,0.7,0.3,0.82,20,400,1E-11,3.5,0.01,0.5,0.1,,,,,,,,,,,,,,,,,,,,,,,,,,,,,,,,,,,,,,,,,,,,,,,,,,,,,,,,,,,,,,,,,,,,,,,,,,,,,,,,,
,,,,,872718,001,2025-03-18_22h58.34.246,Utility_discrimination_2024_2cat,2024.2.4,MacIntel,60.24096386,,,,,,,,1,"[0.5,0.5]","[0.924,0.383]",s,"[1.8403484781801214,0.5]","[-0.8403484781801214,0.5]",347.4282,349.0429,1,s,1,0.0822,,0.929846511,1.253215274,0.323368762,349.0449,349.045,0,177,177,177,1,1.340348478,1.340348478,shape_difference0,1,,TRUE,,intensity,0.1,0.05,0.7,0.3,0.82,20,400,1E-11,3.5,0.01,0.5,0.1,,,,,,,,,,,,,,,,,,,,,,,,,,,,,,,,,,,,,,,,,,,,,,,,,,,,,,,,,,,,,,,,,,,,,,,,,,,,,,,,,
,,,,,872718,001,2025-03-18_22h58.34.246,Utility_discrimination_2024_2cat,2024.2.4,MacIntel,60.24096386,,,,,,,,4,"[0.5,0.5]","[0,1]",s,"[1.5028397792947508,0.9156792591665471]","[-0.5028397792947508,0.08432074083345287]",349.0461,350.6918,1,s,1,0.1144,,0.710368094,0.979210047,0.268841953,350.6934,350.6935,0,178,178,178,1,1.085324436,1.085324436,shape_difference1,1,,TRUE,,intensity,0.1,0.05,0.7,0.3,0.82,20,400,1E-11,3.5,0.01,0.5,0.1,,,,,,,,,,,,,,,,,,,,,,,,,,,,,,,,,,,,,,,,,,,,,,,,,,,,,,,,,,,,,,,,,,,,,,,,,,,,,,,,,
,,,,,872718,001,2025-03-18_22h58.34.246,Utility_discrimination_2024_2cat,2024.2.4,MacIntel,60.24096386,,,,,,,,2,"[0.5,0.5]","[0.707,0.707]",s,"[0.5,1.3383157925372615]","[0.5,-0.3383157925372615]",350.6943,352.8426,1,s,1,0.6295,,0.645835358,1.022146382,0.376311024,352.8444,352.8445,0,179,179,179,1,0.838315793,0.838315793,shape_difference4,1,,TRUE,,intensity,0.1,0.05,0.7,0.3,0.82,20,400,1E-11,3.5,0.01,0.5,0.1,,,,,,,,,,,,,,,,,,,,,,,,,,,,,,,,,,,,,,,,,,,,,,,,,,,,,,,,,,,,,,,,,,,,,,,,,,,,,,,,,
,,,,,872718,001,2025-03-18_22h58.34.246,Utility_discrimination_2024_2cat,2024.2.4,MacIntel,60.24096386,,,,,,,,4,"[0.5,0.5]","[0,1]",s,"[1.0893460883191126,1.0893460883191126]","[-0.08934608831911262,-0.08934608831911262]",352.8454,354.9263,0,d,0,0.5489,,0.708740647,0.966512021,0.257771374,354.9285,354.9287,0,180,180,180,1,0.833587112,0.833587112,shape_difference2,1,,TRUE,,intensity,0.1,0.05,0.7,0.3,0.82,20,400,1E-11,3.5,0.01,0.5,0.1,,,,,,,,,,,,,,,,,,,,,,,,,,,,,,,,,,,,,,,,,,,,,,,,,,,,,,,,,,,,,,,,,,,,,,,,,,,,,,,,,
,,,,,872718,001,2025-03-18_22h58.34.246,Utility_discrimination_2024_2cat,2024.2.4,MacIntel,60.24096386,,,,,,,,3,"[0.5,0.5]","[0.383,0.924]",s,"[0.5,1.3277212041754596]","[0.5,-0.3277212041754596]",354.9298,356.7428,1,d,1,0.295,,0.615925168,0.929438357,0.313513189,356.7446,356.7447,0,181,181,181,1,0.827721204,0.827721204,shape_difference4,1,,TRUE,,intensity,0.1,0.05,0.7,0.3,0.82,20,400,1E-11,3.5,0.01,0.5,0.1,,,,,,,,,,,,,,,,,,,,,,,,,,,,,,,,,,,,,,,,,,,,,,,,,,,,,,,,,,,,,,,,,,,,,,,,,,,,,,,,,
,,,,,872718,001,2025-03-18_22h58.34.246,Utility_discrimination_2024_2cat,2024.2.4,MacIntel,60.24096386,,,,,,,,1,"[0.5,0.5]","[0.924,0.383]",d,"[0.7922591632692144,1.2050847698714207]","[0.20774083673078558,-0.20508476987142077]",356.7457,358.6754,1,s,1,0.3994,,0.924554392,1.226237325,0.301682933,358.6777,358.6778,0,182,182,182,1,0.763078755,0.763078755,shape_difference3,1,,TRUE,,intensity,0.1,0.05,0.7,0.3,0.82,20,400,1E-11,3.5,0.01,0.5,0.1,,,,,,,,,,,,,,,,,,,,,,,,,,,,,,,,,,,,,,,,,,,,,,,,,,,,,,,,,,,,,,,,,,,,,,,,,,,,,,,,,
,,,,,872718,001,2025-03-18_22h58.34.246,Utility_discrimination_2024_2cat,2024.2.4,MacIntel,60.24096386,,,,,,,,0,"[0.5,0.5]","[1,0]",s,"[1.493652196744648,0.9118709863129872]","[-0.493652196744648,0.08812901368701281]",358.679,360.6262,0,s,0,0.4146,,1.203468663,1.478199357,0.274730695,360.6284,360.6284,0,183,183,183,1,1.075381165,1.075381165,shape_difference1,1,,TRUE,,intensity,0.1,0.05,0.7,0.3,0.82,20,400,1E-11,3.5,0.01,0.5,0.1,,,,,,,,,,,,,,,,,,,,,,,,,,,,,,,,,,,,,,,,,,,,,,,,,,,,,,,,,,,,,,,,,,,,,,,,,,,,,,,,,
,,,,,872718,001,2025-03-18_22h58.34.246,Utility_discrimination_2024_2cat,2024.2.4,MacIntel,60.24096386,,,,,,,,2,"[0.5,0.5]","[0.707,0.707]",d,"[1.8274951336662726,0.5]","[-0.8274951336662726,0.5]",360.6293,365.1418,0,d,0,2.9878,,0.711181632,1.075039766,0.363858134,365.144,365.1443,0,184,184,184,1,1.327495134,1.327495134,shape_difference0,1,,TRUE,,intensity,0.1,0.05,0.7,0.3,0.82,20,400,1E-11,3.5,0.01,0.5,0.1,,,,,,,,,,,,,,,,,,,,,,,,,,,,,,,,,,,,,,,,,,,,,,,,,,,,,,,,,,,,,,,,,,,,,,,,,,,,,,,,,
,,,,,872718,001,2025-03-18_22h58.34.246,Utility_discrimination_2024_2cat,2024.2.4,MacIntel,60.24096386,,,,,,,,0,"[0.5,0.5]","[1,0]",s,"[1.1204016576424838,1.1204016576424838]","[-0.1204016576424839,-0.1204016576424839]",365.1456,366.8417,1,s,1,0.1659,,1.213766153,1.498042619,0.284276466,366.8436,366.8437,0,185,185,185,1,0.877512953,0.877512953,shape_difference2,1,,TRUE,,intensity,0.1,0.05,0.7,0.3,0.82,20,400,1E-11,3.5,0.01,0.5,0.1,,,,,,,,,,,,,,,,,,,,,,,,,,,,,,,,,,,,,,,,,,,,,,,,,,,,,,,,,,,,,,,,,,,,,,,,,,,,,,,,,
,,,,,872718,001,2025-03-18_22h58.34.246,Utility_discrimination_2024_2cat,2024.2.4,MacIntel,60.24096386,,,,,,,,4,"[0.5,0.5]","[0,1]",s,"[1.8584972140618492,0.5]","[-0.8584972140618492,0.5]",366.8448,368.5264,0,s,0,0.1628,,0.707363266,0.950655293,0.243292026,368.5286,368.5288,0,186,186,186,1,1.358497214,1.358497214,shape_difference0,1,,TRUE,,intensity,0.1,0.05,0.7,0.3,0.82,20,400,1E-11,3.5,0.01,0.5,0.1,,,,,,,,,,,,,,,,,,,,,,,,,,,,,,,,,,,,,,,,,,,,,,,,,,,,,,,,,,,,,,,,,,,,,,,,,,,,,,,,,
,,,,,872718,001,2025-03-18_22h58.34.246,Utility_discrimination_2024_2cat,2024.2.4,MacIntel,60.24096386,,,,,,,,1,"[0.5,0.5]","[0.924,0.383]",d,"[0.5,1.3159406275442764]","[0.5,-0.3159406275442763]",368.5299,370.0929,1,d,1,0.0372,,0.99692132,1.280280853,0.283359533,370.0951,370.0952,0,187,187,187,1,0.815940628,0.815940628,shape_difference4,1,,TRUE,,intensity,0.1,0.05,0.7,0.3,0.82,20,400,1E-11,3.5,0.01,0.5,0.1,,,,,,,,,,,,,,,,,,,,,,,,,,,,,,,,,,,,,,,,,,,,,,,,,,,,,,,,,,,,,,,,,,,,,,,,,,,,,,,,,
,,,,,872718,001,2025-03-18_22h58.34.246,Utility_discrimination_2024_2cat,2024.2.4,MacIntel,60.24096386,,,,,,,,3,"[0.5,0.5]","[0.383,0.924]",d,"[1.5348079745984955,0.9289301453151773]","[-0.5348079745984955,0.07106985468482274]",370.0964,372.0095,1,d,1,0.3953,,0.613546606,0.896556762,0.283010156,372.0115,372.0116,0,188,188,188,1,1.11992205,1.11992205,shape_difference1,1,,TRUE,,intensity,0.1,0.05,0.7,0.3,0.82,20,400,1E-11,3.5,0.01,0.5,0.1,,,,,,,,,,,,,,,,,,,,,,,,,,,,,,,,,,,,,,,,,,,,,,,,,,,,,,,,,,,,,,,,,,,,,,,,,,,,,,,,,
,,,,,872718,001,2025-03-18_22h58.34.246,Utility_discrimination_2024_2cat,2024.2.4,MacIntel,60.24096386,,,,,,,,2,"[0.5,0.5]","[0.707,0.707]",d,"[0.7884183958881334,1.1958187932131468]","[0.2115816041118666,-0.19581879321314688]",372.0126,373.6597,1,s,1,0.1177,,0.707876486,1.048012082,0.340135596,373.6621,373.6622,0,189,189,189,1,0.753050642,0.753050642,shape_difference3,1,,TRUE,,intensity,0.1,0.05,0.7,0.3,0.82,20,400,1E-11,3.5,0.01,0.5,0.1,,,,,,,,,,,,,,,,,,,,,,,,,,,,,,,,,,,,,,,,,,,,,,,,,,,,,,,,,,,,,,,,,,,,,,,,,,,,,,,,,
,,,,,872718,001,2025-03-18_22h58.34.246,Utility_discrimination_2024_2cat,2024.2.4,MacIntel,60.24096386,,,,,,,,4,"[0.5,0.5]","[0,1]",s,"[1.1100640724997712,1.1100640724997712]","[-0.11006407249977124,-0.11006407249977124]",373.6633,375.3097,0,s,0,0.1149,,0.70616348,0.930410691,0.224247211,375.312,375.3122,0,190,190,190,1,0.862891192,0.862891192,shape_difference2,1,,TRUE,,intensity,0.1,0.05,0.7,0.3,0.82,20,400,1E-11,3.5,0.01,0.5,0.1,,,,,,,,,,,,,,,,,,,,,,,,,,,,,,,,,,,,,,,,,,,,,,,,,,,,,,,,,,,,,,,,,,,,,,,,,,,,,,,,,
