Consent.started,Consent.stopped,key_resp.keys,key_resp.rt,key_resp.duration,participant,session,date,expName,psychopyVersion,OS,frameRate,SetupExperiment.started,SetupExperiment.stopped,DiscrimInstructions_Pre.started,DiscrimInstructions_Pre.stopped,KeyboardResponse.keys,KeyboardResponse.rt,KeyboardResponse.duration,feature_index,feature_center,feature_vector,correct_answer,coord1,coord2,DiscriminationTrial.started,DiscriminationTrial.stopped,PreTest.response,Resp_s_or_d.keys,Resp_s_or_d.corr,Resp_s_or_d.rt,Resp_s_or_d.duration,PreTest.CI_lower,PreTest.CI_upper,PreTest.CI_width,CrashPretest_2.started,CrashPretest_2.stopped,PreTest.thisRepN,PreTest.thisTrialN,PreTest.thisN,PreTest.thisIndex,PreTest.ran,PreTest.intensity,intensity,PreTest.label,PreTest.nReps,PreTest.method,PreTest.autoLog,PreTest.seed,PreTest.varName,PreTest.startVal,PreTest.minVal,PreTest.maxVal,PreTest.startValSd,PreTest.pThreshold,PreTest.nTrials,PreTest.maxTrials,PreTest.stopInterval,PreTest.beta,PreTest.delta,PreTest.gamma,PreTest.grain,WelcomeToCategorizationTask.started,WelcomeToCategorizationTask.stopped,PressAnyKey3.keys,PressAnyKey3.rt,PressAnyKey3.duration,shape_coordinates,category_center,category_sigma,subspace_center,subspace_vector1,subspace_vector2,CategorizationTrial.started,CategorizationTrial.stopped,Respond_1or2.keys,Respond_1or2.rt,Respond_1or2.duration,Feedback.started,Feedback.stopped,xcoord,ycoord,shape_coord,numeric_response_minus1,correctness,truecategory,mixture_index,respAifA,respBifA,respAifB,respBifB,trial_number,D,muAx,muAy,muBx,muBy,sigmaA,sigmaB,priorA,priorB,TrialLoop.thisRepN,TrialLoop.thisTrialN,TrialLoop.thisN,TrialLoop.thisIndex,TrialLoop.ran,DiscriminationInstructions_Post.started,DiscriminationInstructions_Post.stopped,key_resp_2.keys,key_resp_2.rt,key_resp_2.duration,PostTest.response,PostTest.CI_lower,PostTest.CI_upper,PostTest.CI_width,CrashPosttest.started,CrashPosttest.stopped,PostTest.thisRepN,PostTest.thisTrialN,PostTest.thisN,PostTest.thisIndex,PostTest.ran,PostTest.intensity,PostTest.label,PostTest.nReps,PostTest.method,PostTest.autoLog,PostTest.seed,PostTest.varName,PostTest.startVal,PostTest.minVal,PostTest.maxVal,PostTest.startValSd,PostTest.pThreshold,PostTest.nTrials,PostTest.maxTrials,PostTest.stopInterval,PostTest.beta,PostTest.delta,PostTest.gamma,PostTest.grain,Thanks.started,Thanks.stopped
0.0003,61.5907,y,61.5674,,951473,001,2025-03-16_19h39.11.089,Utility_discrimination_2024_2cat,2024.2.4,MacIntel,60.24096386,,,,,,,,,,,,,,,,,,,,,,,,,,,,,,,,,,,,,,,,,,,,,,,,,,,,,,,,,,,,,,,,,,,,,,,,,,,,,,,,,,,,,,,,,,,,,,,,,,,,,,,,,,,,,,,,,,,,,,,,,,,,,,,,,,,
,,,,,951473,001,2025-03-16_19h39.11.089,Utility_discrimination_2024_2cat,2024.2.4,MacIntel,60.24096386,61.5908,61.5909,,,,,,,,,,,,,,,,,,,,,,,,,,,,,,,,,,,,,,,,,,,,,,,,,,,,,,,,,,,,,,,,,,,,,,,,,,,,,,,,,,,,,,,,,,,,,,,,,,,,,,,,,,,,,,,,,,,,,,,,,,,,,,,,,
,,,,,951473,001,2025-03-16_19h39.11.089,Utility_discrimination_2024_2cat,2024.2.4,MacIntel,60.24096386,,,61.5909,82.2097,space,20.5914,,,,,,,,,,,,,,,,,,,,,,,,,,,,,,,,,,,,,,,,,,,,,,,,,,,,,,,,,,,,,,,,,,,,,,,,,,,,,,,,,,,,,,,,,,,,,,,,,,,,,,,,,,,,,,,,,,,,,,,,,,,,,
,,,,,951473,001,2025-03-16_19h39.11.089,Utility_discrimination_2024_2cat,2024.2.4,MacIntel,60.24096386,,,,,,,,4,"[0.5,0.5]","[0,1]",,"[0.6185239449756466,0.5]","[0.3814760550243534,0.5]",82.247,85.9905,0,d,0,2.225,,-0.447967632,0.547967632,0.995935263,85.9933,85.9934,0,0,0,0,1,0.118523945,0.118523945,shape_difference0,1,,TRUE,,intensity,0.1,0.05,0.7,0.3,0.82,20,400,1E-11,3.5,0.01,0.5,0.1,,,,,,,,,,,,,,,,,,,,,,,,,,,,,,,,,,,,,,,,,,,,,,,,,,,,,,,,,,,,,,,,,,,,,,,,,,,,,,,,,
,,,,,951473,001,2025-03-16_19h39.11.089,Utility_discrimination_2024_2cat,2024.2.4,MacIntel,60.24096386,,,,,,,,3,"[0.5,0.5]","[0.383,0.924]",s,"[0.5,0.6185239449756466]","[0.5,0.3814760550243534]",85.9944,87.6249,1,d,1,0.098,,-0.447967632,0.547967632,0.995935263,87.6266,87.6266,0,1,1,1,1,0.118523945,0.118523945,shape_difference4,1,,TRUE,,intensity,0.1,0.05,0.7,0.3,0.82,20,400,1E-11,3.5,0.01,0.5,0.1,,,,,,,,,,,,,,,,,,,,,,,,,,,,,,,,,,,,,,,,,,,,,,,,,,,,,,,,,,,,,,,,,,,,,,,,,,,,,,,,,
,,,,,951473,001,2025-03-16_19h39.11.089,Utility_discrimination_2024_2cat,2024.2.4,MacIntel,60.24096386,,,,,,,,2,"[0.5,0.5]","[0.707,0.707]",d,"[0.5453946709256726,0.6095161251574974]","[0.4546053290743273,0.3904838748425025]",87.6276,89.1751,0,d,0,0.0161,,-0.447967632,0.547967632,0.995935263,89.1774,89.1774,0,2,2,2,1,0.118523945,0.118523945,shape_difference3,1,,TRUE,,intensity,0.1,0.05,0.7,0.3,0.82,20,400,1E-11,3.5,0.01,0.5,0.1,,,,,,,,,,,,,,,,,,,,,,,,,,,,,,,,,,,,,,,,,,,,,,,,,,,,,,,,,,,,,,,,,,,,,,,,,,,,,,,,,
,,,,,951473,001,2025-03-16_19h39.11.089,Utility_discrimination_2024_2cat,2024.2.4,MacIntel,60.24096386,,,,,,,,1,"[0.5,0.5]","[0.924,0.383]",s,"[0.5837964290977822,0.5837964290977822]","[0.4162035709022178,0.4162035709022178]",89.1784,90.7255,0,d,0,0.0283,,-0.447967632,0.547967632,0.995935263,90.7274,90.7275,0,3,3,3,1,0.118523945,0.118523945,shape_difference2,1,,TRUE,,intensity,0.1,0.05,0.7,0.3,0.82,20,400,1E-11,3.5,0.01,0.5,0.1,,,,,,,,,,,,,,,,,,,,,,,,,,,,,,,,,,,,,,,,,,,,,,,,,,,,,,,,,,,,,,,,,,,,,,,,,,,,,,,,,
,,,,,951473,001,2025-03-16_19h39.11.089,Utility_discrimination_2024_2cat,2024.2.4,MacIntel,60.24096386,,,,,,,,2,"[0.5,0.5]","[0.707,0.707]",s,"[0.6095161251574974,0.5453946709256726]","[0.3904838748425025,0.4546053290743273]",90.7295,93.2747,0,s,0,1.0148,,0.008797352,0.664308158,0.655510806,93.2774,93.2774,0,4,4,4,1,0.118523945,0.118523945,shape_difference1,1,,TRUE,,intensity,0.1,0.05,0.7,0.3,0.82,20,400,1E-11,3.5,0.01,0.5,0.1,,,,,,,,,,,,,,,,,,,,,,,,,,,,,,,,,,,,,,,,,,,,,,,,,,,,,,,,,,,,,,,,,,,,,,,,,,,,,,,,,
,,,,,951473,001,2025-03-16_19h39.11.089,Utility_discrimination_2024_2cat,2024.2.4,MacIntel,60.24096386,,,,,,,,4,"[0.5,0.5]","[0,1]",d,"[0.7295760208722043,0.7295760208722043]","[0.2704239791277957,0.2704239791277957]",93.2786,96.9257,1,d,1,2.1198,,-0.479157219,0.478510979,0.957668197,96.9279,96.9279,0,5,5,5,1,0.324718559,0.324718559,shape_difference2,1,,TRUE,,intensity,0.1,0.05,0.7,0.3,0.82,20,400,1E-11,3.5,0.01,0.5,0.1,,,,,,,,,,,,,,,,,,,,,,,,,,,,,,,,,,,,,,,,,,,,,,,,,,,,,,,,,,,,,,,,,,,,,,,,,,,,,,,,,
,,,,,951473,001,2025-03-16_19h39.11.089,Utility_discrimination_2024_2cat,2024.2.4,MacIntel,60.24096386,,,,,,,,3,"[0.5,0.5]","[0.383,0.924]",d,"[0.5,0.5370015867235566]","[0.5,0.4629984132764434]",96.9295,98.5588,1,d,1,0.0995,,0.008797352,0.664308158,0.655510806,98.5606,98.5606,0,6,6,6,1,0.037001587,0.037001587,shape_difference4,1,,TRUE,,intensity,0.1,0.05,0.7,0.3,0.82,20,400,1E-11,3.5,0.01,0.5,0.1,,,,,,,,,,,,,,,,,,,,,,,,,,,,,,,,,,,,,,,,,,,,,,,,,,,,,,,,,,,,,,,,,,,,,,,,,,,,,,,,,
,,,,,951473,001,2025-03-16_19h39.11.089,Utility_discrimination_2024_2cat,2024.2.4,MacIntel,60.24096386,,,,,,,,1,"[0.5,0.5]","[0.924,0.383]",d,"[0.6243672079123823,0.8000399480706037]","[0.37563279208761774,0.19996005192939625]",98.5609,100.4425,1,s,1,0.3511,,0.008797352,0.664308158,0.655510806,100.4457,100.4457,0,7,7,7,1,0.324718559,0.324718559,shape_difference3,1,,TRUE,,intensity,0.1,0.05,0.7,0.3,0.82,20,400,1E-11,3.5,0.01,0.5,0.1,,,,,,,,,,,,,,,,,,,,,,,,,,,,,,,,,,,,,,,,,,,,,,,,,,,,,,,,,,,,,,,,,,,,,,,,,,,,,,,,,
,,,,,951473,001,2025-03-16_19h39.11.089,Utility_discrimination_2024_2cat,2024.2.4,MacIntel,60.24096386,,,,,,,,0,"[0.5,0.5]","[1,0]",s,"[0.8000399480706037,0.6243672079123823]","[0.19996005192939625,0.37563279208761774]",100.448,101.9758,1,d,1,0.008,,0.008797352,0.664308158,0.655510806,101.9788,101.9789,0,8,8,8,1,0.324718559,0.324718559,shape_difference1,1,,TRUE,,intensity,0.1,0.05,0.7,0.3,0.82,20,400,1E-11,3.5,0.01,0.5,0.1,,,,,,,,,,,,,,,,,,,,,,,,,,,,,,,,,,,,,,,,,,,,,,,,,,,,,,,,,,,,,,,,,,,,,,,,,,,,,,,,,
,,,,,951473,001,2025-03-16_19h39.11.089,Utility_discrimination_2024_2cat,2024.2.4,MacIntel,60.24096386,,,,,,,,2,"[0.5,0.5]","[0.707,0.707]",d,"[0.8247185585179694,0.5]","[0.17528144148203062,0.5]",101.9797,103.5756,0,s,0,0.0758,,-0.003741292,0.604569979,0.608311271,103.5777,103.5777,0,9,9,9,1,0.324718559,0.324718559,shape_difference0,1,,TRUE,,intensity,0.1,0.05,0.7,0.3,0.82,20,400,1E-11,3.5,0.01,0.5,0.1,,,,,,,,,,,,,,,,,,,,,,,,,,,,,,,,,,,,,,,,,,,,,,,,,,,,,,,,,,,,,,,,,,,,,,,,,,,,,,,,,
,,,,,951473,001,2025-03-16_19h39.11.089,Utility_discrimination_2024_2cat,2024.2.4,MacIntel,60.24096386,,,,,,,,3,"[0.5,0.5]","[0.383,0.924]",d,"[0.6942958639235853,0.6942958639235853]","[0.30570413607641467,0.30570413607641467]",103.5781,105.1924,0,s,0,0.0829,,-0.003741292,0.604569979,0.608311271,105.1935,105.1935,0,10,10,10,1,0.274817346,0.274817346,shape_difference2,1,,TRUE,,intensity,0.1,0.05,0.7,0.3,0.82,20,400,1E-11,3.5,0.01,0.5,0.1,,,,,,,,,,,,,,,,,,,,,,,,,,,,,,,,,,,,,,,,,,,,,,,,,,,,,,,,,,,,,,,,,,,,,,,,,,,,,,,,,
,,,,,951473,001,2025-03-16_19h39.11.089,Utility_discrimination_2024_2cat,2024.2.4,MacIntel,60.24096386,,,,,,,,0,"[0.5,0.5]","[1,0]",d,"[0.6052550436813765,0.7539312280981512]","[0.3947449563186235,0.2460687719018489]",105.1939,108.3596,1,d,1,1.636,,0.200901354,0.758241115,0.557339761,108.3628,108.3628,0,11,11,11,1,0.274817346,0.274817346,shape_difference3,1,,TRUE,,intensity,0.1,0.05,0.7,0.3,0.82,20,400,1E-11,3.5,0.01,0.5,0.1,,,,,,,,,,,,,,,,,,,,,,,,,,,,,,,,,,,,,,,,,,,,,,,,,,,,,,,,,,,,,,,,,,,,,,,,,,,,,,,,,
,,,,,951473,001,2025-03-16_19h39.11.089,Utility_discrimination_2024_2cat,2024.2.4,MacIntel,60.24096386,,,,,,,,4,"[0.5,0.5]","[0,1]",d,"[0.9604328418247562,0.5]","[0.03956715817524381,0.5]",108.3638,110.2593,0,d,0,0.3678,,-0.510435314,0.404710629,0.915145943,110.2613,110.2613,0,12,12,12,1,0.460432842,0.460432842,shape_difference0,1,,TRUE,,intensity,0.1,0.05,0.7,0.3,0.82,20,400,1E-11,3.5,0.01,0.5,0.1,,,,,,,,,,,,,,,,,,,,,,,,,,,,,,,,,,,,,,,,,,,,,,,,,,,,,,,,,,,,,,,,,,,,,,,,,,,,,,,,,
,,,,,951473,001,2025-03-16_19h39.11.089,Utility_discrimination_2024_2cat,2024.2.4,MacIntel,60.24096386,,,,,,,,1,"[0.5,0.5]","[0.924,0.383]",s,"[0.5,0.4627317496680746]","[0.5,0.5372682503319254]",110.2629,111.9431,1,d,1,0.1494,,-0.003741292,0.604569979,0.608311271,111.9463,111.9464,0,13,13,13,1,-0.03726825,-0.03726825,shape_difference4,1,,TRUE,,intensity,0.1,0.05,0.7,0.3,0.82,20,400,1E-11,3.5,0.01,0.5,0.1,,,,,,,,,,,,,,,,,,,,,,,,,,,,,,,,,,,,,,,,,,,,,,,,,,,,,,,,,,,,,,,,,,,,,,,,,,,,,,,,,
,,,,,951473,001,2025-03-16_19h39.11.089,Utility_discrimination_2024_2cat,2024.2.4,MacIntel,60.24096386,,,,,,,,0,"[0.5,0.5]","[1,0]",d,"[0.7539312280981512,0.6052550436813765]","[0.2460687719018489,0.3947449563186235]",111.9474,113.6097,1,s,1,0.1448,,0.356937718,0.867366385,0.510428667,113.6119,113.612,0,14,14,14,1,0.274817346,0.274817346,shape_difference1,1,,TRUE,,intensity,0.1,0.05,0.7,0.3,0.82,20,400,1E-11,3.5,0.01,0.5,0.1,,,,,,,,,,,,,,,,,,,,,,,,,,,,,,,,,,,,,,,,,,,,,,,,,,,,,,,,,,,,,,,,,,,,,,,,,,,,,,,,,
,,,,,951473,001,2025-03-16_19h39.11.089,Utility_discrimination_2024_2cat,2024.2.4,MacIntel,60.24096386,,,,,,,,4,"[0.5,0.5]","[0,1]",s,"[1.1002865038315122,0.5]","[-0.10028650383151216,0.5]",113.6136,116.7599,0,s,0,1.6179,,-0.540713527,0.322166073,0.862879599,116.7622,116.7622,0,15,15,15,1,0.600286504,0.600286504,shape_difference0,1,,TRUE,,intensity,0.1,0.05,0.7,0.3,0.82,20,400,1E-11,3.5,0.01,0.5,0.1,,,,,,,,,,,,,,,,,,,,,,,,,,,,,,,,,,,,,,,,,,,,,,,,,,,,,,,,,,,,,,,,,,,,,,,,,,,,,,,,,
,,,,,951473,001,2025-03-16_19h39.11.089,Utility_discrimination_2024_2cat,2024.2.4,MacIntel,60.24096386,,,,,,,,2,"[0.5,0.5]","[0.707,0.707]",d,"[0.5,0.40339734014384304]","[0.5,0.5966026598561569]",116.7632,118.3767,0,d,0,0.083,,0.166924593,0.726757578,0.559832986,118.3799,118.38,0,16,16,16,1,-0.09660266,-0.09660266,shape_difference4,1,,TRUE,,intensity,0.1,0.05,0.7,0.3,0.82,20,400,1E-11,3.5,0.01,0.5,0.1,,,,,,,,,,,,,,,,,,,,,,,,,,,,,,,,,,,,,,,,,,,,,,,,,,,,,,,,,,,,,,,,,,,,,,,,,,,,,,,,,
,,,,,951473,001,2025-03-16_19h39.11.089,Utility_discrimination_2024_2cat,2024.2.4,MacIntel,60.24096386,,,,,,,,3,"[0.5,0.5]","[0.383,0.924]",s,"[0.8022406483765934,0.8022406483765934]","[0.19775935162340663,0.19775935162340663]",118.3813,120.0594,1,d,1,0.1527,,-0.026700702,0.552121039,0.578821741,120.0616,120.0616,0,17,17,17,1,0.427497381,0.427497381,shape_difference2,1,,TRUE,,intensity,0.1,0.05,0.7,0.3,0.82,20,400,1E-11,3.5,0.01,0.5,0.1,,,,,,,,,,,,,,,,,,,,,,,,,,,,,,,,,,,,,,,,,,,,,,,,,,,,,,,,,,,,,,,,,,,,,,,,,,,,,,,,,
,,,,,951473,001,2025-03-16_19h39.11.089,Utility_discrimination_2024_2cat,2024.2.4,MacIntel,60.24096386,,,,,,,,1,"[0.5,0.5]","[0.924,0.383]",d,"[0.5904518175805076,0.7182179619957938]","[0.4095481824194924,0.2817820380042062]",120.0635,121.7928,1,s,1,0.2006,,-0.026700702,0.552121039,0.578821741,121.7962,121.7962,0,18,18,18,1,0.236166626,0.236166626,shape_difference3,1,,TRUE,,intensity,0.1,0.05,0.7,0.3,0.82,20,400,1E-11,3.5,0.01,0.5,0.1,,,,,,,,,,,,,,,,,,,,,,,,,,,,,,,,,,,,,,,,,,,,,,,,,,,,,,,,,,,,,,,,,,,,,,,,,,,,,,,,,
,,,,,951473,001,2025-03-16_19h39.11.089,Utility_discrimination_2024_2cat,2024.2.4,MacIntel,60.24096386,,,,,,,,2,"[0.5,0.5]","[0.707,0.707]",s,"[0.7182179619957938,0.5904518175805076]","[0.2817820380042062,0.4095481824194924]",121.7974,123.5103,1,d,1,0.1866,,0.148866283,0.680621755,0.531755473,123.5122,123.5122,0,19,19,19,1,0.236166626,0.236166626,shape_difference1,1,,TRUE,,intensity,0.1,0.05,0.7,0.3,0.82,20,400,1E-11,3.5,0.01,0.5,0.1,,,,,,,,,,,,,,,,,,,,,,,,,,,,,,,,,,,,,,,,,,,,,,,,,,,,,,,,,,,,,,,,,,,,,,,,,,,,,,,,,
,,,,,951473,001,2025-03-16_19h39.11.089,Utility_discrimination_2024_2cat,2024.2.4,MacIntel,60.24096386,,,,,,,,4,"[0.5,0.5]","[0,1]",d,"[0.7740882602950733,0.7740882602950733]","[0.22591173970492673,0.22591173970492673]",123.5142,127.4271,1,s,1,2.3893,,-0.198081498,0.472058333,0.670139831,127.4296,127.4299,0,20,20,20,1,0.387677879,0.387677879,shape_difference2,1,,TRUE,,intensity,0.1,0.05,0.7,0.3,0.82,20,400,1E-11,3.5,0.01,0.5,0.1,,,,,,,,,,,,,,,,,,,,,,,,,,,,,,,,,,,,,,,,,,,,,,,,,,,,,,,,,,,,,,,,,,,,,,,,,,,,,,,,,
,,,,,951473,001,2025-03-16_19h39.11.089,Utility_discrimination_2024_2cat,2024.2.4,MacIntel,60.24096386,,,,,,,,3,"[0.5,0.5]","[0.383,0.924]",s,"[0.5,0.5693024605353912]","[0.5,0.43069753946460876]",127.4314,128.9604,1,s,1,0.0018,,-0.050981617,0.494068035,0.545049652,128.9617,128.9617,0,21,21,21,1,0.069302461,0.069302461,shape_difference4,1,,TRUE,,intensity,0.1,0.05,0.7,0.3,0.82,20,400,1E-11,3.5,0.01,0.5,0.1,,,,,,,,,,,,,,,,,,,,,,,,,,,,,,,,,,,,,,,,,,,,,,,,,,,,,,,,,,,,,,,,,,,,,,,,,,,,,,,,,
,,,,,951473,001,2025-03-16_19h39.11.089,Utility_discrimination_2024_2cat,2024.2.4,MacIntel,60.24096386,,,,,,,,1,"[0.5,0.5]","[0.924,0.383]",s,"[0.5753418592221956,0.6817646943115111]","[0.4246581407778044,0.3182353056884889]",128.9623,130.6437,0,d,0,0.1591,,-0.050981617,0.494068035,0.545049652,130.6458,130.6458,0,22,22,22,1,0.196715037,0.196715037,shape_difference3,1,,TRUE,,intensity,0.1,0.05,0.7,0.3,0.82,20,400,1E-11,3.5,0.01,0.5,0.1,,,,,,,,,,,,,,,,,,,,,,,,,,,,,,,,,,,,,,,,,,,,,,,,,,,,,,,,,,,,,,,,,,,,,,,,,,,,,,,,,
,,,,,951473,001,2025-03-16_19h39.11.089,Utility_discrimination_2024_2cat,2024.2.4,MacIntel,60.24096386,,,,,,,,0,"[0.5,0.5]","[1,0]",s,"[0.6817646943115111,0.5753418592221956]","[0.3182353056884889,0.4246581407778044]",130.6466,132.378,1,d,1,0.2117,,0.484808729,0.947322582,0.462513853,132.3801,132.3802,0,23,23,23,1,0.196715037,0.196715037,shape_difference1,1,,TRUE,,intensity,0.1,0.05,0.7,0.3,0.82,20,400,1E-11,3.5,0.01,0.5,0.1,,,,,,,,,,,,,,,,,,,,,,,,,,,,,,,,,,,,,,,,,,,,,,,,,,,,,,,,,,,,,,,,,,,,,,,,,,,,,,,,,
,,,,,951473,001,2025-03-16_19h39.11.089,Utility_discrimination_2024_2cat,2024.2.4,MacIntel,60.24096386,,,,,,,,3,"[0.5,0.5]","[0.383,0.924]",d,"[1.1985564984272785,0.5]","[-0.19855649842727852,0.5]",132.3818,133.9938,1,s,1,0.0924,,0.086822279,0.600153011,0.513330733,133.995,133.9951,0,24,24,24,1,0.698556498,0.698556498,shape_difference0,1,,TRUE,,intensity,0.1,0.05,0.7,0.3,0.82,20,400,1E-11,3.5,0.01,0.5,0.1,,,,,,,,,,,,,,,,,,,,,,,,,,,,,,,,,,,,,,,,,,,,,,,,,,,,,,,,,,,,,,,,,,,,,,,,,,,,,,,,,
,,,,,951473,001,2025-03-16_19h39.11.089,Utility_discrimination_2024_2cat,2024.2.4,MacIntel,60.24096386,,,,,,,,4,"[0.5,0.5]","[0,1]",s,"[0.614361634449184,0.7759011755379792]","[0.385638365550816,0.22409882446202078]",133.9955,135.844,0,d,0,0.3178,,-0.215333829,0.393351265,0.608685094,135.8451,135.8452,0,25,25,25,1,0.298594346,0.298594346,shape_difference3,1,,TRUE,,intensity,0.1,0.05,0.7,0.3,0.82,20,400,1E-11,3.5,0.01,0.5,0.1,,,,,,,,,,,,,,,,,,,,,,,,,,,,,,,,,,,,,,,,,,,,,,,,,,,,,,,,,,,,,,,,,,,,,,,,,,,,,,,,,
,,,,,951473,001,2025-03-16_19h39.11.089,Utility_discrimination_2024_2cat,2024.2.4,MacIntel,60.24096386,,,,,,,,0,"[0.5,0.5]","[1,0]",s,"[0.5,0.5251085011024841]","[0.5,0.47489149889751586]",135.846,137.4111,1,d,1,0.0335,,0.465910148,0.899509208,0.43359906,137.4135,137.4135,0,26,26,26,1,0.025108501,0.025108501,shape_difference4,1,,TRUE,,intensity,0.1,0.05,0.7,0.3,0.82,20,400,1E-11,3.5,0.01,0.5,0.1,,,,,,,,,,,,,,,,,,,,,,,,,,,,,,,,,,,,,,,,,,,,,,,,,,,,,,,,,,,,,,,,,,,,,,,,,,,,,,,,,
,,,,,951473,001,2025-03-16_19h39.11.089,Utility_discrimination_2024_2cat,2024.2.4,MacIntel,60.24096386,,,,,,,,1,"[0.5,0.5]","[0.924,0.383]",d,"[1.1739771625531974,0.5]","[-0.17397716255319728,0.5]",137.4146,139.5105,0,d,0,0.5682,,-0.067097964,0.445046575,0.512144539,139.5125,139.5125,0,27,27,27,1,0.673977163,0.673977163,shape_difference0,1,,TRUE,,intensity,0.1,0.05,0.7,0.3,0.82,20,400,1E-11,3.5,0.01,0.5,0.1,,,,,,,,,,,,,,,,,,,,,,,,,,,,,,,,,,,,,,,,,,,,,,,,,,,,,,,,,,,,,,,,,,,,,,,,,,,,,,,,,
,,,,,951473,001,2025-03-16_19h39.11.089,Utility_discrimination_2024_2cat,2024.2.4,MacIntel,60.24096386,,,,,,,,2,"[0.5,0.5]","[0.707,0.707]",s,"[0.657167979377494,0.5651464676424028]","[0.34283202062250595,0.43485353235759716]",139.5134,162.8631,0,s,0,21.8287,,0.136850714,0.6315547,0.494703986,162.8661,162.8661,0,28,28,28,1,0.170095216,0.170095216,shape_difference1,1,,TRUE,,intensity,0.1,0.05,0.7,0.3,0.82,20,400,1E-11,3.5,0.01,0.5,0.1,,,,,,,,,,,,,,,,,,,,,,,,,,,,,,,,,,,,,,,,,,,,,,,,,,,,,,,,,,,,,,,,,,,,,,,,,,,,,,,,,
,,,,,951473,001,2025-03-16_19h39.11.089,Utility_discrimination_2024_2cat,2024.2.4,MacIntel,60.24096386,,,,,,,,0,"[0.5,0.5]","[1,0]",d,"[0.7541980047335541,0.7541980047335541]","[0.24580199526644586,0.24580199526644586]",162.8667,164.4621,1,d,1,0.076,,0.560876155,0.989102598,0.428226443,164.4632,164.4632,0,29,29,29,1,0.359544561,0.359544561,shape_difference2,1,,TRUE,,intensity,0.1,0.05,0.7,0.3,0.82,20,400,1E-11,3.5,0.01,0.5,0.1,,,,,,,,,,,,,,,,,,,,,,,,,,,,,,,,,,,,,,,,,,,,,,,,,,,,,,,,,,,,,,,,,,,,,,,,,,,,,,,,,
,,,,,951473,001,2025-03-16_19h39.11.089,Utility_discrimination_2024_2cat,2024.2.4,MacIntel,60.24096386,,,,,,,,2,"[0.5,0.5]","[0.707,0.707]",d,"[1.2665939481597848,0.5]","[-0.26659394815978465,0.5]",164.4635,166.1792,1,d,1,0.187,,0.12859591,0.580703272,0.452107362,166.1822,166.1822,0,30,30,30,1,0.766593948,0.766593948,shape_difference0,1,,TRUE,,intensity,0.1,0.05,0.7,0.3,0.82,20,400,1E-11,3.5,0.01,0.5,0.1,,,,,,,,,,,,,,,,,,,,,,,,,,,,,,,,,,,,,,,,,,,,,,,,,,,,,,,,,,,,,,,,,,,,,,,,,,,,,,,,,
,,,,,951473,001,2025-03-16_19h39.11.089,Utility_discrimination_2024_2cat,2024.2.4,MacIntel,60.24096386,,,,,,,,3,"[0.5,0.5]","[0.383,0.924]",d,"[0.7369141807496373,0.7369141807496373]","[0.2630858192503627,0.2630858192503627]",166.1835,167.7779,1,d,1,0.0654,,0.182403504,0.698781918,0.516378414,167.7786,167.7786,0,31,31,31,1,0.335097851,0.335097851,shape_difference2,1,,TRUE,,intensity,0.1,0.05,0.7,0.3,0.82,20,400,1E-11,3.5,0.01,0.5,0.1,,,,,,,,,,,,,,,,,,,,,,,,,,,,,,,,,,,,,,,,,,,,,,,,,,,,,,,,,,,,,,,,,,,,,,,,,,,,,,,,,
,,,,,951473,001,2025-03-16_19h39.11.089,Utility_discrimination_2024_2cat,2024.2.4,MacIntel,60.24096386,,,,,,,,4,"[0.5,0.5]","[0,1]",d,"[0.6557863248831409,0.8758395931906585]","[0.3442136751168591,0.12416040680934148]",167.7789,170.7958,1,d,1,1.4815,,-0.239398786,0.328322717,0.567721502,170.7975,170.7975,0,32,32,32,1,0.406752806,0.406752806,shape_difference3,1,,TRUE,,intensity,0.1,0.05,0.7,0.3,0.82,20,400,1E-11,3.5,0.01,0.5,0.1,,,,,,,,,,,,,,,,,,,,,,,,,,,,,,,,,,,,,,,,,,,,,,,,,,,,,,,,,,,,,,,,,,,,,,,,,,,,,,,,,
,,,,,951473,001,2025-03-16_19h39.11.089,Utility_discrimination_2024_2cat,2024.2.4,MacIntel,60.24096386,,,,,,,,1,"[0.5,0.5]","[0.924,0.383]",d,"[0.5,0.48720969542549997]","[0.5,0.5127903045745]",170.7982,206.0829,1,d,1,33.7646,,0.060879157,0.569881129,0.509001971,206.0923,206.0923,0,33,33,33,1,-0.012790305,-0.012790305,shape_difference4,1,,TRUE,,intensity,0.1,0.05,0.7,0.3,0.82,20,400,1E-11,3.5,0.01,0.5,0.1,,,,,,,,,,,,,,,,,,,,,,,,,,,,,,,,,,,,,,,,,,,,,,,,,,,,,,,,,,,,,,,,,,,,,,,,,,,,,,,,,
,,,,,951473,001,2025-03-16_19h39.11.089,Utility_discrimination_2024_2cat,2024.2.4,MacIntel,60.24096386,,,,,,,,2,"[0.5,0.5]","[0.707,0.707]",d,"[0.7529895852188989,0.6048647306697384]","[0.24701041478110108,0.3951352693302616]",206.0934,207.9632,1,s,1,0.3514,,0.119455585,0.543238675,0.42378309,207.9654,207.9655,0,34,34,34,1,0.273798252,0.273798252,shape_difference1,1,,TRUE,,intensity,0.1,0.05,0.7,0.3,0.82,20,400,1E-11,3.5,0.01,0.5,0.1,,,,,,,,,,,,,,,,,,,,,,,,,,,,,,,,,,,,,,,,,,,,,,,,,,,,,,,,,,,,,,,,,,,,,,,,,,,,,,,,,
,,,,,951473,001,2025-03-16_19h39.11.089,Utility_discrimination_2024_2cat,2024.2.4,MacIntel,60.24096386,,,,,,,,3,"[0.5,0.5]","[0.383,0.924]",s,"[0.7185941289259962,0.7185941289259962]","[0.28140587107400383,0.28140587107400383]",207.9674,209.8814,0,s,0,0.3836,,0.163711044,0.659638324,0.49592728,209.8841,209.8842,0,35,35,35,1,0.309185472,0.309185472,shape_difference2,1,,TRUE,,intensity,0.1,0.05,0.7,0.3,0.82,20,400,1E-11,3.5,0.01,0.5,0.1,,,,,,,,,,,,,,,,,,,,,,,,,,,,,,,,,,,,,,,,,,,,,,,,,,,,,,,,,,,,,,,,,,,,,,,,,,,,,,,,,
,,,,,951473,001,2025-03-16_19h39.11.089,Utility_discrimination_2024_2cat,2024.2.4,MacIntel,60.24096386,,,,,,,,4,"[0.5,0.5]","[0,1]",d,"[0.6437840997867532,0.8468838334280939]","[0.3562159002132468,0.15311616657190613]",209.8858,211.9815,1,s,1,0.5676,,-0.255380652,0.258309382,0.513690034,211.9845,211.9845,0,36,36,36,1,0.375415404,0.375415404,shape_difference3,1,,TRUE,,intensity,0.1,0.05,0.7,0.3,0.82,20,400,1E-11,3.5,0.01,0.5,0.1,,,,,,,,,,,,,,,,,,,,,,,,,,,,,,,,,,,,,,,,,,,,,,,,,,,,,,,,,,,,,,,,,,,,,,,,,,,,,,,,,
,,,,,951473,001,2025-03-16_19h39.11.089,Utility_discrimination_2024_2cat,2024.2.4,MacIntel,60.24096386,,,,,,,,1,"[0.5,0.5]","[0.924,0.383]",s,"[0.5,0.4624281625588835]","[0.5,0.5375718374411165]",211.9859,213.5636,1,d,1,0.05,,0.04845466,0.508656626,0.460201966,213.5655,213.5655,0,37,37,37,1,-0.037571837,-0.037571837,shape_difference4,1,,TRUE,,intensity,0.1,0.05,0.7,0.3,0.82,20,400,1E-11,3.5,0.01,0.5,0.1,,,,,,,,,,,,,,,,,,,,,,,,,,,,,,,,,,,,,,,,,,,,,,,,,,,,,,,,,,,,,,,,,,,,,,,,,,,,,,,,,
,,,,,951473,001,2025-03-16_19h39.11.089,Utility_discrimination_2024_2cat,2024.2.4,MacIntel,60.24096386,,,,,,,,0,"[0.5,0.5]","[1,0]",d,"[0.7302700491250831,0.5954474337823668]","[0.2697299508749169,0.4045525662176333]",213.5662,215.2469,0,d,0,0.1608,,0.54947875,0.960269583,0.410790834,215.2476,215.2476,0,38,38,38,1,0.24921001,0.24921001,shape_difference1,1,,TRUE,,intensity,0.1,0.05,0.7,0.3,0.82,20,400,1E-11,3.5,0.01,0.5,0.1,,,,,,,,,,,,,,,,,,,,,,,,,,,,,,,,,,,,,,,,,,,,,,,,,,,,,,,,,,,,,,,,,,,,,,,,,,,,,,,,,
,,,,,951473,001,2025-03-16_19h39.11.089,Utility_discrimination_2024_2cat,2024.2.4,MacIntel,60.24096386,,,,,,,,2,"[0.5,0.5]","[0.707,0.707]",s,"[1.2460047212948382,0.5]","[-0.2460047212948383,0.5]",215.2483,217.0483,1,d,1,0.2685,,0.204597916,0.619596403,0.414998487,217.0512,217.0513,0,39,39,39,1,0.746004721,0.746004721,shape_difference0,1,,TRUE,,intensity,0.1,0.05,0.7,0.3,0.82,20,400,1E-11,3.5,0.01,0.5,0.1,,,,,,,,,,,,,,,,,,,,,,,,,,,,,,,,,,,,,,,,,,,,,,,,,,,,,,,,,,,,,,,,,,,,,,,,,,,,,,,,,
,,,,,951473,001,2025-03-16_19h39.11.089,Utility_discrimination_2024_2cat,2024.2.4,MacIntel,60.24096386,,,,,,,,1,"[0.5,0.5]","[0.924,0.383]",d,"[0.7639061303149639,0.7639061303149639]","[0.2360938696850361,0.2360938696850361]",217.0529,218.6813,1,d,1,0.1174,,0.114153709,0.585760393,0.471606684,218.6838,218.6838,0,40,40,40,1,0.373275998,0.373275998,shape_difference2,1,,TRUE,,intensity,0.1,0.05,0.7,0.3,0.82,20,400,1E-11,3.5,0.01,0.5,0.1,,,,,,,,,,,,,,,,,,,,,,,,,,,,,,,,,,,,,,,,,,,,,,,,,,,,,,,,,,,,,,,,,,,,,,,,,,,,,,,,,
,,,,,951473,001,2025-03-16_19h39.11.089,Utility_discrimination_2024_2cat,2024.2.4,MacIntel,60.24096386,,,,,,,,0,"[0.5,0.5]","[1,0]",d,"[0.7773090745767436,0.6149452116481524]","[0.22269092542325641,0.3850547883518476]",218.6841,220.2156,1,d,1,0.0004,,0.537130744,0.928112005,0.390981261,220.22,220.22,0,41,41,41,1,0.300118046,0.300118046,shape_difference1,1,,TRUE,,intensity,0.1,0.05,0.7,0.3,0.82,20,400,1E-11,3.5,0.01,0.5,0.1,,,,,,,,,,,,,,,,,,,,,,,,,,,,,,,,,,,,,,,,,,,,,,,,,,,,,,,,,,,,,,,,,,,,,,,,,,,,,,,,,
,,,,,951473,001,2025-03-16_19h39.11.089,Utility_discrimination_2024_2cat,2024.2.4,MacIntel,60.24096386,,,,,,,,3,"[0.5,0.5]","[0.383,0.924]",d,"[1.2250203445694523,0.5]","[-0.2250203445694524,0.5]",220.2213,221.8649,1,d,1,0.1242,,0.151054659,0.59984704,0.448792381,221.866,221.866,0,42,42,42,1,0.725020345,0.725020345,shape_difference0,1,,TRUE,,intensity,0.1,0.05,0.7,0.3,0.82,20,400,1E-11,3.5,0.01,0.5,0.1,,,,,,,,,,,,,,,,,,,,,,,,,,,,,,,,,,,,,,,,,,,,,,,,,,,,,,,,,,,,,,,,,,,,,,,,,,,,,,,,,
,,,,,951473,001,2025-03-16_19h39.11.089,Utility_discrimination_2024_2cat,2024.2.4,MacIntel,60.24096386,,,,,,,,4,"[0.5,0.5]","[0,1]",d,"[0.6343566840336321,0.8241398852404076]","[0.3656433159663679,0.17586011475959246]",221.8665,223.4652,1,d,1,0.067,,-0.266366633,0.186912226,0.453278859,223.4682,223.4683,0,43,43,43,1,0.350800742,0.350800742,shape_difference3,1,,TRUE,,intensity,0.1,0.05,0.7,0.3,0.82,20,400,1E-11,3.5,0.01,0.5,0.1,,,,,,,,,,,,,,,,,,,,,,,,,,,,,,,,,,,,,,,,,,,,,,,,,,,,,,,,,,,,,,,,,,,,,,,,,,,,,,,,,
,,,,,951473,001,2025-03-16_19h39.11.089,Utility_discrimination_2024_2cat,2024.2.4,MacIntel,60.24096386,,,,,,,,3,"[0.5,0.5]","[0.383,0.924]",d,"[0.5,0.44122554940086756]","[0.5,0.5587744505991324]",223.4697,225.0484,1,d,1,0.0521,,0.142203489,0.561231724,0.419028235,225.0494,225.0494,0,44,44,44,1,-0.058774451,-0.058774451,shape_difference4,1,,TRUE,,intensity,0.1,0.05,0.7,0.3,0.82,20,400,1E-11,3.5,0.01,0.5,0.1,,,,,,,,,,,,,,,,,,,,,,,,,,,,,,,,,,,,,,,,,,,,,,,,,,,,,,,,,,,,,,,,,,,,,,,,,,,,,,,,,
,,,,,951473,001,2025-03-16_19h39.11.089,Utility_discrimination_2024_2cat,2024.2.4,MacIntel,60.24096386,,,,,,,,2,"[0.5,0.5]","[0.707,0.707]",d,"[0.6259990868149629,0.8039769091828346]","[0.37400091318503714,0.1960230908171654]",225.0497,226.6822,1,d,1,0.1019,,0.201480608,0.577806642,0.376326033,226.684,226.6841,0,45,45,45,1,0.328979339,0.328979339,shape_difference3,1,,TRUE,,intensity,0.1,0.05,0.7,0.3,0.82,20,400,1E-11,3.5,0.01,0.5,0.1,,,,,,,,,,,,,,,,,,,,,,,,,,,,,,,,,,,,,,,,,,,,,,,,,,,,,,,,,,,,,,,,,,,,,,,,,,,,,,,,,
,,,,,951473,001,2025-03-16_19h39.11.089,Utility_discrimination_2024_2cat,2024.2.4,MacIntel,60.24096386,,,,,,,,4,"[0.5,0.5]","[0,1]",d,"[0.7510518596464981,0.7510518596464981]","[0.24894814035350188,0.24894814035350188]",226.6851,228.3156,0,d,0,0.0992,,-0.278701373,0.144302552,0.423003925,228.3191,228.3191,0,46,46,46,1,0.355094568,0.355094568,shape_difference2,1,,TRUE,,intensity,0.1,0.05,0.7,0.3,0.82,20,400,1E-11,3.5,0.01,0.5,0.1,,,,,,,,,,,,,,,,,,,,,,,,,,,,,,,,,,,,,,,,,,,,,,,,,,,,,,,,,,,,,,,,,,,,,,,,,,,,,,,,,
,,,,,951473,001,2025-03-16_19h39.11.089,Utility_discrimination_2024_2cat,2024.2.4,MacIntel,60.24096386,,,,,,,,0,"[0.5,0.5]","[1,0]",s,"[0.5,0.4195123174165616]","[0.5,0.5804876825834384]",228.3202,231.1821,0,d,0,1.3457,,0.528403406,0.894217221,0.365813814,231.1828,231.1828,0,47,47,47,1,-0.080487683,-0.080487683,shape_difference4,1,,TRUE,,intensity,0.1,0.05,0.7,0.3,0.82,20,400,1E-11,3.5,0.01,0.5,0.1,,,,,,,,,,,,,,,,,,,,,,,,,,,,,,,,,,,,,,,,,,,,,,,,,,,,,,,,,,,,,,,,,,,,,,,,,,,,,,,,,
,,,,,951473,001,2025-03-16_19h39.11.089,Utility_discrimination_2024_2cat,2024.2.4,MacIntel,60.24096386,,,,,,,,1,"[0.5,0.5]","[0.924,0.383]",s,"[1.20165531399239,0.5]","[-0.20165531399239,0.5]",231.1832,232.9656,0,d,0,0.2496,,0.109686149,0.539570558,0.42988441,232.9675,232.9675,0,48,48,48,1,0.701655314,0.701655314,shape_difference0,1,,TRUE,,intensity,0.1,0.05,0.7,0.3,0.82,20,400,1E-11,3.5,0.01,0.5,0.1,,,,,,,,,,,,,,,,,,,,,,,,,,,,,,,,,,,,,,,,,,,,,,,,,,,,,,,,,,,,,,,,,,,,,,,,,,,,,,,,,
,,,,,951473,001,2025-03-16_19h39.11.089,Utility_discrimination_2024_2cat,2024.2.4,MacIntel,60.24096386,,,,,,,,3,"[0.5,0.5]","[0.383,0.924]",s,"[0.7577180134356514,0.6068246744002754]","[0.24228198656434863,0.39317532559972457]",232.9688,234.5312,1,d,1,0.0354,,0.132297669,0.517958092,0.385660424,234.5323,234.5324,0,49,49,49,1,0.278915599,0.278915599,shape_difference1,1,,TRUE,,intensity,0.1,0.05,0.7,0.3,0.82,20,400,1E-11,3.5,0.01,0.5,0.1,,,,,,,,,,,,,,,,,,,,,,,,,,,,,,,,,,,,,,,,,,,,,,,,,,,,,,,,,,,,,,,,,,,,,,,,,,,,,,,,,
,,,,,951473,001,2025-03-16_19h39.11.089,Utility_discrimination_2024_2cat,2024.2.4,MacIntel,60.24096386,,,,,,,,1,"[0.5,0.5]","[0.924,0.383]",d,"[0.6169595076783668,0.782168629490368]","[0.3830404923216332,0.21783137050963197]",234.5326,236.2996,1,d,1,0.2612,,0.106424777,0.487690033,0.381265257,236.3018,236.3018,0,50,50,50,1,0.305377305,0.305377305,shape_difference3,1,,TRUE,,intensity,0.1,0.05,0.7,0.3,0.82,20,400,1E-11,3.5,0.01,0.5,0.1,,,,,,,,,,,,,,,,,,,,,,,,,,,,,,,,,,,,,,,,,,,,,,,,,,,,,,,,,,,,,,,,,,,,,,,,,,,,,,,,,
,,,,,951473,001,2025-03-16_19h39.11.089,Utility_discrimination_2024_2cat,2024.2.4,MacIntel,60.24096386,,,,,,,,4,"[0.5,0.5]","[0,1]",d,"[0.7415333089553047,0.6001160793613438]","[0.2584666910446954,0.3998839206386562]",236.3029,237.9993,0,d,0,0.1662,,-0.192131309,0.238951032,0.431082341,238.0023,238.0024,0,51,51,51,1,0.261399685,0.261399685,shape_difference1,1,,TRUE,,intensity,0.1,0.05,0.7,0.3,0.82,20,400,1E-11,3.5,0.01,0.5,0.1,,,,,,,,,,,,,,,,,,,,,,,,,,,,,,,,,,,,,,,,,,,,,,,,,,,,,,,,,,,,,,,,,,,,,,,,,,,,,,,,,
,,,,,951473,001,2025-03-16_19h39.11.089,Utility_discrimination_2024_2cat,2024.2.4,MacIntel,60.24096386,,,,,,,,0,"[0.5,0.5]","[1,0]",s,"[0.5,0.4725825492583098]","[0.5,0.5274174507416902]",238.0037,239.7658,1,d,1,0.2319,,0.604454393,0.963608252,0.35915386,239.7671,239.7671,0,52,52,52,1,-0.027417451,-0.027417451,shape_difference4,1,,TRUE,,intensity,0.1,0.05,0.7,0.3,0.82,20,400,1E-11,3.5,0.01,0.5,0.1,,,,,,,,,,,,,,,,,,,,,,,,,,,,,,,,,,,,,,,,,,,,,,,,,,,,,,,,,,,,,,,,,,,,,,,,,,,,,,,,,
,,,,,951473,001,2025-03-16_19h39.11.089,Utility_discrimination_2024_2cat,2024.2.4,MacIntel,60.24096386,,,,,,,,2,"[0.5,0.5]","[0.707,0.707]",d,"[1.2604050636376827,0.5]","[-0.2604050636376827,0.5]",239.7677,241.3824,0,d,0,0.0831,,0.245235978,0.686308717,0.441072739,241.3843,241.3844,0,53,53,53,1,0.760405064,0.760405064,shape_difference0,1,,TRUE,,intensity,0.1,0.05,0.7,0.3,0.82,20,400,1E-11,3.5,0.01,0.5,0.1,,,,,,,,,,,,,,,,,,,,,,,,,,,,,,,,,,,,,,,,,,,,,,,,,,,,,,,,,,,,,,,,,,,,,,,,,,,,,,,,,
,,,,,951473,001,2025-03-16_19h39.11.089,Utility_discrimination_2024_2cat,2024.2.4,MacIntel,60.24096386,,,,,,,,2,"[0.5,0.5]","[0.707,0.707]",s,"[0.8100076441770437,0.8100076441770437]","[0.18999235582295626,0.18999235582295626]",241.3852,243.6993,1,d,1,0.786,,0.234650051,0.652807959,0.418157908,243.7012,243.7013,0,54,54,54,1,0.438483231,0.438483231,shape_difference2,1,,TRUE,,intensity,0.1,0.05,0.7,0.3,0.82,20,400,1E-11,3.5,0.01,0.5,0.1,,,,,,,,,,,,,,,,,,,,,,,,,,,,,,,,,,,,,,,,,,,,,,,,,,,,,,,,,,,,,,,,,,,,,,,,,,,,,,,,,
,,,,,951473,001,2025-03-16_19h39.11.089,Utility_discrimination_2024_2cat,2024.2.4,MacIntel,60.24096386,,,,,,,,4,"[0.5,0.5]","[0,1]",d,"[0.792157608866814,0.792157608866814]","[0.20784239113318603,0.20784239113318603]",243.7028,245.8996,0,s,0,0.6689,,-0.195269521,0.17961428,0.374883801,245.901,245.901,0,55,55,55,1,0.413235656,0.413235656,shape_difference2,1,,TRUE,,intensity,0.1,0.05,0.7,0.3,0.82,20,400,1E-11,3.5,0.01,0.5,0.1,,,,,,,,,,,,,,,,,,,,,,,,,,,,,,,,,,,,,,,,,,,,,,,,,,,,,,,,,,,,,,,,,,,,,,,,,,,,,,,,,
,,,,,951473,001,2025-03-16_19h39.11.089,Utility_discrimination_2024_2cat,2024.2.4,MacIntel,60.24096386,,,,,,,,3,"[0.5,0.5]","[0.383,0.924]",d,"[0.5,0.4566523497606638]","[0.5,0.5433476502393362]",245.9019,247.4661,1,d,1,0.0353,,0.125200837,0.485529059,0.360328222,247.4687,247.4688,0,56,56,56,1,-0.04334765,-0.04334765,shape_difference4,1,,TRUE,,intensity,0.1,0.05,0.7,0.3,0.82,20,400,1E-11,3.5,0.01,0.5,0.1,,,,,,,,,,,,,,,,,,,,,,,,,,,,,,,,,,,,,,,,,,,,,,,,,,,,,,,,,,,,,,,,,,,,,,,,,,,,,,,,,
,,,,,951473,001,2025-03-16_19h39.11.089,Utility_discrimination_2024_2cat,2024.2.4,MacIntel,60.24096386,,,,,,,,1,"[0.5,0.5]","[0.924,0.383]",d,"[0.6105673394966155,0.7667473151302159]","[0.38943266050338454,0.23325268486978412]",247.4699,250.1,0,d,0,1.1009,,0.15088641,0.599060666,0.448174255,250.1024,250.1024,0,57,57,57,1,0.28868757,0.28868757,shape_difference3,1,,TRUE,,intensity,0.1,0.05,0.7,0.3,0.82,20,400,1E-11,3.5,0.01,0.5,0.1,,,,,,,,,,,,,,,,,,,,,,,,,,,,,,,,,,,,,,,,,,,,,,,,,,,,,,,,,,,,,,,,,,,,,,,,,,,,,,,,,
,,,,,951473,001,2025-03-16_19h39.11.089,Utility_discrimination_2024_2cat,2024.2.4,MacIntel,60.24096386,,,,,,,,0,"[0.5,0.5]","[1,0]",s,"[0.8156002450106647,0.630816984674334]","[0.18439975498933525,0.369183015325666]",250.1039,253.3168,1,d,1,1.6835,,0.649307013,1.044173747,0.394866733,253.3189,253.3189,0,58,58,58,1,0.341558707,0.341558707,shape_difference1,1,,TRUE,,intensity,0.1,0.05,0.7,0.3,0.82,20,400,1E-11,3.5,0.01,0.5,0.1,,,,,,,,,,,,,,,,,,,,,,,,,,,,,,,,,,,,,,,,,,,,,,,,,,,,,,,,,,,,,,,,,,,,,,,,,,,,,,,,,
,,,,,951473,001,2025-03-16_19h39.11.089,Utility_discrimination_2024_2cat,2024.2.4,MacIntel,60.24096386,,,,,,,,4,"[0.5,0.5]","[0,1]",d,"[1.3367132195654592,0.5]","[-0.3367132195654591,0.5]",253.3201,255.6333,1,d,1,0.7826,,-0.197690481,0.130134124,0.327824605,255.6351,255.6351,0,59,59,59,1,0.83671322,0.83671322,shape_difference0,1,,TRUE,,intensity,0.1,0.05,0.7,0.3,0.82,20,400,1E-11,3.5,0.01,0.5,0.1,,,,,,,,,,,,,,,,,,,,,,,,,,,,,,,,,,,,,,,,,,,,,,,,,,,,,,,,,,,,,,,,,,,,,,,,,,,,,,,,,
,,,,,951473,001,2025-03-16_19h39.11.089,Utility_discrimination_2024_2cat,2024.2.4,MacIntel,60.24096386,,,,,,,,1,"[0.5,0.5]","[0.924,0.383]",d,"[0.5,0.44260980885551926]","[0.5,0.5573901911444807]",255.6362,261.0005,1,d,1,3.834,,0.138973387,0.56649956,0.427526173,261.0027,261.0027,0,60,60,60,1,-0.057390191,-0.057390191,shape_difference4,1,,TRUE,,intensity,0.1,0.05,0.7,0.3,0.82,20,400,1E-11,3.5,0.01,0.5,0.1,,,,,,,,,,,,,,,,,,,,,,,,,,,,,,,,,,,,,,,,,,,,,,,,,,,,,,,,,,,,,,,,,,,,,,,,,,,,,,,,,
,,,,,951473,001,2025-03-16_19h39.11.089,Utility_discrimination_2024_2cat,2024.2.4,MacIntel,60.24096386,,,,,,,,3,"[0.5,0.5]","[0.383,0.924]",d,"[0.7923333777720616,0.6211728178427485]","[0.2076666222279384,0.37882718215725153]",261.0038,262.7173,1,d,1,0.1895,,0.202077515,0.566786358,0.364708844,262.7202,262.7202,0,61,61,61,1,0.316378114,0.316378114,shape_difference1,1,,TRUE,,intensity,0.1,0.05,0.7,0.3,0.82,20,400,1E-11,3.5,0.01,0.5,0.1,,,,,,,,,,,,,,,,,,,,,,,,,,,,,,,,,,,,,,,,,,,,,,,,,,,,,,,,,,,,,,,,,,,,,,,,,,,,,,,,,
,,,,,951473,001,2025-03-16_19h39.11.089,Utility_discrimination_2024_2cat,2024.2.4,MacIntel,60.24096386,,,,,,,,0,"[0.5,0.5]","[1,0]",d,"[0.6330437005377332,0.8209722697046096]","[0.3669562994622668,0.17902773029539049]",262.7215,264.3004,0,d,0,0.0522,,0.638023857,1.006822963,0.368799106,264.301,264.3011,0,62,62,62,1,0.347372586,0.347372586,shape_difference3,1,,TRUE,,intensity,0.1,0.05,0.7,0.3,0.82,20,400,1E-11,3.5,0.01,0.5,0.1,,,,,,,,,,,,,,,,,,,,,,,,,,,,,,,,,,,,,,,,,,,,,,,,,,,,,,,,,,,,,,,,,,,,,,,,,,,,,,,,,
,,,,,951473,001,2025-03-16_19h39.11.089,Utility_discrimination_2024_2cat,2024.2.4,MacIntel,60.24096386,,,,,,,,2,"[0.5,0.5]","[0.707,0.707]",s,"[1.3151514302131333,0.5]","[-0.3151514302131333,0.5]",264.3016,266.0005,0,d,0,0.166,,0.306631443,0.723681351,0.417049908,266.0034,266.0034,0,63,63,63,1,0.81515143,0.81515143,shape_difference0,1,,TRUE,,intensity,0.1,0.05,0.7,0.3,0.82,20,400,1E-11,3.5,0.01,0.5,0.1,,,,,,,,,,,,,,,,,,,,,,,,,,,,,,,,,,,,,,,,,,,,,,,,,,,,,,,,,,,,,,,,,,,,,,,,,,,,,,,,,
,,,,,951473,001,2025-03-16_19h39.11.089,Utility_discrimination_2024_2cat,2024.2.4,MacIntel,60.24096386,,,,,,,,1,"[0.5,0.5]","[0.924,0.383]",s,"[0.8353701814925862,0.8353701814925862]","[0.16462981850741382,0.16462981850741382]",266.0041,267.7675,1,d,1,0.2329,,0.130635832,0.520257691,0.38962186,267.7701,267.7701,0,64,64,64,1,0.474356692,0.474356692,shape_difference2,1,,TRUE,,intensity,0.1,0.05,0.7,0.3,0.82,20,400,1E-11,3.5,0.01,0.5,0.1,,,,,,,,,,,,,,,,,,,,,,,,,,,,,,,,,,,,,,,,,,,,,,,,,,,,,,,,,,,,,,,,,,,,,,,,,,,,,,,,,
,,,,,951473,001,2025-03-16_19h39.11.089,Utility_discrimination_2024_2cat,2024.2.4,MacIntel,60.24096386,,,,,,,,4,"[0.5,0.5]","[0,1]",d,"[0.7716958734610373,0.6126185276359062]","[0.22830412653896265,0.3873814723640938]",267.772,269.6839,0,d,0,0.385,,-0.207099352,0.094328077,0.301427429,269.6846,269.6846,0,65,65,65,1,0.294043153,0.294043153,shape_difference1,1,,TRUE,,intensity,0.1,0.05,0.7,0.3,0.82,20,400,1E-11,3.5,0.01,0.5,0.1,,,,,,,,,,,,,,,,,,,,,,,,,,,,,,,,,,,,,,,,,,,,,,,,,,,,,,,,,,,,,,,,,,,,,,,,,,,,,,,,,
,,,,,951473,001,2025-03-16_19h39.11.089,Utility_discrimination_2024_2cat,2024.2.4,MacIntel,60.24096386,,,,,,,,0,"[0.5,0.5]","[1,0]",s,"[0.5,0.4283731625496785]","[0.5,0.5716268374503215]",269.685,272.4843,0,d,0,1.2689,,0.707321098,1.071760306,0.364439208,272.4862,272.4862,0,66,66,66,1,-0.071626837,-0.071626837,shape_difference4,1,,TRUE,,intensity,0.1,0.05,0.7,0.3,0.82,20,400,1E-11,3.5,0.01,0.5,0.1,,,,,,,,,,,,,,,,,,,,,,,,,,,,,,,,,,,,,,,,,,,,,,,,,,,,,,,,,,,,,,,,,,,,,,,,,,,,,,,,,
,,,,,951473,001,2025-03-16_19h39.11.089,Utility_discrimination_2024_2cat,2024.2.4,MacIntel,60.24096386,,,,,,,,2,"[0.5,0.5]","[0.707,0.707]",s,"[1.3680227077545495,0.5]","[-0.3680227077545496,0.5]",272.487,274.4344,0,d,0,0.4242,,0.303706002,0.681409053,0.377703051,274.4365,274.4366,0,67,67,67,1,0.868022708,0.868022708,shape_difference0,1,,TRUE,,intensity,0.1,0.05,0.7,0.3,0.82,20,400,1E-11,3.5,0.01,0.5,0.1,,,,,,,,,,,,,,,,,,,,,,,,,,,,,,,,,,,,,,,,,,,,,,,,,,,,,,,,,,,,,,,,,,,,,,,,,,,,,,,,,
,,,,,951473,001,2025-03-16_19h39.11.089,Utility_discrimination_2024_2cat,2024.2.4,MacIntel,60.24096386,,,,,,,,3,"[0.5,0.5]","[0.383,0.924]",s,"[0.8218599034744228,0.8218599034744228]","[0.17814009652557716,0.17814009652557716]",274.4371,276.2849,1,d,1,0.3174,,0.217160461,0.622782855,0.405622394,276.2869,276.2876,0,68,68,68,1,0.455247388,0.455247388,shape_difference2,1,,TRUE,,intensity,0.1,0.05,0.7,0.3,0.82,20,400,1E-11,3.5,0.01,0.5,0.1,,,,,,,,,,,,,,,,,,,,,,,,,,,,,,,,,,,,,,,,,,,,,,,,,,,,,,,,,,,,,,,,,,,,,,,,,,,,,,,,,
,,,,,951473,001,2025-03-16_19h39.11.089,Utility_discrimination_2024_2cat,2024.2.4,MacIntel,60.24096386,,,,,,,,1,"[0.5,0.5]","[0.924,0.383]",d,"[0.6471405336654716,0.8549813397046889]","[0.3528594663345283,0.14501866029531107]",276.2885,278.018,0,d,0,0.2015,,0.20382352,0.602101342,0.398277822,278.0204,278.0204,0,69,69,69,1,0.384178939,0.384178939,shape_difference3,1,,TRUE,,intensity,0.1,0.05,0.7,0.3,0.82,20,400,1E-11,3.5,0.01,0.5,0.1,,,,,,,,,,,,,,,,,,,,,,,,,,,,,,,,,,,,,,,,,,,,,,,,,,,,,,,,,,,,,,,,,,,,,,,,,,,,,,,,,
,,,,,951473,001,2025-03-16_19h39.11.089,Utility_discrimination_2024_2cat,2024.2.4,MacIntel,60.24096386,,,,,,,,3,"[0.5,0.5]","[0.383,0.924]",s,"[0.8306394099637397,0.6370507510996887]","[0.1693605900362602,0.3629492489003113]",278.0214,282.0197,0,d,0,2.4787,,0.281012143,0.712518663,0.43150652,282.0237,282.0237,0,70,70,70,1,0.357834859,0.357834859,shape_difference1,1,,TRUE,,intensity,0.1,0.05,0.7,0.3,0.82,20,400,1E-11,3.5,0.01,0.5,0.1,,,,,,,,,,,,,,,,,,,,,,,,,,,,,,,,,,,,,,,,,,,,,,,,,,,,,,,,,,,,,,,,,,,,,,,,,,,,,,,,,
,,,,,951473,001,2025-03-16_19h39.11.089,Utility_discrimination_2024_2cat,2024.2.4,MacIntel,60.24096386,,,,,,,,0,"[0.5,0.5]","[1,0]",s,"[0.6765118029450025,0.9258404854338964]","[0.32348819705499754,0.07415951456610365]",282.0252,283.7014,1,d,1,0.1486,,0.755946122,1.146519084,0.390572961,283.7032,283.7033,0,71,71,71,1,0.460866326,0.460866326,shape_difference3,1,,TRUE,,intensity,0.1,0.05,0.7,0.3,0.82,20,400,1E-11,3.5,0.01,0.5,0.1,,,,,,,,,,,,,,,,,,,,,,,,,,,,,,,,,,,,,,,,,,,,,,,,,,,,,,,,,,,,,,,,,,,,,,,,,,,,,,,,,
,,,,,951473,001,2025-03-16_19h39.11.089,Utility_discrimination_2024_2cat,2024.2.4,MacIntel,60.24096386,,,,,,,,4,"[0.5,0.5]","[0,1]",d,"[1.4438313648086534,0.5]","[-0.4438313648086535,0.5]",283.7041,285.4337,0,d,0,0.2002,,-0.186864164,0.165447104,0.352311267,285.4357,285.4358,0,72,72,72,1,0.943831365,0.943831365,shape_difference0,1,,TRUE,,intensity,0.1,0.05,0.7,0.3,0.82,20,400,1E-11,3.5,0.01,0.5,0.1,,,,,,,,,,,,,,,,,,,,,,,,,,,,,,,,,,,,,,,,,,,,,,,,,,,,,,,,,,,,,,,,,,,,,,,,,,,,,,,,,
,,,,,951473,001,2025-03-16_19h39.11.089,Utility_discrimination_2024_2cat,2024.2.4,MacIntel,60.24096386,,,,,,,,2,"[0.5,0.5]","[0.707,0.707]",s,"[0.5,0.4623829319466892]","[0.5,0.5376170680533108]",285.4366,287.1019,0,d,0,0.1384,,0.301457938,0.642535588,0.34107765,287.1041,287.1041,0,73,73,73,1,-0.037617068,-0.037617068,shape_difference4,1,,TRUE,,intensity,0.1,0.05,0.7,0.3,0.82,20,400,1E-11,3.5,0.01,0.5,0.1,,,,,,,,,,,,,,,,,,,,,,,,,,,,,,,,,,,,,,,,,,,,,,,,,,,,,,,,,,,,,,,,,,,,,,,,,,,,,,,,,
,,,,,951473,001,2025-03-16_19h39.11.089,Utility_discrimination_2024_2cat,2024.2.4,MacIntel,60.24096386,,,,,,,,2,"[0.5,0.5]","[0.707,0.707]",s,"[0.8098902945621727,0.8098902945621727]","[0.1901097054378274,0.1901097054378274]",287.1054,333.2039,1,d,1,44.5773,,0.287622573,0.600175754,0.312553182,333.2053,333.2054,0,74,74,74,1,0.438317248,0.438317248,shape_difference2,1,,TRUE,,intensity,0.1,0.05,0.7,0.3,0.82,20,400,1E-11,3.5,0.01,0.5,0.1,,,,,,,,,,,,,,,,,,,,,,,,,,,,,,,,,,,,,,,,,,,,,,,,,,,,,,,,,,,,,,,,,,,,,,,,,,,,,,,,,
,,,,,951473,001,2025-03-16_19h39.11.089,Utility_discrimination_2024_2cat,2024.2.4,MacIntel,60.24096386,,,,,,,,0,"[0.5,0.5]","[1,0]",d,"[0.7976960822994021,0.7976960822994021]","[0.2023039177005979,0.2023039177005979]",333.2058,335.0206,0,d,0,0.2864,,0.813660792,1.186854133,0.373193341,335.0257,335.0257,0,75,75,75,1,0.421069423,0.421069423,shape_difference2,1,,TRUE,,intensity,0.1,0.05,0.7,0.3,0.82,20,400,1E-11,3.5,0.01,0.5,0.1,,,,,,,,,,,,,,,,,,,,,,,,,,,,,,,,,,,,,,,,,,,,,,,,,,,,,,,,,,,,,,,,,,,,,,,,,,,,,,,,,
,,,,,951473,001,2025-03-16_19h39.11.089,Utility_discrimination_2024_2cat,2024.2.4,MacIntel,60.24096386,,,,,,,,4,"[0.5,0.5]","[0,1]",s,"[1.487556162481515,0.5]","[-0.4875561624815149,0.5]",335.0262,336.8205,0,d,0,0.2668,,-0.142792864,0.290151345,0.432944209,336.8239,336.8239,0,76,76,76,1,0.987556162,0.987556162,shape_difference0,1,,TRUE,,intensity,0.1,0.05,0.7,0.3,0.82,20,400,1E-11,3.5,0.01,0.5,0.1,,,,,,,,,,,,,,,,,,,,,,,,,,,,,,,,,,,,,,,,,,,,,,,,,,,,,,,,,,,,,,,,,,,,,,,,,,,,,,,,,
,,,,,951473,001,2025-03-16_19h39.11.089,Utility_discrimination_2024_2cat,2024.2.4,MacIntel,60.24096386,,,,,,,,1,"[0.5,0.5]","[0.924,0.383]",s,"[0.5,0.5217201772209549]","[0.5,0.4782798227790451]",336.8256,338.474,1,d,1,0.1282,,0.245297671,0.723139351,0.47784168,338.4774,338.4774,0,77,77,77,1,0.021720177,0.021720177,shape_difference4,1,,TRUE,,intensity,0.1,0.05,0.7,0.3,0.82,20,400,1E-11,3.5,0.01,0.5,0.1,,,,,,,,,,,,,,,,,,,,,,,,,,,,,,,,,,,,,,,,,,,,,,,,,,,,,,,,,,,,,,,,,,,,,,,,,,,,,,,,,
,,,,,951473,001,2025-03-16_19h39.11.089,Utility_discrimination_2024_2cat,2024.2.4,MacIntel,60.24096386,,,,,,,,3,"[0.5,0.5]","[0.383,0.924]",d,"[0.9191628641108974,0.6737439144528936]","[0.08083713588910257,0.3262560855471064]",338.4786,391.9259,1,d,1,51.9201,,0.266862325,0.672425113,0.405562788,391.9292,391.9292,0,78,78,78,1,0.453639463,0.453639463,shape_difference1,1,,TRUE,,intensity,0.1,0.05,0.7,0.3,0.82,20,400,1E-11,3.5,0.01,0.5,0.1,,,,,,,,,,,,,,,,,,,,,,,,,,,,,,,,,,,,,,,,,,,,,,,,,,,,,,,,,,,,,,,,,,,,,,,,,,,,,,,,,
,,,,,951473,001,2025-03-16_19h39.11.089,Utility_discrimination_2024_2cat,2024.2.4,MacIntel,60.24096386,,,,,,,,1,"[0.5,0.5]","[0.924,0.383]",d,"[0.6683276072509555,0.9060958462137934]","[0.3316723927490445,0.09390415378620659]",391.9304,394.1892,1,d,1,0.7312,,0.237527227,0.676574979,0.439047752,394.19,394.19,0,79,79,79,1,0.439497669,0.439497669,shape_difference3,1,,TRUE,,intensity,0.1,0.05,0.7,0.3,0.82,20,400,1E-11,3.5,0.01,0.5,0.1,,,,,,,,,,,,,,,,,,,,,,,,,,,,,,,,,,,,,,,,,,,,,,,,,,,,,,,,,,,,,,,,,,,,,,,,,,,,,,,,,
,,,,,951473,001,2025-03-16_19h39.11.089,Utility_discrimination_2024_2cat,2024.2.4,MacIntel,60.24096386,,,,,,,,2,"[0.5,0.5]","[0.707,0.707]",d,"[0.8954869462126545,0.6639301952374963]","[0.1045130537873456,0.33606980476250364]",394.1904,396.1734,0,d,0,0.4469,,0.311676029,0.671816072,0.360140043,396.1758,396.1758,0,80,80,80,1,0.428016176,0.428016176,shape_difference1,1,,TRUE,,intensity,0.1,0.05,0.7,0.3,0.82,20,400,1E-11,3.5,0.01,0.5,0.1,,,,,,,,,,,,,,,,,,,,,,,,,,,,,,,,,,,,,,,,,,,,,,,,,,,,,,,,,,,,,,,,,,,,,,,,,,,,,,,,,
,,,,,951473,001,2025-03-16_19h39.11.089,Utility_discrimination_2024_2cat,2024.2.4,MacIntel,60.24096386,,,,,,,,0,"[0.5,0.5]","[1,0]",s,"[0.8268507736986496,0.8268507736986496]","[0.17314922630135043,0.17314922630135043]",396.1768,398.1574,0,d,0,0.4498,,0.881644564,1.254630466,0.372985901,398.16,398.1601,0,81,81,81,1,0.462306611,0.462306611,shape_difference2,1,,TRUE,,intensity,0.1,0.05,0.7,0.3,0.82,20,400,1E-11,3.5,0.01,0.5,0.1,,,,,,,,,,,,,,,,,,,,,,,,,,,,,,,,,,,,,,,,,,,,,,,,,,,,,,,,,,,,,,,,,,,,,,,,,,,,,,,,,
,,,,,951473,001,2025-03-16_19h39.11.089,Utility_discrimination_2024_2cat,2024.2.4,MacIntel,60.24096386,,,,,,,,3,"[0.5,0.5]","[0.383,0.924]",s,"[1.5580117528123936,0.5]","[-0.5580117528123936,0.5]",398.1622,400.274,0,d,0,0.5946,,0.25153884,0.636862076,0.385323236,400.2772,400.2772,0,82,82,82,1,1.058011753,1.058011753,shape_difference0,1,,TRUE,,intensity,0.1,0.05,0.7,0.3,0.82,20,400,1E-11,3.5,0.01,0.5,0.1,,,,,,,,,,,,,,,,,,,,,,,,,,,,,,,,,,,,,,,,,,,,,,,,,,,,,,,,,,,,,,,,,,,,,,,,,,,,,,,,,
,,,,,951473,001,2025-03-16_19h39.11.089,Utility_discrimination_2024_2cat,2024.2.4,MacIntel,60.24096386,,,,,,,,4,"[0.5,0.5]","[0,1]",s,"[0.6601287418065419,0.8863158157421533]","[0.3398712581934581,0.1136841842578466]",400.2784,402.4412,1,s,1,0.6457,,-0.155176813,0.240723047,0.395899861,402.4434,402.4435,0,83,83,83,1,0.41809071,0.41809071,shape_difference3,1,,TRUE,,intensity,0.1,0.05,0.7,0.3,0.82,20,400,1E-11,3.5,0.01,0.5,0.1,,,,,,,,,,,,,,,,,,,,,,,,,,,,,,,,,,,,,,,,,,,,,,,,,,,,,,,,,,,,,,,,,,,,,,,,,,,,,,,,,
,,,,,951473,001,2025-03-16_19h39.11.089,Utility_discrimination_2024_2cat,2024.2.4,MacIntel,60.24096386,,,,,,,,1,"[0.5,0.5]","[0.924,0.383]",s,"[0.5,0.49827060680230345]","[0.5,0.5017293931976965]",402.4445,404.3569,0,d,0,0.3902,,0.308624134,0.749319835,0.440695701,404.3595,404.3595,0,84,84,84,1,-0.001729393,-0.001729393,shape_difference4,1,,TRUE,,intensity,0.1,0.05,0.7,0.3,0.82,20,400,1E-11,3.5,0.01,0.5,0.1,,,,,,,,,,,,,,,,,,,,,,,,,,,,,,,,,,,,,,,,,,,,,,,,,,,,,,,,,,,,,,,,,,,,,,,,,,,,,,,,,
,,,,,951473,001,2025-03-16_19h39.11.089,Utility_discrimination_2024_2cat,2024.2.4,MacIntel,60.24096386,,,,,,,,4,"[0.5,0.5]","[0,1]",s,"[0.9503746413339106,0.6866812636697919]","[0.049625358666089414,0.31331873633020807]",404.36,406.1912,0,d,0,0.2997,,-0.093074922,0.34890267,0.441977592,406.1939,406.1939,0,85,85,85,1,0.487418443,0.487418443,shape_difference1,1,,TRUE,,intensity,0.1,0.05,0.7,0.3,0.82,20,400,1E-11,3.5,0.01,0.5,0.1,,,,,,,,,,,,,,,,,,,,,,,,,,,,,,,,,,,,,,,,,,,,,,,,,,,,,,,,,,,,,,,,,,,,,,,,,,,,,,,,,
,,,,,951473,001,2025-03-16_19h39.11.089,Utility_discrimination_2024_2cat,2024.2.4,MacIntel,60.24096386,,,,,,,,0,"[0.5,0.5]","[1,0]",s,"[0.5,0.5576758970967248]","[0.5,0.44232410290327523]",406.1951,407.9244,0,d,0,0.2014,,0.947583271,1.31954776,0.37196449,407.9276,407.9276,0,86,86,86,1,0.057675897,0.057675897,shape_difference4,1,,TRUE,,intensity,0.1,0.05,0.7,0.3,0.82,20,400,1E-11,3.5,0.01,0.5,0.1,,,,,,,,,,,,,,,,,,,,,,,,,,,,,,,,,,,,,,,,,,,,,,,,,,,,,,,,,,,,,,,,,,,,,,,,,,,,,,,,,
,,,,,951473,001,2025-03-16_19h39.11.089,Utility_discrimination_2024_2cat,2024.2.4,MacIntel,60.24096386,,,,,,,,2,"[0.5,0.5]","[0.707,0.707]",s,"[1.6373753464458218,0.5]","[-0.6373753464458218,0.5]",407.9287,409.7409,0,d,0,0.2884,,0.352066231,0.76790577,0.415839539,409.7418,409.7418,0,87,87,87,1,1.137375346,1.137375346,shape_difference0,1,,TRUE,,intensity,0.1,0.05,0.7,0.3,0.82,20,400,1E-11,3.5,0.01,0.5,0.1,,,,,,,,,,,,,,,,,,,,,,,,,,,,,,,,,,,,,,,,,,,,,,,,,,,,,,,,,,,,,,,,,,,,,,,,,,,,,,,,,
,,,,,951473,001,2025-03-16_19h39.11.089,Utility_discrimination_2024_2cat,2024.2.4,MacIntel,60.24096386,,,,,,,,3,"[0.5,0.5]","[0.383,0.924]",s,"[0.8770866650168736,0.8770866650168736]","[0.12291333498312634,0.12291333498312634]",409.7422,411.5085,1,d,1,0.2442,,0.240698041,0.595346539,0.354648499,411.5111,411.5113,0,88,88,88,1,0.53336162,0.53336162,shape_difference2,1,,TRUE,,intensity,0.1,0.05,0.7,0.3,0.82,20,400,1E-11,3.5,0.01,0.5,0.1,,,,,,,,,,,,,,,,,,,,,,,,,,,,,,,,,,,,,,,,,,,,,,,,,,,,,,,,,,,,,,,,,,,,,,,,,,,,,,,,,
,,,,,951473,001,2025-03-16_19h39.11.089,Utility_discrimination_2024_2cat,2024.2.4,MacIntel,60.24096386,,,,,,,,3,"[0.5,0.5]","[0.383,0.924]",d,"[0.6520403723920659,0.866802360549005]","[0.3479596276079341,0.13319763945099505]",411.5124,428.7084,0,d,0,15.6727,,0.306044931,0.674412367,0.368367435,428.71,428.71,0,89,89,89,1,0.396972252,0.396972252,shape_difference3,1,,TRUE,,intensity,0.1,0.05,0.7,0.3,0.82,20,400,1E-11,3.5,0.01,0.5,0.1,,,,,,,,,,,,,,,,,,,,,,,,,,,,,,,,,,,,,,,,,,,,,,,,,,,,,,,,,,,,,,,,,,,,,,,,,,,,,,,,,
,,,,,951473,001,2025-03-16_19h39.11.089,Utility_discrimination_2024_2cat,2024.2.4,MacIntel,60.24096386,,,,,,,,1,"[0.5,0.5]","[0.924,0.383]",s,"[0.6736012760496153,0.9188187443076881]","[0.3263987239503847,0.08118125569231194]",428.7106,430.5755,1,d,1,0.3341,,0.372240284,0.836104283,0.463863999,430.5773,430.5773,0,90,90,90,1,0.453267039,0.453267039,shape_difference3,1,,TRUE,,intensity,0.1,0.05,0.7,0.3,0.82,20,400,1E-11,3.5,0.01,0.5,0.1,,,,,,,,,,,,,,,,,,,,,,,,,,,,,,,,,,,,,,,,,,,,,,,,,,,,,,,,,,,,,,,,,,,,,,,,,,,,,,,,,
,,,,,951473,001,2025-03-16_19h39.11.089,Utility_discrimination_2024_2cat,2024.2.4,MacIntel,60.24096386,,,,,,,,4,"[0.5,0.5]","[0,1]",d,"[1.034633054479574,0.721606558296187]","[-0.0346330544795741,0.2783934417038129]",430.5783,432.2592,1,s,1,0.1492,,-0.054503968,0.49727351,0.551777478,432.2618,432.2618,0,91,91,91,1,0.578607202,0.578607202,shape_difference1,1,,TRUE,,intensity,0.1,0.05,0.7,0.3,0.82,20,400,1E-11,3.5,0.01,0.5,0.1,,,,,,,,,,,,,,,,,,,,,,,,,,,,,,,,,,,,,,,,,,,,,,,,,,,,,,,,,,,,,,,,,,,,,,,,,,,,,,,,,
,,,,,951473,001,2025-03-16_19h39.11.089,Utility_discrimination_2024_2cat,2024.2.4,MacIntel,60.24096386,,,,,,,,0,"[0.5,0.5]","[1,0]",s,"[0.5,0.6573999131192749]","[0.5,0.342600086880725]",432.2631,434.0594,0,d,0,0.2658,,1.011887735,1.368939886,0.357052151,434.0628,434.0629,0,92,92,92,1,0.157399913,0.157399913,shape_difference4,1,,TRUE,,intensity,0.1,0.05,0.7,0.3,0.82,20,400,1E-11,3.5,0.01,0.5,0.1,,,,,,,,,,,,,,,,,,,,,,,,,,,,,,,,,,,,,,,,,,,,,,,,,,,,,,,,,,,,,,,,,,,,,,,,,,,,,,,,,
,,,,,951473,001,2025-03-16_19h39.11.089,Utility_discrimination_2024_2cat,2024.2.4,MacIntel,60.24096386,,,,,,,,2,"[0.5,0.5]","[0.707,0.707]",s,"[1.6803986864209608,0.5]","[-0.6803986864209608,0.5]",434.064,435.6918,0,d,0,0.109,,0.340473279,0.731305121,0.390831842,435.6945,435.6945,0,93,93,93,1,1.180398686,1.180398686,shape_difference0,1,,TRUE,,intensity,0.1,0.05,0.7,0.3,0.82,20,400,1E-11,3.5,0.01,0.5,0.1,,,,,,,,,,,,,,,,,,,,,,,,,,,,,,,,,,,,,,,,,,,,,,,,,,,,,,,,,,,,,,,,,,,,,,,,,,,,,,,,,
,,,,,951473,001,2025-03-16_19h39.11.089,Utility_discrimination_2024_2cat,2024.2.4,MacIntel,60.24096386,,,,,,,,1,"[0.5,0.5]","[0.924,0.383]",s,"[0.860241954618163,0.860241954618163]","[0.13975804538183695,0.13975804538183695]",435.6961,437.276,0,s,0,0.0589,,0.358198283,0.789957649,0.431759367,437.2779,437.2779,0,94,94,94,1,0.509536004,0.509536004,shape_difference2,1,,TRUE,,intensity,0.1,0.05,0.7,0.3,0.82,20,400,1E-11,3.5,0.01,0.5,0.1,,,,,,,,,,,,,,,,,,,,,,,,,,,,,,,,,,,,,,,,,,,,,,,,,,,,,,,,,,,,,,,,,,,,,,,,,,,,,,,,,
,,,,,951473,001,2025-03-16_19h39.11.089,Utility_discrimination_2024_2cat,2024.2.4,MacIntel,60.24096386,,,,,,,,3,"[0.5,0.5]","[0.383,0.924]",d,"[1.0127862123205689,0.7125509949337423]","[-0.012786212320568757,0.28744900506625776]",437.2789,439.1261,1,s,1,0.3246,,0.304012285,0.63322004,0.329207756,439.1281,439.1282,0,95,95,95,1,0.554963433,0.554963433,shape_difference1,1,,TRUE,,intensity,0.1,0.05,0.7,0.3,0.82,20,400,1E-11,3.5,0.01,0.5,0.1,,,,,,,,,,,,,,,,,,,,,,,,,,,,,,,,,,,,,,,,,,,,,,,,,,,,,,,,,,,,,,,,,,,,,,,,,,,,,,,,,
,,,,,951473,001,2025-03-16_19h39.11.089,Utility_discrimination_2024_2cat,2024.2.4,MacIntel,60.24096386,,,,,,,,0,"[0.5,0.5]","[1,0]",s,"[0.6674729746214395,0.9040340171023763]","[0.3325270253785605,0.0959659828976237]",439.1297,440.826,1,s,1,0.1683,,1.074540349,1.419282087,0.344741739,440.8272,440.8272,0,96,96,96,1,0.437266252,0.437266252,shape_difference3,1,,TRUE,,intensity,0.1,0.05,0.7,0.3,0.82,20,400,1E-11,3.5,0.01,0.5,0.1,,,,,,,,,,,,,,,,,,,,,,,,,,,,,,,,,,,,,,,,,,,,,,,,,,,,,,,,,,,,,,,,,,,,,,,,,,,,,,,,,
,,,,,951473,001,2025-03-16_19h39.11.089,Utility_discrimination_2024_2cat,2024.2.4,MacIntel,60.24096386,,,,,,,,4,"[0.5,0.5]","[0,1]",s,"[1.746801382468661,0.5]","[-0.746801382468661,0.5]",440.8279,442.6259,1,s,1,0.2683,,0.045870778,0.641384603,0.595513824,442.6278,442.6278,0,97,97,97,1,1.246801382,1.246801382,shape_difference0,1,,TRUE,,intensity,0.1,0.05,0.7,0.3,0.82,20,400,1E-11,3.5,0.01,0.5,0.1,,,,,,,,,,,,,,,,,,,,,,,,,,,,,,,,,,,,,,,,,,,,,,,,,,,,,,,,,,,,,,,,,,,,,,,,,,,,,,,,,
,,,,,951473,001,2025-03-16_19h39.11.089,Utility_discrimination_2024_2cat,2024.2.4,MacIntel,60.24096386,,,,,,,,2,"[0.5,0.5]","[0.707,0.707]",s,"[0.5,0.8035068381967235]","[0.5,0.19649316180327647]",442.6289,444.3418,0,s,0,0.1838,,0.407171177,0.794356447,0.38718527,444.3423,444.3423,0,98,98,98,1,0.303506838,0.303506838,shape_difference4,1,,TRUE,,intensity,0.1,0.05,0.7,0.3,0.82,20,400,1E-11,3.5,0.01,0.5,0.1,,,,,,,,,,,,,,,,,,,,,,,,,,,,,,,,,,,,,,,,,,,,,,,,,,,,,,,,,,,,,,,,,,,,,,,,,,,,,,,,,
,,,,,951473,001,2025-03-16_19h39.11.089,Utility_discrimination_2024_2cat,2024.2.4,MacIntel,60.24096386,,,,,,,,3,"[0.5,0.5]","[0.383,0.924]",d,"[0.9012370004088398,0.9012370004088398]","[0.0987629995911602,0.0987629995911602]",444.3426,446.0266,0,s,0,0.1497,,0.30151769,0.596476358,0.294958668,446.0286,446.0286,0,99,99,99,1,0.56752051,0.56752051,shape_difference2,1,,TRUE,,intensity,0.1,0.05,0.7,0.3,0.82,20,400,1E-11,3.5,0.01,0.5,0.1,,,,,,,,,,,,,,,,,,,,,,,,,,,,,,,,,,,,,,,,,,,,,,,,,,,,,,,,,,,,,,,,,,,,,,,,,,,,,,,,,
,,,,,951473,001,2025-03-16_19h39.11.089,Utility_discrimination_2024_2cat,2024.2.4,MacIntel,60.24096386,,,,,,,,4,"[0.5,0.5]","[0,1]",d,"[0.6612067931517684,0.8889166497969558]","[0.33879320684823155,0.11108335020304416]",446.0299,447.7766,0,s,0,0.2242,,0.178662122,0.740727763,0.562065641,447.7785,447.7785,0,100,100,100,1,0.420905465,0.420905465,shape_difference3,1,,TRUE,,intensity,0.1,0.05,0.7,0.3,0.82,20,400,1E-11,3.5,0.01,0.5,0.1,,,,,,,,,,,,,,,,,,,,,,,,,,,,,,,,,,,,,,,,,,,,,,,,,,,,,,,,,,,,,,,,,,,,,,,,,,,,,,,,,
,,,,,951473,001,2025-03-16_19h39.11.089,Utility_discrimination_2024_2cat,2024.2.4,MacIntel,60.24096386,,,,,,,,2,"[0.5,0.5]","[0.707,0.707]",d,"[0.5,0.9397463165790598]","[0.5,0.060253683420940174]",447.7794,450.9273,0,d,0,1.6257,,0.453217573,0.888902862,0.43568529,450.9296,450.9296,0,101,101,101,1,0.439746317,0.439746317,shape_difference4,1,,TRUE,,intensity,0.1,0.05,0.7,0.3,0.82,20,400,1E-11,3.5,0.01,0.5,0.1,,,,,,,,,,,,,,,,,,,,,,,,,,,,,,,,,,,,,,,,,,,,,,,,,,,,,,,,,,,,,,,,,,,,,,,,,,,,,,,,,
,,,,,951473,001,2025-03-16_19h39.11.089,Utility_discrimination_2024_2cat,2024.2.4,MacIntel,60.24096386,,,,,,,,1,"[0.5,0.5]","[0.924,0.383]",s,"[0.9628172102460044,0.9628172102460044]","[0.03718278975399553,0.03718278975399553]",450.93,452.7769,0,d,0,0.3163,,0.348325141,0.755169305,0.406844164,452.7794,452.7794,0,102,102,102,1,0.654621231,0.654621231,shape_difference2,1,,TRUE,,intensity,0.1,0.05,0.7,0.3,0.82,20,400,1E-11,3.5,0.01,0.5,0.1,,,,,,,,,,,,,,,,,,,,,,,,,,,,,,,,,,,,,,,,,,,,,,,,,,,,,,,,,,,,,,,,,,,,,,,,,,,,,,,,,
,,,,,951473,001,2025-03-16_19h39.11.089,Utility_discrimination_2024_2cat,2024.2.4,MacIntel,60.24096386,,,,,,,,0,"[0.5,0.5]","[1,0]",s,"[0.9933998966110151,0.7045153251104099]","[0.006600103388984813,0.29548467488959007]",452.7803,454.41,1,d,1,0.1053,,1.056905429,1.395103987,0.338198558,454.4106,454.4106,0,103,103,103,1,0.533982572,0.533982572,shape_difference1,1,,TRUE,,intensity,0.1,0.05,0.7,0.3,0.82,20,400,1E-11,3.5,0.01,0.5,0.1,,,,,,,,,,,,,,,,,,,,,,,,,,,,,,,,,,,,,,,,,,,,,,,,,,,,,,,,,,,,,,,,,,,,,,,,,,,,,,,,,
,,,,,951473,001,2025-03-16_19h39.11.089,Utility_discrimination_2024_2cat,2024.2.4,MacIntel,60.24096386,,,,,,,,3,"[0.5,0.5]","[0.383,0.924]",d,"[1.7302510046131334,0.5]","[-0.7302510046131334,0.5]",454.4112,492.8286,0,d,0,36.883,,0.312292314,0.664110124,0.351817811,492.8307,492.8308,0,104,104,104,1,1.230251005,1.230251005,shape_difference0,1,,TRUE,,intensity,0.1,0.05,0.7,0.3,0.82,20,400,1E-11,3.5,0.01,0.5,0.1,,,,,,,,,,,,,,,,,,,,,,,,,,,,,,,,,,,,,,,,,,,,,,,,,,,,,,,,,,,,,,,,,,,,,,,,,,,,,,,,,
,,,,,951473,001,2025-03-16_19h39.11.089,Utility_discrimination_2024_2cat,2024.2.4,MacIntel,60.24096386,,,,,,,,0,"[0.5,0.5]","[1,0]",s,"[0.6761616109781055,0.9249956358845155]","[0.32383838902189455,0.0750043641154845]",492.8319,494.8776,0,d,0,0.5283,,1.11153617,1.446377715,0.334841545,494.8783,494.8783,0,105,105,105,1,0.459951987,0.459951987,shape_difference3,1,,TRUE,,intensity,0.1,0.05,0.7,0.3,0.82,20,400,1E-11,3.5,0.01,0.5,0.1,,,,,,,,,,,,,,,,,,,,,,,,,,,,,,,,,,,,,,,,,,,,,,,,,,,,,,,,,,,,,,,,,,,,,,,,,,,,,,,,,
,,,,,951473,001,2025-03-16_19h39.11.089,Utility_discrimination_2024_2cat,2024.2.4,MacIntel,60.24096386,,,,,,,,4,"[0.5,0.5]","[0,1]",s,"[1.770131707558973,0.5]","[-0.7701317075589731,0.5]",494.8787,496.5787,1,d,1,0.192,,0.303607325,0.811875241,0.508267917,496.5797,496.5798,0,106,106,106,1,1.270131708,1.270131708,shape_difference0,1,,TRUE,,intensity,0.1,0.05,0.7,0.3,0.82,20,400,1E-11,3.5,0.01,0.5,0.1,,,,,,,,,,,,,,,,,,,,,,,,,,,,,,,,,,,,,,,,,,,,,,,,,,,,,,,,,,,,,,,,,,,,,,,,,,,,,,,,,
,,,,,951473,001,2025-03-16_19h39.11.089,Utility_discrimination_2024_2cat,2024.2.4,MacIntel,60.24096386,,,,,,,,1,"[0.5,0.5]","[0.924,0.383]",d,"[0.5,1.0415455271053347]","[0.5,-0.041545527105334656]",496.5803,498.2291,1,d,1,0.1158,,0.3373761,0.715923004,0.378546905,498.2313,498.2313,0,107,107,107,1,0.541545527,0.541545527,shape_difference4,1,,TRUE,,intensity,0.1,0.05,0.7,0.3,0.82,20,400,1E-11,3.5,0.01,0.5,0.1,,,,,,,,,,,,,,,,,,,,,,,,,,,,,,,,,,,,,,,,,,,,,,,,,,,,,,,,,,,,,,,,,,,,,,,,,,,,,,,,,
,,,,,951473,001,2025-03-16_19h39.11.089,Utility_discrimination_2024_2cat,2024.2.4,MacIntel,60.24096386,,,,,,,,2,"[0.5,0.5]","[0.707,0.707]",d,"[0.9727570487444428,0.6959588199882268]","[0.027242951255557202,0.30404118001177316]",498.2325,499.7955,0,d,0,0.0334,,0.544550095,0.985780095,0.44123,499.7965,499.7966,0,108,108,108,1,0.511641828,0.511641828,shape_difference1,1,,TRUE,,intensity,0.1,0.05,0.7,0.3,0.82,20,400,1E-11,3.5,0.01,0.5,0.1,,,,,,,,,,,,,,,,,,,,,,,,,,,,,,,,,,,,,,,,,,,,,,,,,,,,,,,,,,,,,,,,,,,,,,,,,,,,,,,,,
,,,,,951473,001,2025-03-16_19h39.11.089,Utility_discrimination_2024_2cat,2024.2.4,MacIntel,60.24096386,,,,,,,,4,"[0.5,0.5]","[0,1]",s,"[1.0358507806662978,1.0358507806662978]","[-0.035850780666297766,-0.035850780666297766]",499.7972,501.5623,1,d,1,0.2369,,0.286288156,0.776671479,0.490383324,501.5635,501.5635,0,109,109,109,1,0.757921896,0.757921896,shape_difference2,1,,TRUE,,intensity,0.1,0.05,0.7,0.3,0.82,20,400,1E-11,3.5,0.01,0.5,0.1,,,,,,,,,,,,,,,,,,,,,,,,,,,,,,,,,,,,,,,,,,,,,,,,,,,,,,,,,,,,,,,,,,,,,,,,,,,,,,,,,
,,,,,951473,001,2025-03-16_19h39.11.089,Utility_discrimination_2024_2cat,2024.2.4,MacIntel,60.24096386,,,,,,,,2,"[0.5,0.5]","[0.707,0.707]",d,"[0.5,1.0037232047701479]","[0.5,-0.003723204770147981]",501.564,503.213,1,d,1,0.1262,,0.53644738,0.954326042,0.417878662,503.2155,503.2155,0,110,110,110,1,0.503723205,0.503723205,shape_difference4,1,,TRUE,,intensity,0.1,0.05,0.7,0.3,0.82,20,400,1E-11,3.5,0.01,0.5,0.1,,,,,,,,,,,,,,,,,,,,,,,,,,,,,,,,,,,,,,,,,,,,,,,,,,,,,,,,,,,,,,,,,,,,,,,,,,,,,,,,,
,,,,,951473,001,2025-03-16_19h39.11.089,Utility_discrimination_2024_2cat,2024.2.4,MacIntel,60.24096386,,,,,,,,1,"[0.5,0.5]","[0.924,0.383]",d,"[1.0202193230798662,1.0202193230798662]","[-0.02021932307986618,-0.02021932307986618]",503.2163,504.8125,1,d,1,0.0669,,0.406881852,0.783881608,0.376999756,504.813,504.813,0,111,111,111,1,0.735812338,0.735812338,shape_difference2,1,,TRUE,,intensity,0.1,0.05,0.7,0.3,0.82,20,400,1E-11,3.5,0.01,0.5,0.1,,,,,,,,,,,,,,,,,,,,,,,,,,,,,,,,,,,,,,,,,,,,,,,,,,,,,,,,,,,,,,,,,,,,,,,,,,,,,,,,,
,,,,,951473,001,2025-03-16_19h39.11.089,Utility_discrimination_2024_2cat,2024.2.4,MacIntel,60.24096386,,,,,,,,0,"[0.5,0.5]","[1,0]",d,"[1.023390752779522,0.7169465999075292]","[-0.023390752779522073,0.2830534000924708]",504.8134,506.5794,0,d,0,0.2337,,1.108687941,1.413862613,0.305174672,506.5814,506.5814,0,112,112,112,1,0.566440209,0.566440209,shape_difference1,1,,TRUE,,intensity,0.1,0.05,0.7,0.3,0.82,20,400,1E-11,3.5,0.01,0.5,0.1,,,,,,,,,,,,,,,,,,,,,,,,,,,,,,,,,,,,,,,,,,,,,,,,,,,,,,,,,,,,,,,,,,,,,,,,,,,,,,,,,
,,,,,951473,001,2025-03-16_19h39.11.089,Utility_discrimination_2024_2cat,2024.2.4,MacIntel,60.24096386,,,,,,,,3,"[0.5,0.5]","[0.383,0.924]",s,"[1.7574187785422923,0.5]","[-0.7574187785422923,0.5]",506.5825,508.2626,0,d,0,0.1552,,0.350124561,0.760023968,0.409899407,508.2646,508.2646,0,113,113,113,1,1.257418779,1.257418779,shape_difference0,1,,TRUE,,intensity,0.1,0.05,0.7,0.3,0.82,20,400,1E-11,3.5,0.01,0.5,0.1,,,,,,,,,,,,,,,,,,,,,,,,,,,,,,,,,,,,,,,,,,,,,,,,,,,,,,,,,,,,,,,,,,,,,,,,,,,,,,,,,
,,,,,951473,001,2025-03-16_19h39.11.089,Utility_discrimination_2024_2cat,2024.2.4,MacIntel,60.24096386,,,,,,,,2,"[0.5,0.5]","[0.707,0.707]",s,"[0.7020363583246555,0.9874193083341559]","[0.2979636416753445,0.01258069166584408]",508.2654,510.845,1,s,1,1.0577,,0.527499666,0.917940052,0.390440386,510.8467,510.8467,0,114,114,114,1,0.527510074,0.527510074,shape_difference3,1,,TRUE,,intensity,0.1,0.05,0.7,0.3,0.82,20,400,1E-11,3.5,0.01,0.5,0.1,,,,,,,,,,,,,,,,,,,,,,,,,,,,,,,,,,,,,,,,,,,,,,,,,,,,,,,,,,,,,,,,,,,,,,,,,,,,,,,,,
,,,,,951473,001,2025-03-16_19h39.11.089,Utility_discrimination_2024_2cat,2024.2.4,MacIntel,60.24096386,,,,,,,,3,"[0.5,0.5]","[0.383,0.924]",s,"[1.0032948048516652,1.0032948048516652]","[-0.003294804851665223,-0.003294804851665223]",510.8475,512.7299,0,d,0,0.3572,,0.339241476,0.720038221,0.380796745,512.7323,512.7323,0,115,115,115,1,0.71187384,0.71187384,shape_difference2,1,,TRUE,,intensity,0.1,0.05,0.7,0.3,0.82,20,400,1E-11,3.5,0.01,0.5,0.1,,,,,,,,,,,,,,,,,,,,,,,,,,,,,,,,,,,,,,,,,,,,,,,,,,,,,,,,,,,,,,,,,,,,,,,,,,,,,,,,,
,,,,,951473,001,2025-03-16_19h39.11.089,Utility_discrimination_2024_2cat,2024.2.4,MacIntel,60.24096386,,,,,,,,1,"[0.5,0.5]","[0.924,0.383]",s,"[0.692704520930546,0.9649059460569831]","[0.307295479069454,0.035094053943016956]",512.7341,514.5796,1,d,1,0.3178,,0.454220036,0.875931544,0.421711508,514.5802,514.5802,0,116,116,116,1,0.503144963,0.503144963,shape_difference3,1,,TRUE,,intensity,0.1,0.05,0.7,0.3,0.82,20,400,1E-11,3.5,0.01,0.5,0.1,,,,,,,,,,,,,,,,,,,,,,,,,,,,,,,,,,,,,,,,,,,,,,,,,,,,,,,,,,,,,,,,,,,,,,,,,,,,,,,,,
,,,,,951473,001,2025-03-16_19h39.11.089,Utility_discrimination_2024_2cat,2024.2.4,MacIntel,60.24096386,,,,,,,,4,"[0.5,0.5]","[0,1]",d,"[1.0978369899189198,0.7478047263408509]","[-0.09783698991891987,0.25219527365914907]",514.5809,516.3791,1,d,1,0.2669,,0.266672088,0.733992706,0.467320618,516.3812,516.3813,0,117,117,117,1,0.647009729,0.647009729,shape_difference1,1,,TRUE,,intensity,0.1,0.05,0.7,0.3,0.82,20,400,1E-11,3.5,0.01,0.5,0.1,,,,,,,,,,,,,,,,,,,,,,,,,,,,,,,,,,,,,,,,,,,,,,,,,,,,,,,,,,,,,,,,,,,,,,,,,,,,,,,,,
,,,,,951473,001,2025-03-16_19h39.11.089,Utility_discrimination_2024_2cat,2024.2.4,MacIntel,60.24096386,,,,,,,,0,"[0.5,0.5]","[1,0]",d,"[0.5,0.9761717030923933]","[0.5,0.023828296907606683]",516.3829,518.3636,0,d,0,0.4488,,1.148869827,1.481570526,0.332700699,518.3664,518.3665,0,118,118,118,1,0.476171703,0.476171703,shape_difference4,1,,TRUE,,intensity,0.1,0.05,0.7,0.3,0.82,20,400,1E-11,3.5,0.01,0.5,0.1,,,,,,,,,,,,,,,,,,,,,,,,,,,,,,,,,,,,,,,,,,,,,,,,,,,,,,,,,,,,,,,,,,,,,,,,,,,,,,,,,
,,,,,951473,001,2025-03-16_19h39.11.089,Utility_discrimination_2024_2cat,2024.2.4,MacIntel,60.24096386,,,,,,,,0,"[0.5,0.5]","[1,0]",s,"[1.8150236148326204,0.5]","[-0.8150236148326204,0.5]",518.3678,553.4152,1,s,1,33.5282,,1.138820338,1.466041053,0.327220715,553.4185,553.4185,0,119,119,119,1,1.315023615,1.315023615,shape_difference0,1,,TRUE,,intensity,0.1,0.05,0.7,0.3,0.82,20,400,1E-11,3.5,0.01,0.5,0.1,,,,,,,,,,,,,,,,,,,,,,,,,,,,,,,,,,,,,,,,,,,,,,,,,,,,,,,,,,,,,,,,,,,,,,,,,,,,,,,,,
,,,,,951473,001,2025-03-16_19h39.11.089,Utility_discrimination_2024_2cat,2024.2.4,MacIntel,60.24096386,,,,,,,,1,"[0.5,0.5]","[0.924,0.383]",s,"[1.7970003945093695,0.5]","[-0.7970003945093695,0.5]",553.4202,555.1644,1,s,1,0.2147,,0.441342397,0.846030502,0.404688104,555.169,555.169,0,120,120,120,1,1.297000395,1.297000395,shape_difference0,1,,TRUE,,intensity,0.1,0.05,0.7,0.3,0.82,20,400,1E-11,3.5,0.01,0.5,0.1,,,,,,,,,,,,,,,,,,,,,,,,,,,,,,,,,,,,,,,,,,,,,,,,,,,,,,,,,,,,,,,,,,,,,,,,,,,,,,,,,
,,,,,951473,001,2025-03-16_19h39.11.089,Utility_discrimination_2024_2cat,2024.2.4,MacIntel,60.24096386,,,,,,,,3,"[0.5,0.5]","[0.383,0.924]",s,"[1.0771628659452852,0.7392352572045934]","[-0.07716286594528521,0.2607647427954066]",555.1696,556.9987,0,s,0,0.3017,,0.331479076,0.687131417,0.355652341,557.001,557.001,0,121,121,121,1,0.624635136,0.624635136,shape_difference1,1,,TRUE,,intensity,0.1,0.05,0.7,0.3,0.82,20,400,1E-11,3.5,0.01,0.5,0.1,,,,,,,,,,,,,,,,,,,,,,,,,,,,,,,,,,,,,,,,,,,,,,,,,,,,,,,,,,,,,,,,,,,,,,,,,,,,,,,,,
,,,,,951473,001,2025-03-16_19h39.11.089,Utility_discrimination_2024_2cat,2024.2.4,MacIntel,60.24096386,,,,,,,,2,"[0.5,0.5]","[0.707,0.707]",d,"[0.687001848042687,0.9511480615964565]","[0.31299815195731295,0.04885193840354357]",557.0024,558.6155,1,s,1,0.082,,0.604972204,0.981704967,0.376732762,558.6239,558.6239,0,122,122,122,1,0.488255478,0.488255478,shape_difference3,1,,TRUE,,intensity,0.1,0.05,0.7,0.3,0.82,20,400,1E-11,3.5,0.01,0.5,0.1,,,,,,,,,,,,,,,,,,,,,,,,,,,,,,,,,,,,,,,,,,,,,,,,,,,,,,,,,,,,,,,,,,,,,,,,,,,,,,,,,
,,,,,951473,001,2025-03-16_19h39.11.089,Utility_discrimination_2024_2cat,2024.2.4,MacIntel,60.24096386,,,,,,,,4,"[0.5,0.5]","[0,1]",s,"[1.0451935568163442,1.0451935568163442]","[-0.04519355681634418,-0.04519355681634418]",558.6243,560.4652,0,s,0,0.3171,,0.362271079,0.829053672,0.466782593,560.4682,560.4684,0,123,123,123,1,0.771136573,0.771136573,shape_difference2,1,,TRUE,,intensity,0.1,0.05,0.7,0.3,0.82,20,400,1E-11,3.5,0.01,0.5,0.1,,,,,,,,,,,,,,,,,,,,,,,,,,,,,,,,,,,,,,,,,,,,,,,,,,,,,,,,,,,,,,,,,,,,,,,,,,,,,,,,,
,,,,,951473,001,2025-03-16_19h39.11.089,Utility_discrimination_2024_2cat,2024.2.4,MacIntel,60.24096386,,,,,,,,2,"[0.5,0.5]","[0.707,0.707]",d,"[0.5,1.0750470236265812]","[0.5,-0.07504702362658122]",560.4692,562.2658,1,s,1,0.275,,0.658863827,1.062741998,0.403878171,562.2683,562.2685,0,124,124,124,1,0.575047024,0.575047024,shape_difference4,1,,TRUE,,intensity,0.1,0.05,0.7,0.3,0.82,20,400,1E-11,3.5,0.01,0.5,0.1,,,,,,,,,,,,,,,,,,,,,,,,,,,,,,,,,,,,,,,,,,,,,,,,,,,,,,,,,,,,,,,,,,,,,,,,,,,,,,,,,
,,,,,951473,001,2025-03-16_19h39.11.089,Utility_discrimination_2024_2cat,2024.2.4,MacIntel,60.24096386,,,,,,,,1,"[0.5,0.5]","[0.924,0.383]",s,"[1.10139536250712,1.10139536250712]","[-0.10139536250711989,-0.10139536250711989]",562.2703,563.9981,0,s,0,0.2067,,0.508911195,0.89712407,0.388212875,564.0001,564.0002,0,125,125,125,1,0.850629933,0.850629933,shape_difference2,1,,TRUE,,intensity,0.1,0.05,0.7,0.3,0.82,20,400,1E-11,3.5,0.01,0.5,0.1,,,,,,,,,,,,,,,,,,,,,,,,,,,,,,,,,,,,,,,,,,,,,,,,,,,,,,,,,,,,,,,,,,,,,,,,,,,,,,,,,
,,,,,951473,001,2025-03-16_19h39.11.089,Utility_discrimination_2024_2cat,2024.2.4,MacIntel,60.24096386,,,,,,,,4,"[0.5,0.5]","[0,1]",d,"[1.1266083679027288,0.7597305247908497]","[-0.12660836790272867,0.24026947520915032]",564.0011,565.9981,0,s,0,0.4684,,0.349955086,0.785685273,0.435730187,566.0002,566.0003,0,126,126,126,1,0.678147584,0.678147584,shape_difference1,1,,TRUE,,intensity,0.1,0.05,0.7,0.3,0.82,20,400,1E-11,3.5,0.01,0.5,0.1,,,,,,,,,,,,,,,,,,,,,,,,,,,,,,,,,,,,,,,,,,,,,,,,,,,,,,,,,,,,,,,,,,,,,,,,,,,,,,,,,
,,,,,951473,001,2025-03-16_19h39.11.089,Utility_discrimination_2024_2cat,2024.2.4,MacIntel,60.24096386,,,,,,,,3,"[0.5,0.5]","[0.383,0.924]",d,"[0.5,1.0516574419000022]","[0.5,-0.05165744190000221]",566.0013,567.8993,0,s,0,0.365,,0.325816737,0.661446692,0.335629956,567.9016,567.9017,0,127,127,127,1,0.551657442,0.551657442,shape_difference4,1,,TRUE,,intensity,0.1,0.05,0.7,0.3,0.82,20,400,1E-11,3.5,0.01,0.5,0.1,,,,,,,,,,,,,,,,,,,,,,,,,,,,,,,,,,,,,,,,,,,,,,,,,,,,,,,,,,,,,,,,,,,,,,,,,,,,,,,,,
,,,,,951473,001,2025-03-16_19h39.11.089,Utility_discrimination_2024_2cat,2024.2.4,MacIntel,60.24096386,,,,,,,,0,"[0.5,0.5]","[1,0]",d,"[0.6827903444453748,0.9409876717167789]","[0.3172096555546252,0.05901232828322117]",567.9029,569.599,1,s,1,0.1754,,1.13141423,1.445647877,0.314233648,569.5999,569.5999,0,128,128,128,1,0.477259385,0.477259385,shape_difference3,1,,TRUE,,intensity,0.1,0.05,0.7,0.3,0.82,20,400,1E-11,3.5,0.01,0.5,0.1,,,,,,,,,,,,,,,,,,,,,,,,,,,,,,,,,,,,,,,,,,,,,,,,,,,,,,,,,,,,,,,,,,,,,,,,,,,,,,,,,
,,,,,951473,001,2025-03-16_19h39.11.089,Utility_discrimination_2024_2cat,2024.2.4,MacIntel,60.24096386,,,,,,,,3,"[0.5,0.5]","[0.383,0.924]",s,"[1.7855718891290295,0.5]","[-0.7855718891290295,0.5]",569.6003,571.2319,1,s,1,0.0999,,0.321595749,0.627556125,0.305960376,571.2342,571.2342,0,129,129,129,1,1.285571889,1.285571889,shape_difference0,1,,TRUE,,intensity,0.1,0.05,0.7,0.3,0.82,20,400,1E-11,3.5,0.01,0.5,0.1,,,,,,,,,,,,,,,,,,,,,,,,,,,,,,,,,,,,,,,,,,,,,,,,,,,,,,,,,,,,,,,,,,,,,,,,,,,,,,,,,
,,,,,951473,001,2025-03-16_19h39.11.089,Utility_discrimination_2024_2cat,2024.2.4,MacIntel,60.24096386,,,,,,,,4,"[0.5,0.5]","[0,1]",s,"[0.6792573906445492,0.9324643053670063]","[0.32074260935545085,0.06753569463299375]",571.2354,572.9,0,s,0,0.1435,,0.443410766,0.887735298,0.444324531,572.9034,572.9035,0,130,130,130,1,0.468034963,0.468034963,shape_difference3,1,,TRUE,,intensity,0.1,0.05,0.7,0.3,0.82,20,400,1E-11,3.5,0.01,0.5,0.1,,,,,,,,,,,,,,,,,,,,,,,,,,,,,,,,,,,,,,,,,,,,,,,,,,,,,,,,,,,,,,,,,,,,,,,,,,,,,,,,,
,,,,,951473,001,2025-03-16_19h39.11.089,Utility_discrimination_2024_2cat,2024.2.4,MacIntel,60.24096386,,,,,,,,1,"[0.5,0.5]","[0.924,0.383]",d,"[0.5,1.1530050083392127]","[0.5,-0.1530050083392126]",572.9043,574.532,0,s,0,0.0996,,0.564935084,0.98334268,0.418407596,574.5327,574.5328,0,131,131,131,1,0.653005008,0.653005008,shape_difference4,1,,TRUE,,intensity,0.1,0.05,0.7,0.3,0.82,20,400,1E-11,3.5,0.01,0.5,0.1,,,,,,,,,,,,,,,,,,,,,,,,,,,,,,,,,,,,,,,,,,,,,,,,,,,,,,,,,,,,,,,,,,,,,,,,,,,,,,,,,
,,,,,951473,001,2025-03-16_19h39.11.089,Utility_discrimination_2024_2cat,2024.2.4,MacIntel,60.24096386,,,,,,,,0,"[0.5,0.5]","[1,0]",d,"[1.2025694434272969,0.7912165550136956]","[-0.20256944342729688,0.2087834449863044]",574.5333,576.1663,1,s,1,0.1149,,1.125859086,1.418131628,0.292272542,576.1676,576.1677,0,132,132,132,1,0.760356541,0.760356541,shape_difference1,1,,TRUE,,intensity,0.1,0.05,0.7,0.3,0.82,20,400,1E-11,3.5,0.01,0.5,0.1,,,,,,,,,,,,,,,,,,,,,,,,,,,,,,,,,,,,,,,,,,,,,,,,,,,,,,,,,,,,,,,,,,,,,,,,,,,,,,,,,
,,,,,951473,001,2025-03-16_19h39.11.089,Utility_discrimination_2024_2cat,2024.2.4,MacIntel,60.24096386,,,,,,,,2,"[0.5,0.5]","[0.707,0.707]",s,"[1.775982592210389,0.5]","[-0.7759825922103889,0.5]",576.1686,577.7664,1,s,1,0.0723,,0.742256959,1.147631696,0.405374737,577.7688,577.7688,0,133,133,133,1,1.275982592,1.275982592,shape_difference0,1,,TRUE,,intensity,0.1,0.05,0.7,0.3,0.82,20,400,1E-11,3.5,0.01,0.5,0.1,,,,,,,,,,,,,,,,,,,,,,,,,,,,,,,,,,,,,,,,,,,,,,,,,,,,,,,,,,,,,,,,,,,,,,,,,,,,,,,,,
,,,,,951473,001,2025-03-16_19h39.11.089,Utility_discrimination_2024_2cat,2024.2.4,MacIntel,60.24096386,,,,,,,,3,"[0.5,0.5]","[0.383,0.924]",s,"[1.165279269668372,1.165279269668372]","[-0.16527926966837203,-0.16527926966837203]",577.7698,579.7161,1,s,1,0.4208,,0.3793457,0.69492235,0.31557665,579.7169,579.7169,0,134,134,134,1,0.940989066,0.940989066,shape_difference2,1,,TRUE,,intensity,0.1,0.05,0.7,0.3,0.82,20,400,1E-11,3.5,0.01,0.5,0.1,,,,,,,,,,,,,,,,,,,,,,,,,,,,,,,,,,,,,,,,,,,,,,,,,,,,,,,,,,,,,,,,,,,,,,,,,,,,,,,,,
,,,,,951473,001,2025-03-16_19h39.11.089,Utility_discrimination_2024_2cat,2024.2.4,MacIntel,60.24096386,,,,,,,,0,"[0.5,0.5]","[1,0]",s,"[0.6946713948049552,0.969651093472007]","[0.30532860519504473,0.030348906527993047]",579.7174,581.4829,1,s,1,0.2312,,1.121620178,1.396290275,0.274670097,581.4838,581.4839,0,135,135,135,1,0.508280404,0.508280404,shape_difference3,1,,TRUE,,intensity,0.1,0.05,0.7,0.3,0.82,20,400,1E-11,3.5,0.01,0.5,0.1,,,,,,,,,,,,,,,,,,,,,,,,,,,,,,,,,,,,,,,,,,,,,,,,,,,,,,,,,,,,,,,,,,,,,,,,,,,,,,,,,
,,,,,951473,001,2025-03-16_19h39.11.089,Utility_discrimination_2024_2cat,2024.2.4,MacIntel,60.24096386,,,,,,,,1,"[0.5,0.5]","[0.924,0.383]",s,"[1.7676991188583873,0.5]","[-0.7676991188583873,0.5]",581.4842,583.3666,0,s,0,0.3495,,0.553679893,0.951897944,0.398218051,583.3684,583.3686,0,136,136,136,1,1.267699119,1.267699119,shape_difference0,1,,TRUE,,intensity,0.1,0.05,0.7,0.3,0.82,20,400,1E-11,3.5,0.01,0.5,0.1,,,,,,,,,,,,,,,,,,,,,,,,,,,,,,,,,,,,,,,,,,,,,,,,,,,,,,,,,,,,,,,,,,,,,,,,,,,,,,,,,
,,,,,951473,001,2025-03-16_19h39.11.089,Utility_discrimination_2024_2cat,2024.2.4,MacIntel,60.24096386,,,,,,,,2,"[0.5,0.5]","[0.707,0.707]",d,"[1.1839623051143153,0.7835038559077736]","[-0.18396230511431533,0.21649614409222645]",583.3695,585.3331,0,s,0,0.433,,0.731928134,1.113116068,0.381187934,585.334,585.334,0,137,137,137,1,0.740218945,0.740218945,shape_difference1,1,,TRUE,,intensity,0.1,0.05,0.7,0.3,0.82,20,400,1E-11,3.5,0.01,0.5,0.1,,,,,,,,,,,,,,,,,,,,,,,,,,,,,,,,,,,,,,,,,,,,,,,,,,,,,,,,,,,,,,,,,,,,,,,,,,,,,,,,,
,,,,,951473,001,2025-03-16_19h39.11.089,Utility_discrimination_2024_2cat,2024.2.4,MacIntel,60.24096386,,,,,,,,4,"[0.5,0.5]","[0,1]",d,"[1.1497395750768247,1.1497395750768247]","[-0.14973957507682478,-0.14973957507682478]",585.3345,587.15,1,s,1,0.2906,,0.544524124,0.985370932,0.440846808,587.1511,587.1511,0,138,138,138,1,0.9190093,0.9190093,shape_difference2,1,,TRUE,,intensity,0.1,0.05,0.7,0.3,0.82,20,400,1E-11,3.5,0.01,0.5,0.1,,,,,,,,,,,,,,,,,,,,,,,,,,,,,,,,,,,,,,,,,,,,,,,,,,,,,,,,,,,,,,,,,,,,,,,,,,,,,,,,,
,,,,,951473,001,2025-03-16_19h39.11.089,Utility_discrimination_2024_2cat,2024.2.4,MacIntel,60.24096386,,,,,,,,4,"[0.5,0.5]","[0,1]",s,"[0.5,1.258022602033607]","[0.5,-0.25802260203360705]",587.1518,588.8165,0,s,0,0.1451,,0.648110511,1.076509304,0.428398793,588.8172,588.8172,0,139,139,139,1,0.758022602,0.758022602,shape_difference4,1,,TRUE,,intensity,0.1,0.05,0.7,0.3,0.82,20,400,1E-11,3.5,0.01,0.5,0.1,,,,,,,,,,,,,,,,,,,,,,,,,,,,,,,,,,,,,,,,,,,,,,,,,,,,,,,,,,,,,,,,,,,,,,,,,,,,,,,,,
,,,,,951473,001,2025-03-16_19h39.11.089,Utility_discrimination_2024_2cat,2024.2.4,MacIntel,60.24096386,,,,,,,,1,"[0.5,0.5]","[0.924,0.383]",d,"[0.5,1.3582093532218438]","[0.5,-0.35820935322184366]",588.8177,590.517,1,s,1,0.1687,,0.612741677,0.994255477,0.3815138,590.519,590.519,0,140,140,140,1,0.858209353,0.858209353,shape_difference4,1,,TRUE,,intensity,0.1,0.05,0.7,0.3,0.82,20,400,1E-11,3.5,0.01,0.5,0.1,,,,,,,,,,,,,,,,,,,,,,,,,,,,,,,,,,,,,,,,,,,,,,,,,,,,,,,,,,,,,,,,,,,,,,,,,,,,,,,,,
,,,,,951473,001,2025-03-16_19h39.11.089,Utility_discrimination_2024_2cat,2024.2.4,MacIntel,60.24096386,,,,,,,,3,"[0.5,0.5]","[0.383,0.924]",s,"[1.226080730773464,0.8009620345089142]","[-0.22608073077346402,0.19903796549108577]",590.52,592.1501,1,s,1,0.1011,,0.363164181,0.675574921,0.31241074,592.1526,592.1526,0,141,141,141,1,0.785801657,0.785801657,shape_difference1,1,,TRUE,,intensity,0.1,0.05,0.7,0.3,0.82,20,400,1E-11,3.5,0.01,0.5,0.1,,,,,,,,,,,,,,,,,,,,,,,,,,,,,,,,,,,,,,,,,,,,,,,,,,,,,,,,,,,,,,,,,,,,,,,,,,,,,,,,,
,,,,,951473,001,2025-03-16_19h39.11.089,Utility_discrimination_2024_2cat,2024.2.4,MacIntel,60.24096386,,,,,,,,2,"[0.5,0.5]","[0.707,0.707]",s,"[0.6889796725305731,0.9559196277238893]","[0.31102032746942687,0.04408037227611078]",592.1535,593.8329,0,s,0,0.1492,,0.724590905,1.088688806,0.364097901,593.8348,593.8349,0,142,142,142,1,0.493419511,0.493419511,shape_difference3,1,,TRUE,,intensity,0.1,0.05,0.7,0.3,0.82,20,400,1E-11,3.5,0.01,0.5,0.1,,,,,,,,,,,,,,,,,,,,,,,,,,,,,,,,,,,,,,,,,,,,,,,,,,,,,,,,,,,,,,,,,,,,,,,,,,,,,,,,,
,,,,,951473,001,2025-03-16_19h39.11.089,Utility_discrimination_2024_2cat,2024.2.4,MacIntel,60.24096386,,,,,,,,0,"[0.5,0.5]","[1,0]",d,"[1.1337565767001454,1.1337565767001454]","[-0.1337565767001455,-0.1337565767001455]",593.8381,595.4518,0,s,0,0.0958,,1.180748491,1.457918047,0.277169555,595.4558,595.4558,0,143,143,143,1,0.896402513,0.896402513,shape_difference2,1,,TRUE,,intensity,0.1,0.05,0.7,0.3,0.82,20,400,1E-11,3.5,0.01,0.5,0.1,,,,,,,,,,,,,,,,,,,,,,,,,,,,,,,,,,,,,,,,,,,,,,,,,,,,,,,,,,,,,,,,,,,,,,,,,,,,,,,,,
,,,,,951473,001,2025-03-16_19h39.11.089,Utility_discrimination_2024_2cat,2024.2.4,MacIntel,60.24096386,,,,,,,,3,"[0.5,0.5]","[0.383,0.924]",d,"[1.802556831153892,0.5]","[-0.802556831153892,0.5]",595.4569,597.2677,1,s,1,0.2826,,0.407573703,0.734054309,0.326480606,597.2699,597.27,0,144,144,144,1,1.302556831,1.302556831,shape_difference0,1,,TRUE,,intensity,0.1,0.05,0.7,0.3,0.82,20,400,1E-11,3.5,0.01,0.5,0.1,,,,,,,,,,,,,,,,,,,,,,,,,,,,,,,,,,,,,,,,,,,,,,,,,,,,,,,,,,,,,,,,,,,,,,,,,,,,,,,,,
,,,,,951473,001,2025-03-16_19h39.11.089,Utility_discrimination_2024_2cat,2024.2.4,MacIntel,60.24096386,,,,,,,,2,"[0.5,0.5]","[0.707,0.707]",s,"[0.707111184422921,0.999662491923705]","[0.292888815577079,0.0003375080762949567]",597.271,598.9328,0,d,0,0.1389,,0.802506442,1.152701158,0.350194716,598.9341,598.9341,0,145,145,145,1,0.540760273,0.540760273,shape_difference3,1,,TRUE,,intensity,0.1,0.05,0.7,0.3,0.82,20,400,1E-11,3.5,0.01,0.5,0.1,,,,,,,,,,,,,,,,,,,,,,,,,,,,,,,,,,,,,,,,,,,,,,,,,,,,,,,,,,,,,,,,,,,,,,,,,,,,,,,,,
,,,,,951473,001,2025-03-16_19h39.11.089,Utility_discrimination_2024_2cat,2024.2.4,MacIntel,60.24096386,,,,,,,,0,"[0.5,0.5]","[1,0]",s,"[1.176940583635942,1.176940583635942]","[-0.1769405836359419,-0.1769405836359419]",598.9348,600.5338,1,s,1,0.0712,,1.164921782,1.437689824,0.272768042,600.5357,600.5357,0,146,146,146,1,0.957483145,0.957483145,shape_difference2,1,,TRUE,,intensity,0.1,0.05,0.7,0.3,0.82,20,400,1E-11,3.5,0.01,0.5,0.1,,,,,,,,,,,,,,,,,,,,,,,,,,,,,,,,,,,,,,,,,,,,,,,,,,,,,,,,,,,,,,,,,,,,,,,,,,,,,,,,,
,,,,,951473,001,2025-03-16_19h39.11.089,Utility_discrimination_2024_2cat,2024.2.4,MacIntel,60.24096386,,,,,,,,1,"[0.5,0.5]","[0.924,0.383]",s,"[1.791622040348439,0.5]","[-0.7916220403484391,0.5]",600.5366,602.7845,0,s,0,0.7259,,0.609123573,0.971049334,0.361925761,602.7866,602.7867,0,147,147,147,1,1.29162204,1.29162204,shape_difference0,1,,TRUE,,intensity,0.1,0.05,0.7,0.3,0.82,20,400,1E-11,3.5,0.01,0.5,0.1,,,,,,,,,,,,,,,,,,,,,,,,,,,,,,,,,,,,,,,,,,,,,,,,,,,,,,,,,,,,,,,,,,,,,,,,,,,,,,,,,
,,,,,951473,001,2025-03-16_19h39.11.089,Utility_discrimination_2024_2cat,2024.2.4,MacIntel,60.24096386,,,,,,,,4,"[0.5,0.5]","[0,1]",d,"[1.2105229551216024,0.7945133028263784]","[-0.21052295512160246,0.2054866971736215]",602.79,604.3168,1,s,1,0.0129,,0.639288169,1.044573057,0.405284888,604.3175,604.3176,0,148,148,148,1,0.768964237,0.768964237,shape_difference1,1,,TRUE,,intensity,0.1,0.05,0.7,0.3,0.82,20,400,1E-11,3.5,0.01,0.5,0.1,,,,,,,,,,,,,,,,,,,,,,,,,,,,,,,,,,,,,,,,,,,,,,,,,,,,,,,,,,,,,,,,,,,,,,,,,,,,,,,,,
,,,,,951473,001,2025-03-16_19h39.11.089,Utility_discrimination_2024_2cat,2024.2.4,MacIntel,60.24096386,,,,,,,,4,"[0.5,0.5]","[0,1]",s,"[0.5,1.337771428436234]","[0.5,-0.3377714284362342]",604.3179,644.3357,0,d,0,38.4946,,0.711005976,1.088919034,0.377913058,644.3375,644.3375,0,149,149,149,1,0.837771428,0.837771428,shape_difference4,1,,TRUE,,intensity,0.1,0.05,0.7,0.3,0.82,20,400,1E-11,3.5,0.01,0.5,0.1,,,,,,,,,,,,,,,,,,,,,,,,,,,,,,,,,,,,,,,,,,,,,,,,,,,,,,,,,,,,,,,,,,,,,,,,,,,,,,,,,
,,,,,951473,001,2025-03-16_19h39.11.089,Utility_discrimination_2024_2cat,2024.2.4,MacIntel,60.24096386,,,,,,,,1,"[0.5,0.5]","[0.924,0.383]",s,"[0.5,1.3858950684192477]","[0.5,-0.3858950684192478]",644.3397,646.1197,1,d,1,0.2495,,0.606385495,0.939609535,0.33322404,646.1215,646.1215,0,150,150,150,1,0.885895068,0.885895068,shape_difference4,1,,TRUE,,intensity,0.1,0.05,0.7,0.3,0.82,20,400,1E-11,3.5,0.01,0.5,0.1,,,,,,,,,,,,,,,,,,,,,,,,,,,,,,,,,,,,,,,,,,,,,,,,,,,,,,,,,,,,,,,,,,,,,,,,,,,,,,,,,
,,,,,951473,001,2025-03-16_19h39.11.089,Utility_discrimination_2024_2cat,2024.2.4,MacIntel,60.24096386,,,,,,,,3,"[0.5,0.5]","[0.383,0.924]",d,"[1.1969771707738097,0.7888985458943389]","[-0.19697717077380983,0.21110145410566106]",646.1225,647.8699,1,d,1,0.2266,,0.416884629,0.784291156,0.367406527,647.8729,647.873,0,151,151,151,1,0.754304297,0.754304297,shape_difference1,1,,TRUE,,intensity,0.1,0.05,0.7,0.3,0.82,20,400,1E-11,3.5,0.01,0.5,0.1,,,,,,,,,,,,,,,,,,,,,,,,,,,,,,,,,,,,,,,,,,,,,,,,,,,,,,,,,,,,,,,,,,,,,,,,,,,,,,,,,
,,,,,951473,001,2025-03-16_19h39.11.089,Utility_discrimination_2024_2cat,2024.2.4,MacIntel,60.24096386,,,,,,,,0,"[0.5,0.5]","[1,0]",d,"[0.7198024289921694,1.0302805336521268]","[0.2801975710078306,-0.030280533652126684]",647.8761,649.5523,0,d,0,0.1479,,1.20724402,1.476868676,0.269624656,649.5542,649.5542,0,152,152,152,1,0.573896681,0.573896681,shape_difference3,1,,TRUE,,intensity,0.1,0.05,0.7,0.3,0.82,20,400,1E-11,3.5,0.01,0.5,0.1,,,,,,,,,,,,,,,,,,,,,,,,,,,,,,,,,,,,,,,,,,,,,,,,,,,,,,,,,,,,,,,,,,,,,,,,,,,,,,,,,
,,,,,951473,001,2025-03-16_19h39.11.089,Utility_discrimination_2024_2cat,2024.2.4,MacIntel,60.24096386,,,,,,,,2,"[0.5,0.5]","[0.707,0.707]",s,"[1.831789554263449,0.5]","[-0.831789554263449,0.5]",649.5551,651.3029,0,s,0,0.2158,,0.800047075,1.115600918,0.315553843,651.3049,651.305,0,153,153,153,1,1.331789554,1.331789554,shape_difference0,1,,TRUE,,intensity,0.1,0.05,0.7,0.3,0.82,20,400,1E-11,3.5,0.01,0.5,0.1,,,,,,,,,,,,,,,,,,,,,,,,,,,,,,,,,,,,,,,,,,,,,,,,,,,,,,,,,,,,,,,,,,,,,,,,,,,,,,,,,
,,,,,951473,001,2025-03-16_19h39.11.089,Utility_discrimination_2024_2cat,2024.2.4,MacIntel,60.24096386,,,,,,,,2,"[0.5,0.5]","[0.707,0.707]",d,"[1.166133276037348,1.166133276037348]","[-0.16613327603734795,-0.16613327603734795]",651.306,652.8697,0,d,0,0.0384,,0.815803918,1.165696466,0.349892548,652.8705,652.8706,0,154,154,154,1,0.942196996,0.942196996,shape_difference2,1,,TRUE,,intensity,0.1,0.05,0.7,0.3,0.82,20,400,1E-11,3.5,0.01,0.5,0.1,,,,,,,,,,,,,,,,,,,,,,,,,,,,,,,,,,,,,,,,,,,,,,,,,,,,,,,,,,,,,,,,,,,,,,,,,,,,,,,,,
,,,,,951473,001,2025-03-16_19h39.11.089,Utility_discrimination_2024_2cat,2024.2.4,MacIntel,60.24096386,,,,,,,,1,"[0.5,0.5]","[0.924,0.383]",s,"[1.1905893996195012,1.1905893996195012]","[-0.19058939961950128,-0.19058939961950128]",652.871,654.4033,0,d,0,0.0125,,0.604246413,0.898783199,0.294536786,654.4039,654.4039,0,155,155,155,1,0.976788401,0.976788401,shape_difference2,1,,TRUE,,intensity,0.1,0.05,0.7,0.3,0.82,20,400,1E-11,3.5,0.01,0.5,0.1,,,,,,,,,,,,,,,,,,,,,,,,,,,,,,,,,,,,,,,,,,,,,,,,,,,,,,,,,,,,,,,,,,,,,,,,,,,,,,,,,
,,,,,951473,001,2025-03-16_19h39.11.089,Utility_discrimination_2024_2cat,2024.2.4,MacIntel,60.24096386,,,,,,,,4,"[0.5,0.5]","[0,1]",s,"[1.184630432683016,0.7837807962311635]","[-0.18463043268301593,0.21621920376883652]",654.4042,656.0701,0,s,0,0.1393,,0.707219483,1.066053813,0.35883433,656.072,656.072,0,156,156,156,1,0.740942027,0.740942027,shape_difference1,1,,TRUE,,intensity,0.1,0.05,0.7,0.3,0.82,20,400,1E-11,3.5,0.01,0.5,0.1,,,,,,,,,,,,,,,,,,,,,,,,,,,,,,,,,,,,,,,,,,,,,,,,,,,,,,,,,,,,,,,,,,,,,,,,,,,,,,,,,
,,,,,951473,001,2025-03-16_19h39.11.089,Utility_discrimination_2024_2cat,2024.2.4,MacIntel,60.24096386,,,,,,,,0,"[0.5,0.5]","[1,0]",d,"[0.5,1.3692259310953871]","[0.5,-0.36922593109538726]",656.0728,672.7368,1,d,1,15.1435,,1.215436306,1.495925926,0.280489621,672.7382,672.7382,0,157,157,157,1,0.869225931,0.869225931,shape_difference4,1,,TRUE,,intensity,0.1,0.05,0.7,0.3,0.82,20,400,1E-11,3.5,0.01,0.5,0.1,,,,,,,,,,,,,,,,,,,,,,,,,,,,,,,,,,,,,,,,,,,,,,,,,,,,,,,,,,,,,,,,,,,,,,,,,,,,,,,,,
,,,,,951473,001,2025-03-16_19h39.11.089,Utility_discrimination_2024_2cat,2024.2.4,MacIntel,60.24096386,,,,,,,,3,"[0.5,0.5]","[0.383,0.924]",d,"[1.8589722322111315,0.5]","[-0.8589722322111315,0.5]",672.7389,674.6209,1,d,1,0.357,,0.467589788,0.871069734,0.403479945,674.6216,674.6216,0,158,158,158,1,1.358972232,1.358972232,shape_difference0,1,,TRUE,,intensity,0.1,0.05,0.7,0.3,0.82,20,400,1E-11,3.5,0.01,0.5,0.1,,,,,,,,,,,,,,,,,,,,,,,,,,,,,,,,,,,,,,,,,,,,,,,,,,,,,,,,,,,,,,,,,,,,,,,,,,,,,,,,,
,,,,,951473,001,2025-03-16_19h39.11.089,Utility_discrimination_2024_2cat,2024.2.4,MacIntel,60.24096386,,,,,,,,3,"[0.5,0.5]","[0.383,0.924]",d,"[0.7464958863433464,1.09467937070823]","[0.25350411365665354,-0.09467937070823018]",674.622,676.4883,0,d,0,0.3338,,0.514111574,0.922140436,0.408028862,676.4917,676.4919,0,159,159,159,1,0.643592393,0.643592393,shape_difference3,1,,TRUE,,intensity,0.1,0.05,0.7,0.3,0.82,20,400,1E-11,3.5,0.01,0.5,0.1,,,,,,,,,,,,,,,,,,,,,,,,,,,,,,,,,,,,,,,,,,,,,,,,,,,,,,,,,,,,,,,,,,,,,,,,,,,,,,,,,
,,,,,951473,001,2025-03-16_19h39.11.089,Utility_discrimination_2024_2cat,2024.2.4,MacIntel,60.24096386,,,,,,,,0,"[0.5,0.5]","[1,0]",s,"[0.764486835676111,1.1380831231455]","[0.23551316432388902,-0.1380831231455001]",676.493,678.3048,1,s,1,0.2888,,1.213257635,1.486018372,0.272760738,678.3069,678.307,0,160,160,160,1,0.690566151,0.690566151,shape_difference3,1,,TRUE,,intensity,0.1,0.05,0.7,0.3,0.82,20,400,1E-11,3.5,0.01,0.5,0.1,,,,,,,,,,,,,,,,,,,,,,,,,,,,,,,,,,,,,,,,,,,,,,,,,,,,,,,,,,,,,,,,,,,,,,,,,,,,,,,,,
,,,,,951473,001,2025-03-16_19h39.11.089,Utility_discrimination_2024_2cat,2024.2.4,MacIntel,60.24096386,,,,,,,,1,"[0.5,0.5]","[0.924,0.383]",s,"[1.850060784861772,0.5]","[-0.8500607848617721,0.5]",678.308,679.8713,0,d,0,0.0332,,0.616621938,0.954582235,0.337960297,679.8728,679.8728,0,161,161,161,1,1.350060785,1.350060785,shape_difference0,1,,TRUE,,intensity,0.1,0.05,0.7,0.3,0.82,20,400,1E-11,3.5,0.01,0.5,0.1,,,,,,,,,,,,,,,,,,,,,,,,,,,,,,,,,,,,,,,,,,,,,,,,,,,,,,,,,,,,,,,,,,,,,,,,,,,,,,,,,
,,,,,951473,001,2025-03-16_19h39.11.089,Utility_discrimination_2024_2cat,2024.2.4,MacIntel,60.24096386,,,,,,,,2,"[0.5,0.5]","[0.707,0.707]",s,"[1.2127575891463764,0.7954395634665175]","[-0.21275758914637632,0.20456043653348255]",679.8736,681.7547,1,s,1,0.3506,,0.87300051,1.222085455,0.349084944,681.7574,681.7574,0,162,162,162,1,0.771382672,0.771382672,shape_difference1,1,,TRUE,,intensity,0.1,0.05,0.7,0.3,0.82,20,400,1E-11,3.5,0.01,0.5,0.1,,,,,,,,,,,,,,,,,,,,,,,,,,,,,,,,,,,,,,,,,,,,,,,,,,,,,,,,,,,,,,,,,,,,,,,,,,,,,,,,,
,,,,,951473,001,2025-03-16_19h39.11.089,Utility_discrimination_2024_2cat,2024.2.4,MacIntel,60.24096386,,,,,,,,4,"[0.5,0.5]","[0,1]",s,"[1.2355933645030541,1.2355933645030541]","[-0.23559336450305401,-0.23559336450305401]",681.7577,722.2567,1,s,1,38.9727,,0.70431868,1.034820218,0.330501538,722.2588,722.2589,0,163,163,163,1,1.040443231,1.040443231,shape_difference2,1,,TRUE,,intensity,0.1,0.05,0.7,0.3,0.82,20,400,1E-11,3.5,0.01,0.5,0.1,,,,,,,,,,,,,,,,,,,,,,,,,,,,,,,,,,,,,,,,,,,,,,,,,,,,,,,,,,,,,,,,,,,,,,,,,,,,,,,,,
,,,,,951473,001,2025-03-16_19h39.11.089,Utility_discrimination_2024_2cat,2024.2.4,MacIntel,60.24096386,,,,,,,,1,"[0.5,0.5]","[0.924,0.383]",s,"[0.5,1.3546436466194196]","[0.5,-0.3546436466194195]",722.261,723.9896,1,d,1,0.201,,0.613701639,0.920485435,0.306783796,723.9919,723.9919,0,164,164,164,1,0.854643647,0.854643647,shape_difference4,1,,TRUE,,intensity,0.1,0.05,0.7,0.3,0.82,20,400,1E-11,3.5,0.01,0.5,0.1,,,,,,,,,,,,,,,,,,,,,,,,,,,,,,,,,,,,,,,,,,,,,,,,,,,,,,,,,,,,,,,,,,,,,,,,,,,,,,,,,
,,,,,951473,001,2025-03-16_19h39.11.089,Utility_discrimination_2024_2cat,2024.2.4,MacIntel,60.24096386,,,,,,,,3,"[0.5,0.5]","[0.383,0.924]",d,"[1.2022782045852716,0.7910958358832889]","[-0.20227820458527168,0.20890416411671103]",723.993,725.723,1,s,1,0.2003,,0.51047346,0.886611441,0.376137981,725.7237,725.7238,0,165,165,165,1,0.760041347,0.760041347,shape_difference1,1,,TRUE,,intensity,0.1,0.05,0.7,0.3,0.82,20,400,1E-11,3.5,0.01,0.5,0.1,,,,,,,,,,,,,,,,,,,,,,,,,,,,,,,,,,,,,,,,,,,,,,,,,,,,,,,,,,,,,,,,,,,,,,,,,,,,,,,,,
,,,,,951473,001,2025-03-16_19h39.11.089,Utility_discrimination_2024_2cat,2024.2.4,MacIntel,60.24096386,,,,,,,,2,"[0.5,0.5]","[0.707,0.707]",s,"[0.7572953254273866,1.1207333699605884]","[0.2427046745726133,-0.12073336996058825]",725.724,727.474,0,d,0,0.2323,,0.85630551,1.194896353,0.338590843,727.4768,727.477,0,166,166,166,1,0.671789361,0.671789361,shape_difference3,1,,TRUE,,intensity,0.1,0.05,0.7,0.3,0.82,20,400,1E-11,3.5,0.01,0.5,0.1,,,,,,,,,,,,,,,,,,,,,,,,,,,,,,,,,,,,,,,,,,,,,,,,,,,,,,,,,,,,,,,,,,,,,,,,,,,,,,,,,
,,,,,951473,001,2025-03-16_19h39.11.089,Utility_discrimination_2024_2cat,2024.2.4,MacIntel,60.24096386,,,,,,,,4,"[0.5,0.5]","[0,1]",s,"[1.2230073302503583,1.2230073302503583]","[-0.22300733025035835,-0.22300733025035835]",727.4785,729.108,1,d,1,0.1003,,0.702021968,0.997590726,0.295568758,729.1096,729.1096,0,167,167,167,1,1.022641203,1.022641203,shape_difference2,1,,TRUE,,intensity,0.1,0.05,0.7,0.3,0.82,20,400,1E-11,3.5,0.01,0.5,0.1,,,,,,,,,,,,,,,,,,,,,,,,,,,,,,,,,,,,,,,,,,,,,,,,,,,,,,,,,,,,,,,,,,,,,,,,,,,,,,,,,
,,,,,951473,001,2025-03-16_19h39.11.089,Utility_discrimination_2024_2cat,2024.2.4,MacIntel,60.24096386,,,,,,,,0,"[0.5,0.5]","[1,0]",d,"[0.5,1.341299519044051]","[0.5,-0.3412995190440512]",729.1103,731.1414,1,d,1,0.5132,,1.244130602,1.544250268,0.300119666,731.144,731.144,0,168,168,168,1,0.841299519,0.841299519,shape_difference4,1,,TRUE,,intensity,0.1,0.05,0.7,0.3,0.82,20,400,1E-11,3.5,0.01,0.5,0.1,,,,,,,,,,,,,,,,,,,,,,,,,,,,,,,,,,,,,,,,,,,,,,,,,,,,,,,,,,,,,,,,,,,,,,,,,,,,,,,,,
,,,,,951473,001,2025-03-16_19h39.11.089,Utility_discrimination_2024_2cat,2024.2.4,MacIntel,60.24096386,,,,,,,,0,"[0.5,0.5]","[1,0]",d,"[1.889133690931513,0.5]","[-0.8891336909315131,0.5]",731.146,733.0576,0,d,0,0.3852,,1.305312339,1.582398065,0.277085726,733.0602,733.0603,0,169,169,169,1,1.389133691,1.389133691,shape_difference0,1,,TRUE,,intensity,0.1,0.05,0.7,0.3,0.82,20,400,1E-11,3.5,0.01,0.5,0.1,,,,,,,,,,,,,,,,,,,,,,,,,,,,,,,,,,,,,,,,,,,,,,,,,,,,,,,,,,,,,,,,,,,,,,,,,,,,,,,,,
,,,,,951473,001,2025-03-16_19h39.11.089,Utility_discrimination_2024_2cat,2024.2.4,MacIntel,60.24096386,,,,,,,,4,"[0.5,0.5]","[0,1]",s,"[1.9329810357750192,0.5]","[-0.9329810357750192,0.5]",733.0615,734.7573,0,s,0,0.1774,,0.691192316,0.985922896,0.29473058,734.7579,734.7579,0,170,170,170,1,1.432981036,1.432981036,shape_difference0,1,,TRUE,,intensity,0.1,0.05,0.7,0.3,0.82,20,400,1E-11,3.5,0.01,0.5,0.1,,,,,,,,,,,,,,,,,,,,,,,,,,,,,,,,,,,,,,,,,,,,,,,,,,,,,,,,,,,,,,,,,,,,,,,,,,,,,,,,,
,,,,,951473,001,2025-03-16_19h39.11.089,Utility_discrimination_2024_2cat,2024.2.4,MacIntel,60.24096386,,,,,,,,1,"[0.5,0.5]","[0.924,0.383]",d,"[0.5,1.327126590301269]","[0.5,-0.327126590301269]",734.7582,736.5077,1,s,1,0.226,,0.611461251,0.893864051,0.2824028,736.5097,736.5098,0,171,171,171,1,0.82712659,0.82712659,shape_difference4,1,,TRUE,,intensity,0.1,0.05,0.7,0.3,0.82,20,400,1E-11,3.5,0.01,0.5,0.1,,,,,,,,,,,,,,,,,,,,,,,,,,,,,,,,,,,,,,,,,,,,,,,,,,,,,,,,,,,,,,,,,,,,,,,,,,,,,,,,,
,,,,,951473,001,2025-03-16_19h39.11.089,Utility_discrimination_2024_2cat,2024.2.4,MacIntel,60.24096386,,,,,,,,3,"[0.5,0.5]","[0.383,0.924]",s,"[1.192805308506241,0.7871692999544267]","[-0.192805308506241,0.21283070004557325]",736.5111,738.2912,0,d,0,0.2508,,0.558963997,0.972456997,0.413493001,738.2939,738.2941,0,172,172,172,1,0.749789295,0.749789295,shape_difference1,1,,TRUE,,intensity,0.1,0.05,0.7,0.3,0.82,20,400,1E-11,3.5,0.01,0.5,0.1,,,,,,,,,,,,,,,,,,,,,,,,,,,,,,,,,,,,,,,,,,,,,,,,,,,,,,,,,,,,,,,,,,,,,,,,,,,,,,,,,
,,,,,951473,001,2025-03-16_19h39.11.089,Utility_discrimination_2024_2cat,2024.2.4,MacIntel,60.24096386,,,,,,,,2,"[0.5,0.5]","[0.707,0.707]",s,"[0.7875107778628808,1.1936291351052268]","[0.21248922213711918,-0.19362913510522684]",738.2952,739.8576,1,d,1,0.0334,,0.844375716,1.180283504,0.335907787,739.859,739.859,0,173,173,173,1,0.750680882,0.750680882,shape_difference3,1,,TRUE,,intensity,0.1,0.05,0.7,0.3,0.82,20,400,1E-11,3.5,0.01,0.5,0.1,,,,,,,,,,,,,,,,,,,,,,,,,,,,,,,,,,,,,,,,,,,,,,,,,,,,,,,,,,,,,,,,,,,,,,,,,,,,,,,,,
,,,,,951473,001,2025-03-16_19h39.11.089,Utility_discrimination_2024_2cat,2024.2.4,MacIntel,60.24096386,,,,,,,,0,"[0.5,0.5]","[1,0]",d,"[1.2089436916812872,1.2089436916812872]","[-0.20894369168128724,-0.20894369168128724]",739.8603,741.4243,0,d,0,0.0334,,1.315176284,1.601169716,0.285993432,741.4257,741.4257,0,174,174,174,1,1.00274921,1.00274921,shape_difference2,1,,TRUE,,intensity,0.1,0.05,0.7,0.3,0.82,20,400,1E-11,3.5,0.01,0.5,0.1,,,,,,,,,,,,,,,,,,,,,,,,,,,,,,,,,,,,,,,,,,,,,,,,,,,,,,,,,,,,,,,,,,,,,,,,,,,,,,,,,
,,,,,951473,001,2025-03-16_19h39.11.089,Utility_discrimination_2024_2cat,2024.2.4,MacIntel,60.24096386,,,,,,,,2,"[0.5,0.5]","[0.707,0.707]",s,"[1.9622635242183835,0.5]","[-0.9622635242183835,0.5]",741.4269,743.358,0,d,0,0.4015,,0.907003078,1.225567982,0.318564904,743.3609,743.3609,0,175,175,175,1,1.462263524,1.462263524,shape_difference0,1,,TRUE,,intensity,0.1,0.05,0.7,0.3,0.82,20,400,1E-11,3.5,0.01,0.5,0.1,,,,,,,,,,,,,,,,,,,,,,,,,,,,,,,,,,,,,,,,,,,,,,,,,,,,,,,,,,,,,,,,,,,,,,,,,,,,,,,,,
,,,,,951473,001,2025-03-16_19h39.11.089,Utility_discrimination_2024_2cat,2024.2.4,MacIntel,60.24096386,,,,,,,,3,"[0.5,0.5]","[0.383,0.924]",s,"[1.2442026506804278,1.2442026506804278]","[-0.24420265068042768,-0.24420265068042768]",743.362,745.4581,1,d,1,0.5702,,0.549394473,0.936165644,0.386771171,745.4601,745.4601,0,176,176,176,1,1.052620439,1.052620439,shape_difference2,1,,TRUE,,intensity,0.1,0.05,0.7,0.3,0.82,20,400,1E-11,3.5,0.01,0.5,0.1,,,,,,,,,,,,,,,,,,,,,,,,,,,,,,,,,,,,,,,,,,,,,,,,,,,,,,,,,,,,,,,,,,,,,,,,,,,,,,,,,
,,,,,951473,001,2025-03-16_19h39.11.089,Utility_discrimination_2024_2cat,2024.2.4,MacIntel,60.24096386,,,,,,,,4,"[0.5,0.5]","[0,1]",d,"[0.7799152132066072,1.175304587474948]","[0.22008478679339277,-0.17530458747494804]",745.4621,747.2083,1,d,1,0.2172,,0.671363306,0.971562852,0.300199547,747.2107,747.2116,0,177,177,177,1,0.730849121,0.730849121,shape_difference3,1,,TRUE,,intensity,0.1,0.05,0.7,0.3,0.82,20,400,1E-11,3.5,0.01,0.5,0.1,,,,,,,,,,,,,,,,,,,,,,,,,,,,,,,,,,,,,,,,,,,,,,,,,,,,,,,,,,,,,,,,,,,,,,,,,,,,,,,,,
,,,,,951473,001,2025-03-16_19h39.11.089,Utility_discrimination_2024_2cat,2024.2.4,MacIntel,60.24096386,,,,,,,,1,"[0.5,0.5]","[0.924,0.383]",d,"[0.5,1.311370269052641]","[0.5,-0.311370269052641]",747.2131,748.8913,1,d,1,0.1615,,0.621610068,0.934635064,0.313024995,748.8932,748.8932,0,178,178,178,1,0.811370269,0.811370269,shape_difference4,1,,TRUE,,intensity,0.1,0.05,0.7,0.3,0.82,20,400,1E-11,3.5,0.01,0.5,0.1,,,,,,,,,,,,,,,,,,,,,,,,,,,,,,,,,,,,,,,,,,,,,,,,,,,,,,,,,,,,,,,,,,,,,,,,,,,,,,,,,
,,,,,951473,001,2025-03-16_19h39.11.089,Utility_discrimination_2024_2cat,2024.2.4,MacIntel,60.24096386,,,,,,,,0,"[0.5,0.5]","[1,0]",d,"[1.2133537318076657,0.7956866658899739]","[-0.2133537318076656,0.20431333411002606]",748.8939,750.7245,0,d,0,0.3008,,1.357171849,1.670997707,0.313825858,750.7272,750.7273,0,179,179,179,1,0.772027848,0.772027848,shape_difference1,1,,TRUE,,intensity,0.1,0.05,0.7,0.3,0.82,20,400,1E-11,3.5,0.01,0.5,0.1,,,,,,,,,,,,,,,,,,,,,,,,,,,,,,,,,,,,,,,,,,,,,,,,,,,,,,,,,,,,,,,,,,,,,,,,,,,,,,,,,
,,,,,951473,001,2025-03-16_19h39.11.089,Utility_discrimination_2024_2cat,2024.2.4,MacIntel,60.24096386,,,,,,,,4,"[0.5,0.5]","[0,1]",s,"[2.0102416537774745,0.5]","[-1.0102416537774745,0.5]",750.7284,752.6752,0,d,0,0.4174,,0.656831485,0.953289219,0.296457734,752.6777,752.6777,0,180,180,180,1,1.510241654,1.510241654,shape_difference0,1,,TRUE,,intensity,0.1,0.05,0.7,0.3,0.82,20,400,1E-11,3.5,0.01,0.5,0.1,,,,,,,,,,,,,,,,,,,,,,,,,,,,,,,,,,,,,,,,,,,,,,,,,,,,,,,,,,,,,,,,,,,,,,,,,,,,,,,,,
,,,,,951473,001,2025-03-16_19h39.11.089,Utility_discrimination_2024_2cat,2024.2.4,MacIntel,60.24096386,,,,,,,,3,"[0.5,0.5]","[0.383,0.924]",s,"[0.5,1.2961320728997507]","[0.5,-0.29613207289975063]",752.6793,754.6249,1,d,1,0.4159,,0.538509425,0.898079112,0.359569687,754.6257,754.6257,0,181,181,181,1,0.796132073,0.796132073,shape_difference4,1,,TRUE,,intensity,0.1,0.05,0.7,0.3,0.82,20,400,1E-11,3.5,0.01,0.5,0.1,,,,,,,,,,,,,,,,,,,,,,,,,,,,,,,,,,,,,,,,,,,,,,,,,,,,,,,,,,,,,,,,,,,,,,,,,,,,,,,,,
,,,,,951473,001,2025-03-16_19h39.11.089,Utility_discrimination_2024_2cat,2024.2.4,MacIntel,60.24096386,,,,,,,,2,"[0.5,0.5]","[0.707,0.707]",d,"[0.7715790283592927,1.1551932694621054]","[0.22842097164070735,-0.15519326946210543]",754.6261,757.3755,1,d,1,1.2178,,0.904992392,1.194865205,0.289872813,757.3783,757.3784,0,182,182,182,1,0.709083625,0.709083625,shape_difference3,1,,TRUE,,intensity,0.1,0.05,0.7,0.3,0.82,20,400,1E-11,3.5,0.01,0.5,0.1,,,,,,,,,,,,,,,,,,,,,,,,,,,,,,,,,,,,,,,,,,,,,,,,,,,,,,,,,,,,,,,,,,,,,,,,,,,,,,,,,
,,,,,951473,001,2025-03-16_19h39.11.089,Utility_discrimination_2024_2cat,2024.2.4,MacIntel,60.24096386,,,,,,,,1,"[0.5,0.5]","[0.924,0.383]",d,"[1.2349777372752986,1.2349777372752986]","[-0.23497773727529858,-0.23497773727529858]",757.3809,769.1767,1,d,1,10.2784,,0.682479417,0.990894905,0.308415488,769.1788,769.1788,0,183,183,183,1,1.039572471,1.039572471,shape_difference2,1,,TRUE,,intensity,0.1,0.05,0.7,0.3,0.82,20,400,1E-11,3.5,0.01,0.5,0.1,,,,,,,,,,,,,,,,,,,,,,,,,,,,,,,,,,,,,,,,,,,,,,,,,,,,,,,,,,,,,,,,,,,,,,,,,,,,,,,,,
,,,,,951473,001,2025-03-16_19h39.11.089,Utility_discrimination_2024_2cat,2024.2.4,MacIntel,60.24096386,,,,,,,,4,"[0.5,0.5]","[0,1]",d,"[1.2568637000576222,0.8137216419070015]","[-0.25686370005762227,0.18627835809299859]",769.1795,830.8955,0,s,0,60.1886,,0.646000714,0.92936828,0.283367565,830.8969,830.8969,0,184,184,184,1,0.819116559,0.819116559,shape_difference1,1,,TRUE,,intensity,0.1,0.05,0.7,0.3,0.82,20,400,1E-11,3.5,0.01,0.5,0.1,,,,,,,,,,,,,,,,,,,,,,,,,,,,,,,,,,,,,,,,,,,,,,,,,,,,,,,,,,,,,,,,,,,,,,,,,,,,,,,,,
,,,,,951473,001,2025-03-16_19h39.11.089,Utility_discrimination_2024_2cat,2024.2.4,MacIntel,60.24096386,,,,,,,,3,"[0.5,0.5]","[0.383,0.924]",d,"[0.5,1.2865385841985928]","[0.5,-0.2865385841985927]",830.899,832.712,1,d,1,0.2931,,0.530716593,0.880115045,0.349398452,832.7142,832.7143,0,185,185,185,1,0.786538584,0.786538584,shape_difference4,1,,TRUE,,intensity,0.1,0.05,0.7,0.3,0.82,20,400,1E-11,3.5,0.01,0.5,0.1,,,,,,,,,,,,,,,,,,,,,,,,,,,,,,,,,,,,,,,,,,,,,,,,,,,,,,,,,,,,,,,,,,,,,,,,,,,,,,,,,
,,,,,951473,001,2025-03-16_19h39.11.089,Utility_discrimination_2024_2cat,2024.2.4,MacIntel,60.24096386,,,,,,,,1,"[0.5,0.5]","[0.924,0.383]",d,"[0.7648444895113753,1.1389459746958503]","[0.23515551048862476,-0.13894597469585046]",832.7151,834.4282,0,d,0,0.1828,,0.711226054,1.04535545,0.334129396,834.4289,834.4289,0,186,186,186,1,0.691499973,0.691499973,shape_difference3,1,,TRUE,,intensity,0.1,0.05,0.7,0.3,0.82,20,400,1E-11,3.5,0.01,0.5,0.1,,,,,,,,,,,,,,,,,,,,,,,,,,,,,,,,,,,,,,,,,,,,,,,,,,,,,,,,,,,,,,,,,,,,,,,,,,,,,,,,,
,,,,,951473,001,2025-03-16_19h39.11.089,Utility_discrimination_2024_2cat,2024.2.4,MacIntel,60.24096386,,,,,,,,0,"[0.5,0.5]","[1,0]",s,"[1.2944570474482062,0.8293041657712803]","[-0.29445704744820633,0.1706958342287197]",834.4293,836.046,1,d,1,0.0843,,1.408849313,1.695383741,0.286534429,836.0487,836.0489,0,187,187,187,1,0.859801999,0.859801999,shape_difference1,1,,TRUE,,intensity,0.1,0.05,0.7,0.3,0.82,20,400,1E-11,3.5,0.01,0.5,0.1,,,,,,,,,,,,,,,,,,,,,,,,,,,,,,,,,,,,,,,,,,,,,,,,,,,,,,,,,,,,,,,,,,,,,,,,,,,,,,,,,
,,,,,951473,001,2025-03-16_19h39.11.089,Utility_discrimination_2024_2cat,2024.2.4,MacIntel,60.24096386,,,,,,,,2,"[0.5,0.5]","[0.707,0.707]",d,"[2.051831549444076,0.5]","[-1.0518315494440758,0.5]",836.0512,837.8628,1,s,1,0.2883,,0.902498084,1.18321237,0.280714286,837.8649,837.8649,0,188,188,188,1,1.551831549,1.551831549,shape_difference0,1,,TRUE,,intensity,0.1,0.05,0.7,0.3,0.82,20,400,1E-11,3.5,0.01,0.5,0.1,,,,,,,,,,,,,,,,,,,,,,,,,,,,,,,,,,,,,,,,,,,,,,,,,,,,,,,,,,,,,,,,,,,,,,,,,,,,,,,,,
,,,,,951473,001,2025-03-16_19h39.11.089,Utility_discrimination_2024_2cat,2024.2.4,MacIntel,60.24096386,,,,,,,,1,"[0.5,0.5]","[0.924,0.383]",s,"[1.2251566478775748,1.2251566478775748]","[-0.22515664787757483,-0.22515664787757483]",837.8663,839.4623,0,s,0,0.0677,,0.709081322,1.005498264,0.296416942,839.4661,839.4665,0,189,189,189,1,1.025681256,1.025681256,shape_difference2,1,,TRUE,,intensity,0.1,0.05,0.7,0.3,0.82,20,400,1E-11,3.5,0.01,0.5,0.1,,,,,,,,,,,,,,,,,,,,,,,,,,,,,,,,,,,,,,,,,,,,,,,,,,,,,,,,,,,,,,,,,,,,,,,,,,,,,,,,,
,,,,,951473,001,2025-03-16_19h39.11.089,Utility_discrimination_2024_2cat,2024.2.4,MacIntel,60.24096386,,,,,,,,4,"[0.5,0.5]","[0,1]",d,"[1.2827488568930243,0.8244510954437536]","[-0.2827488568930243,0.17554890455624644]",839.4694,841.029,1,s,1,0.0359,,0.637795088,0.899540231,0.261745143,841.0301,841.0301,0,190,190,190,1,0.847130798,0.847130798,shape_difference1,1,,TRUE,,intensity,0.1,0.05,0.7,0.3,0.82,20,400,1E-11,3.5,0.01,0.5,0.1,,,,,,,,,,,,,,,,,,,,,,,,,,,,,,,,,,,,,,,,,,,,,,,,,,,,,,,,,,,,,,,,,,,,,,,,,,,,,,,,,
