Consent.started,Consent.stopped,key_resp.keys,key_resp.rt,key_resp.duration,participant,session,date,expName,psychopyVersion,OS,frameRate,SetupExperiment.started,SetupExperiment.stopped,DiscrimInstructions_Pre.started,DiscrimInstructions_Pre.stopped,KeyboardResponse.keys,KeyboardResponse.rt,KeyboardResponse.duration,feature_index,feature_center,feature_vector,correct_answer,coord1,coord2,DiscriminationTrial.started,DiscriminationTrial.stopped,PreTest.response,Resp_s_or_d.keys,Resp_s_or_d.corr,Resp_s_or_d.rt,Resp_s_or_d.duration,PreTest.CI_lower,PreTest.CI_upper,PreTest.CI_width,CrashPretest_2.started,CrashPretest_2.stopped,PreTest.thisRepN,PreTest.thisTrialN,PreTest.thisN,PreTest.thisIndex,PreTest.ran,PreTest.intensity,intensity,PreTest.label,PreTest.nReps,PreTest.method,PreTest.autoLog,PreTest.seed,PreTest.varName,PreTest.startVal,PreTest.minVal,PreTest.maxVal,PreTest.startValSd,PreTest.pThreshold,PreTest.nTrials,PreTest.maxTrials,PreTest.stopInterval,PreTest.beta,PreTest.delta,PreTest.gamma,PreTest.grain,WelcomeToCategorizationTask.started,WelcomeToCategorizationTask.stopped,PressAnyKey3.keys,PressAnyKey3.rt,PressAnyKey3.duration,shape_coordinates,category_center,category_sigma,subspace_center,subspace_vector1,subspace_vector2,CategorizationTrial.started,CategorizationTrial.stopped,Respond_1or2.keys,Respond_1or2.rt,Respond_1or2.duration,Feedback.started,Feedback.stopped,xcoord,ycoord,shape_coord,numeric_response_minus1,correctness,truecategory,mixture_index,respAifA,respBifA,respAifB,respBifB,trial_number,D,muAx,muAy,muBx,muBy,sigmaA,sigmaB,priorA,priorB,TrialLoop.thisRepN,TrialLoop.thisTrialN,TrialLoop.thisN,TrialLoop.thisIndex,TrialLoop.ran,DiscriminationInstructions_Post.started,DiscriminationInstructions_Post.stopped,key_resp_2.keys,key_resp_2.rt,key_resp_2.duration,PostTest.response,PostTest.CI_lower,PostTest.CI_upper,PostTest.CI_width,CrashPosttest.started,CrashPosttest.stopped,PostTest.thisRepN,PostTest.thisTrialN,PostTest.thisN,PostTest.thisIndex,PostTest.ran,PostTest.intensity,PostTest.label,PostTest.nReps,PostTest.method,PostTest.autoLog,PostTest.seed,PostTest.varName,PostTest.startVal,PostTest.minVal,PostTest.maxVal,PostTest.startValSd,PostTest.pThreshold,PostTest.nTrials,PostTest.maxTrials,PostTest.stopInterval,PostTest.beta,PostTest.delta,PostTest.gamma,PostTest.grain,Thanks.started,Thanks.stopped
0.0002,2.1953,y,2.1827,,953060,001,2025-03-17_16h04.09.188,Utility_discrimination_2024_2cat,2024.2.4,MacIntel,126.5822785,,,,,,,,,,,,,,,,,,,,,,,,,,,,,,,,,,,,,,,,,,,,,,,,,,,,,,,,,,,,,,,,,,,,,,,,,,,,,,,,,,,,,,,,,,,,,,,,,,,,,,,,,,,,,,,,,,,,,,,,,,,,,,,,,,,
,,,,,953060,001,2025-03-17_16h04.09.188,Utility_discrimination_2024_2cat,2024.2.4,MacIntel,126.5822785,2.1955,2.1956,,,,,,,,,,,,,,,,,,,,,,,,,,,,,,,,,,,,,,,,,,,,,,,,,,,,,,,,,,,,,,,,,,,,,,,,,,,,,,,,,,,,,,,,,,,,,,,,,,,,,,,,,,,,,,,,,,,,,,,,,,,,,,,,,
,,,,,953060,001,2025-03-17_16h04.09.188,Utility_discrimination_2024_2cat,2024.2.4,MacIntel,126.5822785,,,2.1956,32.5459,space,30.3357,,,,,,,,,,,,,,,,,,,,,,,,,,,,,,,,,,,,,,,,,,,,,,,,,,,,,,,,,,,,,,,,,,,,,,,,,,,,,,,,,,,,,,,,,,,,,,,,,,,,,,,,,,,,,,,,,,,,,,,,,,,,,
,,,,,953060,001,2025-03-17_16h04.09.188,Utility_discrimination_2024_2cat,2024.2.4,MacIntel,126.5822785,,,,,,,,0,"[0.5,0.5]","[1,0]",,"[0.6185239449756466,0.5]","[0.3814760550243534,0.5]",32.5762,35.3369,1,s,1,1.2524,,-0.447967632,0.547967632,0.995935263,35.3381,35.3381,0,0,0,0,1,0.118523945,0.118523945,shape_difference1,1,,TRUE,,intensity,0.1,0.05,0.7,0.3,0.82,20,400,1E-11,3.5,0.01,0.5,0.1,,,,,,,,,,,,,,,,,,,,,,,,,,,,,,,,,,,,,,,,,,,,,,,,,,,,,,,,,,,,,,,,,,,,,,,,,,,,,,,,,
,,,,,953060,001,2025-03-17_16h04.09.188,Utility_discrimination_2024_2cat,2024.2.4,MacIntel,126.5822785,,,,,,,,2,"[0.5,0.5]","[0.707,0.707]",s,"[0.6185239449756466,0.5]","[0.3814760550243534,0.5]",35.3387,37.6695,1,s,1,0.8149,,-0.447967632,0.547967632,0.995935263,37.6711,37.6712,0,1,1,1,1,0.118523945,0.118523945,shape_difference0,1,,TRUE,,intensity,0.1,0.05,0.7,0.3,0.82,20,400,1E-11,3.5,0.01,0.5,0.1,,,,,,,,,,,,,,,,,,,,,,,,,,,,,,,,,,,,,,,,,,,,,,,,,,,,,,,,,,,,,,,,,,,,,,,,,,,,,,,,,
,,,,,953060,001,2025-03-17_16h04.09.188,Utility_discrimination_2024_2cat,2024.2.4,MacIntel,126.5822785,,,,,,,,3,"[0.5,0.5]","[0.383,0.924]",s,"[0.5837964290977822,0.5837964290977822]","[0.4162035709022178,0.4162035709022178]",37.6729,39.8205,0,s,0,0.6341,,-0.447967632,0.547967632,0.995935263,39.8222,39.8223,0,2,2,2,1,0.118523945,0.118523945,shape_difference2,1,,TRUE,,intensity,0.1,0.05,0.7,0.3,0.82,20,400,1E-11,3.5,0.01,0.5,0.1,,,,,,,,,,,,,,,,,,,,,,,,,,,,,,,,,,,,,,,,,,,,,,,,,,,,,,,,,,,,,,,,,,,,,,,,,,,,,,,,,
,,,,,953060,001,2025-03-17_16h04.09.188,Utility_discrimination_2024_2cat,2024.2.4,MacIntel,126.5822785,,,,,,,,4,"[0.5,0.5]","[0,1]",d,"[0.5453946709256726,0.6095161251574974]","[0.4546053290743273,0.3904838748425025]",39.8231,41.9536,1,s,1,0.6165,,-0.447967632,0.547967632,0.995935263,41.9562,41.9563,0,3,3,3,1,0.118523945,0.118523945,shape_difference3,1,,TRUE,,intensity,0.1,0.05,0.7,0.3,0.82,20,400,1E-11,3.5,0.01,0.5,0.1,,,,,,,,,,,,,,,,,,,,,,,,,,,,,,,,,,,,,,,,,,,,,,,,,,,,,,,,,,,,,,,,,,,,,,,,,,,,,,,,,
,,,,,953060,001,2025-03-17_16h04.09.188,Utility_discrimination_2024_2cat,2024.2.4,MacIntel,126.5822785,,,,,,,,3,"[0.5,0.5]","[0.383,0.924]",s,"[0.5,0.6185239449756466]","[0.5,0.3814760550243534]",41.9574,44.1036,0,s,0,0.6365,,-0.479157219,0.478510979,0.957668197,44.1063,44.1064,0,4,4,4,1,0.118523945,0.118523945,shape_difference4,1,,TRUE,,intensity,0.1,0.05,0.7,0.3,0.82,20,400,1E-11,3.5,0.01,0.5,0.1,,,,,,,,,,,,,,,,,,,,,,,,,,,,,,,,,,,,,,,,,,,,,,,,,,,,,,,,,,,,,,,,,,,,,,,,,,,,,,,,,
,,,,,953060,001,2025-03-17_16h04.09.188,Utility_discrimination_2024_2cat,2024.2.4,MacIntel,126.5822785,,,,,,,,4,"[0.5,0.5]","[0,1]",d,"[0.5141716077151222,0.5341894661325662]","[0.48582839228487784,0.46581053386743376]",44.1074,46.1445,0,s,0,0.5269,,0.008797352,0.664308158,0.655510806,46.1471,46.1471,0,5,5,5,1,0.037001587,0.037001587,shape_difference3,1,,TRUE,,intensity,0.1,0.05,0.7,0.3,0.82,20,400,1E-11,3.5,0.01,0.5,0.1,,,,,,,,,,,,,,,,,,,,,,,,,,,,,,,,,,,,,,,,,,,,,,,,,,,,,,,,,,,,,,,,,,,,,,,,,,,,,,,,,
,,,,,953060,001,2025-03-17_16h04.09.188,Utility_discrimination_2024_2cat,2024.2.4,MacIntel,126.5822785,,,,,,,,1,"[0.5,0.5]","[0.924,0.383]",d,"[0.5,0.8247185585179694]","[0.5,0.17528144148203062]",46.1479,48.1537,1,s,1,0.4916,,-0.479157219,0.478510979,0.957668197,48.1566,48.1566,0,6,6,6,1,0.324718559,0.324718559,shape_difference4,1,,TRUE,,intensity,0.1,0.05,0.7,0.3,0.82,20,400,1E-11,3.5,0.01,0.5,0.1,,,,,,,,,,,,,,,,,,,,,,,,,,,,,,,,,,,,,,,,,,,,,,,,,,,,,,,,,,,,,,,,,,,,,,,,,,,,,,,,,
,,,,,953060,001,2025-03-17_16h04.09.188,Utility_discrimination_2024_2cat,2024.2.4,MacIntel,126.5822785,,,,,,,,2,"[0.5,0.5]","[0.707,0.707]",s,"[0.5341894661325662,0.5141716077151222]","[0.46581053386743376,0.48582839228487784]",48.1575,50.1614,0,s,0,0.4915,,0.008797352,0.664308158,0.655510806,50.1638,50.1638,0,7,7,7,1,0.037001587,0.037001587,shape_difference1,1,,TRUE,,intensity,0.1,0.05,0.7,0.3,0.82,20,400,1E-11,3.5,0.01,0.5,0.1,,,,,,,,,,,,,,,,,,,,,,,,,,,,,,,,,,,,,,,,,,,,,,,,,,,,,,,,,,,,,,,,,,,,,,,,,,,,,,,,,
,,,,,953060,001,2025-03-17_16h04.09.188,Utility_discrimination_2024_2cat,2024.2.4,MacIntel,126.5822785,,,,,,,,0,"[0.5,0.5]","[1,0]",d,"[0.7295760208722043,0.7295760208722043]","[0.2704239791277957,0.2704239791277957]",50.1647,52.2953,1,d,1,0.6183,,-0.479157219,0.478510979,0.957668197,52.2978,52.2979,0,8,8,8,1,0.324718559,0.324718559,shape_difference2,1,,TRUE,,intensity,0.1,0.05,0.7,0.3,0.82,20,400,1E-11,3.5,0.01,0.5,0.1,,,,,,,,,,,,,,,,,,,,,,,,,,,,,,,,,,,,,,,,,,,,,,,,,,,,,,,,,,,,,,,,,,,,,,,,,,,,,,,,,
,,,,,953060,001,2025-03-17_16h04.09.188,Utility_discrimination_2024_2cat,2024.2.4,MacIntel,126.5822785,,,,,,,,4,"[0.5,0.5]","[0,1]",d,"[0.5370015867235566,0.5]","[0.4629984132764434,0.5]",52.2987,54.6194,0,s,0,0.8083,,-0.003741292,0.604569979,0.608311271,54.6217,54.6218,0,9,9,9,1,0.037001587,0.037001587,shape_difference0,1,,TRUE,,intensity,0.1,0.05,0.7,0.3,0.82,20,400,1E-11,3.5,0.01,0.5,0.1,,,,,,,,,,,,,,,,,,,,,,,,,,,,,,,,,,,,,,,,,,,,,,,,,,,,,,,,,,,,,,,,,,,,,,,,,,,,,,,,,
,,,,,953060,001,2025-03-17_16h04.09.188,Utility_discrimination_2024_2cat,2024.2.4,MacIntel,126.5822785,,,,,,,,1,"[0.5,0.5]","[0.924,0.383]",d,"[0.5,0.7748173464265704]","[0.5,0.22518265357342954]",54.6224,56.6027,1,s,1,0.4668,,-0.090065158,0.591798206,0.681863364,56.6046,56.6046,0,10,10,10,1,0.274817346,0.274817346,shape_difference4,1,,TRUE,,intensity,0.1,0.05,0.7,0.3,0.82,20,400,1E-11,3.5,0.01,0.5,0.1,,,,,,,,,,,,,,,,,,,,,,,,,,,,,,,,,,,,,,,,,,,,,,,,,,,,,,,,,,,,,,,,,,,,,,,,,,,,,,,,,
,,,,,953060,001,2025-03-17_16h04.09.188,Utility_discrimination_2024_2cat,2024.2.4,MacIntel,126.5822785,,,,,,,,3,"[0.5,0.5]","[0.383,0.924]",s,"[0.7085118474629236,0.586428612097727]","[0.2914881525370764,0.413571387902273]",56.6061,58.9702,1,d,1,0.85,,-0.090065158,0.591798206,0.681863364,58.9726,58.9726,0,11,11,11,1,0.225662173,0.225662173,shape_difference1,1,,TRUE,,intensity,0.1,0.05,0.7,0.3,0.82,20,400,1E-11,3.5,0.01,0.5,0.1,,,,,,,,,,,,,,,,,,,,,,,,,,,,,,,,,,,,,,,,,,,,,,,,,,,,,,,,,,,,,,,,,,,,,,,,,,,,,,,,,
,,,,,953060,001,2025-03-17_16h04.09.188,Utility_discrimination_2024_2cat,2024.2.4,MacIntel,126.5822785,,,,,,,,0,"[0.5,0.5]","[1,0]",d,"[0.586428612097727,0.7085118474629236]","[0.413571387902273,0.2914881525370764]",58.9737,61.2367,1,s,1,0.7483,,-0.090065158,0.591798206,0.681863364,61.2381,61.2381,0,12,12,12,1,0.225662173,0.225662173,shape_difference3,1,,TRUE,,intensity,0.1,0.05,0.7,0.3,0.82,20,400,1E-11,3.5,0.01,0.5,0.1,,,,,,,,,,,,,,,,,,,,,,,,,,,,,,,,,,,,,,,,,,,,,,,,,,,,,,,,,,,,,,,,,,,,,,,,,,,,,,,,,
,,,,,953060,001,2025-03-17_16h04.09.188,Utility_discrimination_2024_2cat,2024.2.4,MacIntel,126.5822785,,,,,,,,2,"[0.5,0.5]","[0.707,0.707]",s,"[0.7256621725789216,0.5]","[0.2743378274210784,0.5]",61.2386,63.4286,1,d,1,0.6781,,-0.003741292,0.604569979,0.608311271,63.4309,63.4309,0,13,13,13,1,0.225662173,0.225662173,shape_difference0,1,,TRUE,,intensity,0.1,0.05,0.7,0.3,0.82,20,400,1E-11,3.5,0.01,0.5,0.1,,,,,,,,,,,,,,,,,,,,,,,,,,,,,,,,,,,,,,,,,,,,,,,,,,,,,,,,,,,,,,,,,,,,,,,,,,,,,,,,,
,,,,,953060,001,2025-03-17_16h04.09.188,Utility_discrimination_2024_2cat,2024.2.4,MacIntel,126.5822785,,,,,,,,4,"[0.5,0.5]","[0,1]",d,"[0.6942958639235853,0.6942958639235853]","[0.30570413607641467,0.30570413607641467]",63.4318,65.8037,1,d,1,0.8588,,-0.026700702,0.552121039,0.578821741,65.8066,65.8066,0,14,14,14,1,0.274817346,0.274817346,shape_difference2,1,,TRUE,,intensity,0.1,0.05,0.7,0.3,0.82,20,400,1E-11,3.5,0.01,0.5,0.1,,,,,,,,,,,,,,,,,,,,,,,,,,,,,,,,,,,,,,,,,,,,,,,,,,,,,,,,,,,,,,,,,,,,,,,,,,,,,,,,,
,,,,,953060,001,2025-03-17_16h04.09.188,Utility_discrimination_2024_2cat,2024.2.4,MacIntel,126.5822785,,,,,,,,0,"[0.5,0.5]","[1,0]",d,"[0.5,0.7361666255365733]","[0.5,0.26383337446342664]",65.8076,68.2454,1,s,1,0.9247,,-0.09936101,0.537490534,0.636851544,68.2483,68.2483,0,15,15,15,1,0.236166626,0.236166626,shape_difference4,1,,TRUE,,intensity,0.1,0.05,0.7,0.3,0.82,20,400,1E-11,3.5,0.01,0.5,0.1,,,,,,,,,,,,,,,,,,,,,,,,,,,,,,,,,,,,,,,,,,,,,,,,,,,,,,,,,,,,,,,,,,,,,,,,,,,,,,,,,
,,,,,953060,001,2025-03-17_16h04.09.188,Utility_discrimination_2024_2cat,2024.2.4,MacIntel,126.5822785,,,,,,,,2,"[0.5,0.5]","[0.707,0.707]",s,"[0.6717231163357056,0.5]","[0.3282768836642944,0.5]",68.2492,70.8286,1,d,1,1.0649,,-0.026700702,0.552121039,0.578821741,70.8304,70.8305,0,16,16,16,1,0.171723116,0.171723116,shape_difference0,1,,TRUE,,intensity,0.1,0.05,0.7,0.3,0.82,20,400,1E-11,3.5,0.01,0.5,0.1,,,,,,,,,,,,,,,,,,,,,,,,,,,,,,,,,,,,,,,,,,,,,,,,,,,,,,,,,,,,,,,,,,,,,,,,,,,,,,,,,
,,,,,953060,001,2025-03-17_16h04.09.188,Utility_discrimination_2024_2cat,2024.2.4,MacIntel,126.5822785,,,,,,,,1,"[0.5,0.5]","[0.924,0.383]",d,"[0.6669698042543574,0.6669698042543574]","[0.33303019574564263,0.33303019574564263]",70.8314,73.5702,1,d,1,1.2246,,-0.09936101,0.537490534,0.636851544,73.5719,73.5719,0,17,17,17,1,0.236166626,0.236166626,shape_difference2,1,,TRUE,,intensity,0.1,0.05,0.7,0.3,0.82,20,400,1E-11,3.5,0.01,0.5,0.1,,,,,,,,,,,,,,,,,,,,,,,,,,,,,,,,,,,,,,,,,,,,,,,,,,,,,,,,,,,,,,,,,,,,,,,,,,,,,,,,,
,,,,,953060,001,2025-03-17_16h04.09.188,Utility_discrimination_2024_2cat,2024.2.4,MacIntel,126.5822785,,,,,,,,3,"[0.5,0.5]","[0.383,0.924]",d,"[0.658672159494192,0.5657699535565752]","[0.341327840505808,0.4342300464434248]",73.5726,76.1953,0,d,0,1.1071,,-0.09936101,0.537490534,0.636851544,76.1977,76.1977,0,18,18,18,1,0.171723116,0.171723116,shape_difference1,1,,TRUE,,intensity,0.1,0.05,0.7,0.3,0.82,20,400,1E-11,3.5,0.01,0.5,0.1,,,,,,,,,,,,,,,,,,,,,,,,,,,,,,,,,,,,,,,,,,,,,,,,,,,,,,,,,,,,,,,,,,,,,,,,,,,,,,,,,
,,,,,953060,001,2025-03-17_16h04.09.188,Utility_discrimination_2024_2cat,2024.2.4,MacIntel,126.5822785,,,,,,,,4,"[0.5,0.5]","[0,1]",s,"[0.5657699535565752,0.658672159494192]","[0.4342300464434248,0.341327840505808]",76.1995,78.6035,1,d,1,0.8902,,-0.050981617,0.494068035,0.545049652,78.6054,78.6054,0,19,19,19,1,0.171723116,0.171723116,shape_difference3,1,,TRUE,,intensity,0.1,0.05,0.7,0.3,0.82,20,400,1E-11,3.5,0.01,0.5,0.1,,,,,,,,,,,,,,,,,,,,,,,,,,,,,,,,,,,,,,,,,,,,,,,,,,,,,,,,,,,,,,,,,,,,,,,,,,,,,,,,,
,,,,,953060,001,2025-03-17_16h04.09.188,Utility_discrimination_2024_2cat,2024.2.4,MacIntel,126.5822785,,,,,,,,0,"[0.5,0.5]","[1,0]",d,"[0.5,0.69671503713367]","[0.5,0.30328496286633]",78.6069,80.9203,0,d,0,0.7996,,-0.120490743,0.470685176,0.591175919,80.9223,80.9223,0,20,20,20,1,0.196715037,0.196715037,shape_difference4,1,,TRUE,,intensity,0.1,0.05,0.7,0.3,0.82,20,400,1E-11,3.5,0.01,0.5,0.1,,,,,,,,,,,,,,,,,,,,,,,,,,,,,,,,,,,,,,,,,,,,,,,,,,,,,,,,,,,,,,,,,,,,,,,,,,,,,,,,,
,,,,,953060,001,2025-03-17_16h04.09.188,Utility_discrimination_2024_2cat,2024.2.4,MacIntel,126.5822785,,,,,,,,1,"[0.5,0.5]","[0.924,0.383]",s,"[0.6306116159745301,0.5]","[0.3693883840254699,0.5]",80.9234,83.3534,1,d,1,0.9169,,0.064206312,0.666780888,0.602574576,83.3552,83.3552,0,21,21,21,1,0.130611616,0.130611616,shape_difference0,1,,TRUE,,intensity,0.1,0.05,0.7,0.3,0.82,20,400,1E-11,3.5,0.01,0.5,0.1,,,,,,,,,,,,,,,,,,,,,,,,,,,,,,,,,,,,,,,,,,,,,,,,,,,,,,,,,,,,,,,,,,,,,,,,,,,,,,,,,
,,,,,953060,001,2025-03-17_16h04.09.188,Utility_discrimination_2024_2cat,2024.2.4,MacIntel,126.5822785,,,,,,,,3,"[0.5,0.5]","[0.383,0.924]",d,"[0.8141874624294083,0.6302313832364322]","[0.18581253757059168,0.36976861676356776]",83.3564,85.6201,1,s,1,0.7503,,-0.120490743,0.470685176,0.591175919,85.6219,85.6219,0,22,22,22,1,0.340029721,0.340029721,shape_difference1,1,,TRUE,,intensity,0.1,0.05,0.7,0.3,0.82,20,400,1E-11,3.5,0.01,0.5,0.1,,,,,,,,,,,,,,,,,,,,,,,,,,,,,,,,,,,,,,,,,,,,,,,,,,,,,,,,,,,,,,,,,,,,,,,,,,,,,,,,,
,,,,,953060,001,2025-03-17_16h04.09.188,Utility_discrimination_2024_2cat,2024.2.4,MacIntel,126.5822785,,,,,,,,2,"[0.5,0.5]","[0.707,0.707]",s,"[0.550024248918245,0.6206851331604658]","[0.44997575108175497,0.3793148668395342]",85.623,87.7702,1,d,1,0.6322,,-0.050981617,0.494068035,0.545049652,87.7722,87.7723,0,23,23,23,1,0.130611616,0.130611616,shape_difference3,1,,TRUE,,intensity,0.1,0.05,0.7,0.3,0.82,20,400,1E-11,3.5,0.01,0.5,0.1,,,,,,,,,,,,,,,,,,,,,,,,,,,,,,,,,,,,,,,,,,,,,,,,,,,,,,,,,,,,,,,,,,,,,,,,,,,,,,,,,
,,,,,953060,001,2025-03-17_16h04.09.188,Utility_discrimination_2024_2cat,2024.2.4,MacIntel,126.5822785,,,,,,,,0,"[0.5,0.5]","[1,0]",d,"[0.6390775312535046,0.6390775312535046]","[0.3609224687464953,0.3609224687464953]",87.7734,89.8861,1,d,1,0.5992,,-0.144584963,0.406347617,0.550932581,89.888,89.888,0,24,24,24,1,0.196715037,0.196715037,shape_difference2,1,,TRUE,,intensity,0.1,0.05,0.7,0.3,0.82,20,400,1E-11,3.5,0.01,0.5,0.1,,,,,,,,,,,,,,,,,,,,,,,,,,,,,,,,,,,,,,,,,,,,,,,,,,,,,,,,,,,,,,,,,,,,,,,,,,,,,,,,,
,,,,,953060,001,2025-03-17_16h04.09.188,Utility_discrimination_2024_2cat,2024.2.4,MacIntel,126.5822785,,,,,,,,1,"[0.5,0.5]","[0.924,0.383]",d,"[0.5917420996447461,0.5]","[0.4082579003552539,0.5]",89.8892,92.1111,0,d,0,0.7094,,0.046106493,0.612747238,0.566640745,92.1129,92.1129,0,25,25,25,1,0.0917421,0.0917421,shape_difference0,1,,TRUE,,intensity,0.1,0.05,0.7,0.3,0.82,20,400,1E-11,3.5,0.01,0.5,0.1,,,,,,,,,,,,,,,,,,,,,,,,,,,,,,,,,,,,,,,,,,,,,,,,,,,,,,,,,,,,,,,,,,,,,,,,,,,,,,,,,
,,,,,953060,001,2025-03-17_16h04.09.188,Utility_discrimination_2024_2cat,2024.2.4,MacIntel,126.5822785,,,,,,,,3,"[0.5,0.5]","[0.383,0.924]",s,"[0.7714365447053668,0.6125110353053631]","[0.22856345529463312,0.3874889646946369]",92.1145,94.3698,1,s,1,0.7406,,-0.144584963,0.406347617,0.550932581,94.3721,94.3722,0,26,26,26,1,0.293762494,0.293762494,shape_difference1,1,,TRUE,,intensity,0.1,0.05,0.7,0.3,0.82,20,400,1E-11,3.5,0.01,0.5,0.1,,,,,,,,,,,,,,,,,,,,,,,,,,,,,,,,,,,,,,,,,,,,,,,,,,,,,,,,,,,,,,,,,,,,,,,,,,,,,,,,,
,,,,,953060,001,2025-03-17_16h04.09.188,Utility_discrimination_2024_2cat,2024.2.4,MacIntel,126.5822785,,,,,,,,4,"[0.5,0.5]","[0,1]",s,"[0.5351372241639378,0.5847697000717454]","[0.4648627758360622,0.41523029992825455]",94.3734,96.4618,1,d,1,0.5744,,0.086822279,0.600153011,0.513330733,96.4648,96.4649,0,27,27,27,1,0.0917421,0.0917421,shape_difference3,1,,TRUE,,intensity,0.1,0.05,0.7,0.3,0.82,20,400,1E-11,3.5,0.01,0.5,0.1,,,,,,,,,,,,,,,,,,,,,,,,,,,,,,,,,,,,,,,,,,,,,,,,,,,,,,,,,,,,,,,,,,,,,,,,,,,,,,,,,
,,,,,953060,001,2025-03-17_16h04.09.188,Utility_discrimination_2024_2cat,2024.2.4,MacIntel,126.5822785,,,,,,,,2,"[0.5,0.5]","[0.707,0.707]",d,"[0.5,0.7985943458203237]","[0.5,0.2014056541796762]",96.466,99.1788,1,d,1,1.2032,,-0.067097964,0.445046575,0.512144539,99.181,99.181,0,28,28,28,1,0.298594346,0.298594346,shape_difference4,1,,TRUE,,intensity,0.1,0.05,0.7,0.3,0.82,20,400,1E-11,3.5,0.01,0.5,0.1,,,,,,,,,,,,,,,,,,,,,,,,,,,,,,,,,,,,,,,,,,,,,,,,,,,,,,,,,,,,,,,,,,,,,,,,,,,,,,,,,
,,,,,953060,001,2025-03-17_16h04.09.188,Utility_discrimination_2024_2cat,2024.2.4,MacIntel,126.5822785,,,,,,,,1,"[0.5,0.5]","[0.924,0.383]",d,"[0.6202573175539916,0.6202573175539916]","[0.37974268244600834,0.37974268244600834]",99.1823,101.22,1,d,1,0.5242,,0.034258812,0.562756016,0.528497204,101.2224,101.2224,0,29,29,29,1,0.170095216,0.170095216,shape_difference2,1,,TRUE,,intensity,0.1,0.05,0.7,0.3,0.82,20,400,1E-11,3.5,0.01,0.5,0.1,,,,,,,,,,,,,,,,,,,,,,,,,,,,,,,,,,,,,,,,,,,,,,,,,,,,,,,,,,,,,,,,,,,,,,,,,,,,,,,,,
,,,,,953060,001,2025-03-17_16h04.09.188,Utility_discrimination_2024_2cat,2024.2.4,MacIntel,126.5822785,,,,,,,,4,"[0.5,0.5]","[0,1]",d,"[0.7423583717217473,0.6004580696638845]","[0.25764162827825265,0.3995419303361155]",101.2231,103.3701,1,s,1,0.6342,,0.067160185,0.556411783,0.489251598,103.373,103.373,0,30,30,30,1,0.26229261,0.26229261,shape_difference1,1,,TRUE,,intensity,0.1,0.05,0.7,0.3,0.82,20,400,1E-11,3.5,0.01,0.5,0.1,,,,,,,,,,,,,,,,,,,,,,,,,,,,,,,,,,,,,,,,,,,,,,,,,,,,,,,,,,,,,,,,,,,,,,,,,,,,,,,,,
,,,,,953060,001,2025-03-17_16h04.09.188,Utility_discrimination_2024_2cat,2024.2.4,MacIntel,126.5822785,,,,,,,,3,"[0.5,0.5]","[0.383,0.924]",s,"[0.5,0.7717207369037922]","[0.5,0.22827926309620777]",103.3742,105.7526,1,s,1,0.8668,,-0.160589475,0.350306654,0.510896129,105.7551,105.7552,0,31,31,31,1,0.271720737,0.271720737,shape_difference4,1,,TRUE,,intensity,0.1,0.05,0.7,0.3,0.82,20,400,1E-11,3.5,0.01,0.5,0.1,,,,,,,,,,,,,,,,,,,,,,,,,,,,,,,,,,,,,,,,,,,,,,,,,,,,,,,,,,,,,,,,,,,,,,,,,,,,,,,,,
,,,,,953060,001,2025-03-17_16h04.09.188,Utility_discrimination_2024_2cat,2024.2.4,MacIntel,126.5822785,,,,,,,,2,"[0.5,0.5]","[0.707,0.707]",s,"[0.5253378217319599,0.5611283218807595]","[0.4746621782680402,0.4388716781192405]",105.757,108.0035,0,d,0,0.7326,,-0.078138993,0.387434732,0.465573725,108.0067,108.0067,0,32,32,32,1,0.066156193,0.066156193,shape_difference3,1,,TRUE,,intensity,0.1,0.05,0.7,0.3,0.82,20,400,1E-11,3.5,0.01,0.5,0.1,,,,,,,,,,,,,,,,,,,,,,,,,,,,,,,,,,,,,,,,,,,,,,,,,,,,,,,,,,,,,,,,,,,,,,,,,,,,,,,,,
,,,,,953060,001,2025-03-17_16h04.09.188,Utility_discrimination_2024_2cat,2024.2.4,MacIntel,126.5822785,,,,,,,,0,"[0.5,0.5]","[1,0]",s,"[0.6042140812410881,0.6042140812410881]","[0.3957859187589119,0.3957859187589119]",108.0078,110.0701,0,d,0,0.5499,,-0.018937289,0.534405895,0.553343183,110.0725,110.0726,0,33,33,33,1,0.147403227,0.147403227,shape_difference2,1,,TRUE,,intensity,0.1,0.05,0.7,0.3,0.82,20,400,1E-11,3.5,0.01,0.5,0.1,,,,,,,,,,,,,,,,,,,,,,,,,,,,,,,,,,,,,,,,,,,,,,,,,,,,,,,,,,,,,,,,,,,,,,,,,,,,,,,,,
,,,,,953060,001,2025-03-17_16h04.09.188,Utility_discrimination_2024_2cat,2024.2.4,MacIntel,126.5822785,,,,,,,,2,"[0.5,0.5]","[0.707,0.707]",s,"[0.6971371521097935,0.5]","[0.3028628478902064,0.5]",110.0734,112.5443,1,s,1,0.9588,,0.013911574,0.467109402,0.453197828,112.5465,112.5466,0,34,34,34,1,0.197137152,0.197137152,shape_difference0,1,,TRUE,,intensity,0.1,0.05,0.7,0.3,0.82,20,400,1E-11,3.5,0.01,0.5,0.1,,,,,,,,,,,,,,,,,,,,,,,,,,,,,,,,,,,,,,,,,,,,,,,,,,,,,,,,,,,,,,,,,,,,,,,,,,,,,,,,,
,,,,,953060,001,2025-03-17_16h04.09.188,Utility_discrimination_2024_2cat,2024.2.4,MacIntel,126.5822785,,,,,,,,1,"[0.5,0.5]","[0.924,0.383]",s,"[0.6395986987201941,0.6395986987201941]","[0.36040130127980585,0.36040130127980585]",112.5482,114.5533,1,d,1,0.4922,,0.026241905,0.49758731,0.471345405,114.5562,114.5563,0,35,35,35,1,0.197452191,0.197452191,shape_difference2,1,,TRUE,,intensity,0.1,0.05,0.7,0.3,0.82,20,400,1E-11,3.5,0.01,0.5,0.1,,,,,,,,,,,,,,,,,,,,,,,,,,,,,,,,,,,,,,,,,,,,,,,,,,,,,,,,,,,,,,,,,,,,,,,,,,,,,,,,,
,,,,,953060,001,2025-03-17_16h04.09.188,Utility_discrimination_2024_2cat,2024.2.4,MacIntel,126.5822785,,,,,,,,4,"[0.5,0.5]","[0,1]",d,"[0.7174714087780494,0.5901423696558366]","[0.28252859122195056,0.4098576303441635]",114.5571,116.7285,1,d,1,0.6572,,0.053755421,0.495388686,0.441633266,116.7309,116.7309,0,36,36,36,1,0.235358668,0.235358668,shape_difference1,1,,TRUE,,intensity,0.1,0.05,0.7,0.3,0.82,20,400,1E-11,3.5,0.01,0.5,0.1,,,,,,,,,,,,,,,,,,,,,,,,,,,,,,,,,,,,,,,,,,,,,,,,,,,,,,,,,,,,,,,,,,,,,,,,,,,,,,,,,
,,,,,953060,001,2025-03-17_16h04.09.188,Utility_discrimination_2024_2cat,2024.2.4,MacIntel,126.5822785,,,,,,,,0,"[0.5,0.5]","[1,0]",d,"[0.5,0.7490986157016337]","[0.5,0.2509013842983663]",116.7318,119.0276,1,d,1,0.7828,,-0.037207083,0.475072436,0.512279519,119.0296,119.0297,0,37,37,37,1,0.249098616,0.249098616,shape_difference4,1,,TRUE,,intensity,0.1,0.05,0.7,0.3,0.82,20,400,1E-11,3.5,0.01,0.5,0.1,,,,,,,,,,,,,,,,,,,,,,,,,,,,,,,,,,,,,,,,,,,,,,,,,,,,,,,,,,,,,,,,,,,,,,,,,,,,,,,,,
,,,,,953060,001,2025-03-17_16h04.09.188,Utility_discrimination_2024_2cat,2024.2.4,MacIntel,126.5822785,,,,,,,,3,"[0.5,0.5]","[0.383,0.924]",d,"[0.6687579417639199,0.5]","[0.3312420582360801,0.5]",119.0305,121.4369,1,d,1,0.893,,-0.042952876,0.488607625,0.531560501,121.4396,121.4396,0,38,38,38,1,0.168757942,0.168757942,shape_difference0,1,,TRUE,,intensity,0.1,0.05,0.7,0.3,0.82,20,400,1E-11,3.5,0.01,0.5,0.1,,,,,,,,,,,,,,,,,,,,,,,,,,,,,,,,,,,,,,,,,,,,,,,,,,,,,,,,,,,,,,,,,,,,,,,,,,,,,,,,,
,,,,,953060,001,2025-03-17_16h04.09.188,Utility_discrimination_2024_2cat,2024.2.4,MacIntel,126.5822785,,,,,,,,1,"[0.5,0.5]","[0.924,0.383]",d,"[0.5654508020599278,0.6579021960923587]","[0.43454919794007213,0.34209780390764133]",121.4406,123.562,1,d,1,0.6112,,0.017569522,0.460819634,0.443250112,123.5646,123.5646,0,39,39,39,1,0.170889823,0.170889823,shape_difference3,1,,TRUE,,intensity,0.1,0.05,0.7,0.3,0.82,20,400,1E-11,3.5,0.01,0.5,0.1,,,,,,,,,,,,,,,,,,,,,,,,,,,,,,,,,,,,,,,,,,,,,,,,,,,,,,,,,,,,,,,,,,,,,,,,,,,,,,,,,
,,,,,953060,001,2025-03-17_16h04.09.188,Utility_discrimination_2024_2cat,2024.2.4,MacIntel,126.5822785,,,,,,,,3,"[0.5,0.5]","[0.383,0.924]",d,"[0.6915852549641255,0.5794125028693291]","[0.30841474503587457,0.42058749713067095]",123.5657,125.6613,1,d,1,0.582,,-0.05445428,0.427311378,0.481765657,125.6632,125.6632,0,40,40,40,1,0.20734335,0.20734335,shape_difference1,1,,TRUE,,intensity,0.1,0.05,0.7,0.3,0.82,20,400,1E-11,3.5,0.01,0.5,0.1,,,,,,,,,,,,,,,,,,,,,,,,,,,,,,,,,,,,,,,,,,,,,,,,,,,,,,,,,,,,,,,,,,,,,,,,,,,,,,,,,
,,,,,953060,001,2025-03-17_16h04.09.188,Utility_discrimination_2024_2cat,2024.2.4,MacIntel,126.5822785,,,,,,,,4,"[0.5,0.5]","[0,1]",d,"[0.5555073127165787,0.6339132035251143]","[0.4444926872834213,0.36608679647488573]",125.664,128.0284,0,d,0,0.8518,,0.039776223,0.462892711,0.423116488,128.0302,128.0303,0,41,41,41,1,0.144927709,0.144927709,shape_difference3,1,,TRUE,,intensity,0.1,0.05,0.7,0.3,0.82,20,400,1E-11,3.5,0.01,0.5,0.1,,,,,,,,,,,,,,,,,,,,,,,,,,,,,,,,,,,,,,,,,,,,,,,,,,,,,,,,,,,,,,,,,,,,,,,,,,,,,,,,,
,,,,,953060,001,2025-03-17_16h04.09.188,Utility_discrimination_2024_2cat,2024.2.4,MacIntel,126.5822785,,,,,,,,2,"[0.5,0.5]","[0.707,0.707]",s,"[0.5,0.7274218201628571]","[0.5,0.2725781798371429]",128.0312,130.1702,1,d,1,0.624,,0.009152004,0.411928194,0.402776189,130.1733,130.1734,0,42,42,42,1,0.22742182,0.22742182,shape_difference4,1,,TRUE,,intensity,0.1,0.05,0.7,0.3,0.82,20,400,1E-11,3.5,0.01,0.5,0.1,,,,,,,,,,,,,,,,,,,,,,,,,,,,,,,,,,,,,,,,,,,,,,,,,,,,,,,,,,,,,,,,,,,,,,,,,,,,,,,,,
,,,,,953060,001,2025-03-17_16h04.09.188,Utility_discrimination_2024_2cat,2024.2.4,MacIntel,126.5822785,,,,,,,,0,"[0.5,0.5]","[1,0]",d,"[0.626240365234286,0.626240365234286]","[0.37375963476571405,0.37375963476571405]",130.1744,132.3701,1,d,1,0.6843,,-0.049578866,0.408345939,0.457924805,132.3725,132.3725,0,43,43,43,1,0.178557801,0.178557801,shape_difference2,1,,TRUE,,intensity,0.1,0.05,0.7,0.3,0.82,20,400,1E-11,3.5,0.01,0.5,0.1,,,,,,,,,,,,,,,,,,,,,,,,,,,,,,,,,,,,,,,,,,,,,,,,,,,,,,,,,,,,,,,,,,,,,,,,,,,,,,,,,
,,,,,953060,001,2025-03-17_16h04.09.188,Utility_discrimination_2024_2cat,2024.2.4,MacIntel,126.5822785,,,,,,,,4,"[0.5,0.5]","[0,1]",d,"[0.6449338562578305,0.5]","[0.3550661437421695,0.5]",132.3734,134.7702,0,d,0,0.8847,,0.029962539,0.417050782,0.387088242,134.7727,134.7727,0,44,44,44,1,0.144933856,0.144933856,shape_difference0,1,,TRUE,,intensity,0.1,0.05,0.7,0.3,0.82,20,400,1E-11,3.5,0.01,0.5,0.1,,,,,,,,,,,,,,,,,,,,,,,,,,,,,,,,,,,,,,,,,,,,,,,,,,,,,,,,,,,,,,,,,,,,,,,,,,,,,,,,,
,,,,,953060,001,2025-03-17_16h04.09.188,Utility_discrimination_2024_2cat,2024.2.4,MacIntel,126.5822785,,,,,,,,3,"[0.5,0.5]","[0.383,0.924]",s,"[0.5,0.703704886474003]","[0.5,0.2962951135259971]",134.7736,136.7858,1,s,1,0.4993,,0.012901658,0.508666104,0.495764446,136.7877,136.7877,0,45,45,45,1,0.203704886,0.203704886,shape_difference4,1,,TRUE,,intensity,0.1,0.05,0.7,0.3,0.82,20,400,1E-11,3.5,0.01,0.5,0.1,,,,,,,,,,,,,,,,,,,,,,,,,,,,,,,,,,,,,,,,,,,,,,,,,,,,,,,,,,,,,,,,,,,,,,,,,,,,,,,,,
,,,,,953060,001,2025-03-17_16h04.09.188,Utility_discrimination_2024_2cat,2024.2.4,MacIntel,126.5822785,,,,,,,,0,"[0.5,0.5]","[1,0]",s,"[0.5762074537298462,0.6838529693116916]","[0.42379254627015384,0.3161470306883084]",136.7888,139.1618,1,s,1,0.8623,,0.013553054,0.492259556,0.478706502,139.1638,139.1638,0,46,46,46,1,0.198975075,0.198975075,shape_difference3,1,,TRUE,,intensity,0.1,0.05,0.7,0.3,0.82,20,400,1E-11,3.5,0.01,0.5,0.1,,,,,,,,,,,,,,,,,,,,,,,,,,,,,,,,,,,,,,,,,,,,,,,,,,,,,,,,,,,,,,,,,,,,,,,,,,,,,,,,,
,,,,,953060,001,2025-03-17_16h04.09.188,Utility_discrimination_2024_2cat,2024.2.4,MacIntel,126.5822785,,,,,,,,1,"[0.5,0.5]","[0.924,0.383]",s,"[0.6948671710754937,0.5]","[0.3051328289245063,0.5]",139.165,141.7036,1,s,1,1.0243,,0.011343888,0.407493809,0.396149921,141.706,141.706,0,47,47,47,1,0.194867171,0.194867171,shape_difference0,1,,TRUE,,intensity,0.1,0.05,0.7,0.3,0.82,20,400,1E-11,3.5,0.01,0.5,0.1,,,,,,,,,,,,,,,,,,,,,,,,,,,,,,,,,,,,,,,,,,,,,,,,,,,,,,,,,,,,,,,,,,,,,,,,,,,,,,,,,
,,,,,953060,001,2025-03-17_16h04.09.188,Utility_discrimination_2024_2cat,2024.2.4,MacIntel,126.5822785,,,,,,,,2,"[0.5,0.5]","[0.707,0.707]",s,"[0.6724413346454404,0.5714773064601771]","[0.3275586653545596,0.42852269353982286]",141.7069,144.5534,1,s,1,1.3344,,0.005618082,0.373835136,0.368217054,144.5554,144.5554,0,48,48,48,1,0.186624821,0.186624821,shape_difference1,1,,TRUE,,intensity,0.1,0.05,0.7,0.3,0.82,20,400,1E-11,3.5,0.01,0.5,0.1,,,,,,,,,,,,,,,,,,,,,,,,,,,,,,,,,,,,,,,,,,,,,,,,,,,,,,,,,,,,,,,,,,,,,,,,,,,,,,,,,
,,,,,953060,001,2025-03-17_16h04.09.188,Utility_discrimination_2024_2cat,2024.2.4,MacIntel,126.5822785,,,,,,,,0,"[0.5,0.5]","[1,0]",s,"[0.6150878402136054,0.6150878402136054]","[0.38491215978639454,0.38491215978639454]",144.5562,147.9284,0,d,0,1.8583,,0.009414146,0.441881158,0.432467012,147.9313,147.9314,0,49,49,49,1,0.162783367,0.162783367,shape_difference2,1,,TRUE,,intensity,0.1,0.05,0.7,0.3,0.82,20,400,1E-11,3.5,0.01,0.5,0.1,,,,,,,,,,,,,,,,,,,,,,,,,,,,,,,,,,,,,,,,,,,,,,,,,,,,,,,,,,,,,,,,,,,,,,,,,,,,,,,,,
,,,,,953060,001,2025-03-17_16h04.09.188,Utility_discrimination_2024_2cat,2024.2.4,MacIntel,126.5822785,,,,,,,,2,"[0.5,0.5]","[0.707,0.707]",s,"[0.6745273439748246,0.5]","[0.3254726560251754,0.5]",147.9328,150.8952,1,d,1,1.4501,,0.054580104,0.483065226,0.428485122,150.8979,150.8979,0,50,50,50,1,0.174527344,0.174527344,shape_difference0,1,,TRUE,,intensity,0.1,0.05,0.7,0.3,0.82,20,400,1E-11,3.5,0.01,0.5,0.1,,,,,,,,,,,,,,,,,,,,,,,,,,,,,,,,,,,,,,,,,,,,,,,,,,,,,,,,,,,,,,,,,,,,,,,,,,,,,,,,,
,,,,,953060,001,2025-03-17_16h04.09.188,Utility_discrimination_2024_2cat,2024.2.4,MacIntel,126.5822785,,,,,,,,3,"[0.5,0.5]","[0.383,0.924]",d,"[0.6660066505458088,0.6660066505458088]","[0.33399334945419124,0.33399334945419124]",150.899,153.3118,1,d,1,0.9004,,0.008616323,0.458698433,0.450082111,153.3144,153.3145,0,51,51,51,1,0.234804315,0.234804315,shape_difference2,1,,TRUE,,intensity,0.1,0.05,0.7,0.3,0.82,20,400,1E-11,3.5,0.01,0.5,0.1,,,,,,,,,,,,,,,,,,,,,,,,,,,,,,,,,,,,,,,,,,,,,,,,,,,,,,,,,,,,,,,,,,,,,,,,,,,,,,,,,
,,,,,953060,001,2025-03-17_16h04.09.188,Utility_discrimination_2024_2cat,2024.2.4,MacIntel,126.5822785,,,,,,,,4,"[0.5,0.5]","[0,1]",d,"[0.5677231664887162,0.6633843494401405]","[0.43227683351128376,0.33661565055985954]",153.3163,155.6612,1,s,1,0.8339,,0.022894989,0.384200364,0.361305374,155.6634,155.6634,0,52,52,52,1,0.176822889,0.176822889,shape_difference3,1,,TRUE,,intensity,0.1,0.05,0.7,0.3,0.82,20,400,1E-11,3.5,0.01,0.5,0.1,,,,,,,,,,,,,,,,,,,,,,,,,,,,,,,,,,,,,,,,,,,,,,,,,,,,,,,,,,,,,,,,,,,,,,,,,,,,,,,,,
,,,,,953060,001,2025-03-17_16h04.09.188,Utility_discrimination_2024_2cat,2024.2.4,MacIntel,126.5822785,,,,,,,,1,"[0.5,0.5]","[0.924,0.383]",s,"[0.5,0.6877261014801036]","[0.5,0.3122738985198964]",155.6642,157.7785,1,d,1,0.6001,,0.006719151,0.375278343,0.368559192,157.781,157.7811,0,53,53,53,1,0.187726101,0.187726101,shape_difference4,1,,TRUE,,intensity,0.1,0.05,0.7,0.3,0.82,20,400,1E-11,3.5,0.01,0.5,0.1,,,,,,,,,,,,,,,,,,,,,,,,,,,,,,,,,,,,,,,,,,,,,,,,,,,,,,,,,,,,,,,,,,,,,,,,,,,,,,,,,
,,,,,953060,001,2025-03-17_16h04.09.188,Utility_discrimination_2024_2cat,2024.2.4,MacIntel,126.5822785,,,,,,,,1,"[0.5,0.5]","[0.924,0.383]",d,"[0.658612640909044,0.5657452829742033]","[0.3413873590909559,0.43425471702579665]",157.782,159.9867,1,s,1,0.6922,,0.003159992,0.338931455,0.335771463,159.9894,159.9895,0,54,54,54,1,0.171658702,0.171658702,shape_difference1,1,,TRUE,,intensity,0.1,0.05,0.7,0.3,0.82,20,400,1E-11,3.5,0.01,0.5,0.1,,,,,,,,,,,,,,,,,,,,,,,,,,,,,,,,,,,,,,,,,,,,,,,,,,,,,,,,,,,,,,,,,,,,,,,,,,,,,,,,,
,,,,,953060,001,2025-03-17_16h04.09.188,Utility_discrimination_2024_2cat,2024.2.4,MacIntel,126.5822785,,,,,,,,0,"[0.5,0.5]","[1,0]",s,"[0.64672442494637,0.5608175917256057]","[0.35327557505363005,0.4391824082743943]",159.9905,162.1619,1,d,1,0.6585,,0.00638711,0.385695233,0.379308122,162.1639,162.1639,0,55,55,55,1,0.158792668,0.158792668,shape_difference1,1,,TRUE,,intensity,0.1,0.05,0.7,0.3,0.82,20,400,1E-11,3.5,0.01,0.5,0.1,,,,,,,,,,,,,,,,,,,,,,,,,,,,,,,,,,,,,,,,,,,,,,,,,,,,,,,,,,,,,,,,,,,,,,,,,,,,,,,,,
,,,,,953060,001,2025-03-17_16h04.09.188,Utility_discrimination_2024_2cat,2024.2.4,MacIntel,126.5822785,,,,,,,,2,"[0.5,0.5]","[0.707,0.707]",d,"[0.6576028364801502,0.5]","[0.34239716351984983,0.5]",162.1655,164.4117,1,s,1,0.7345,,0.042040805,0.44369794,0.401657135,164.4139,164.4139,0,56,56,56,1,0.157602836,0.157602836,shape_difference0,1,,TRUE,,intensity,0.1,0.05,0.7,0.3,0.82,20,400,1E-11,3.5,0.01,0.5,0.1,,,,,,,,,,,,,,,,,,,,,,,,,,,,,,,,,,,,,,,,,,,,,,,,,,,,,,,,,,,,,,,,,,,,,,,,,,,,,,,,,
,,,,,953060,001,2025-03-17_16h04.09.188,Utility_discrimination_2024_2cat,2024.2.4,MacIntel,126.5822785,,,,,,,,3,"[0.5,0.5]","[0.383,0.924]",s,"[0.6497050994916442,0.6497050994916442]","[0.3502949005083558,0.3502949005083558]",164.4148,166.4609,1,d,1,0.5333,,0.005499505,0.395538187,0.390038682,166.4636,166.4636,0,57,57,57,1,0.211746958,0.211746958,shape_difference2,1,,TRUE,,intensity,0.1,0.05,0.7,0.3,0.82,20,400,1E-11,3.5,0.01,0.5,0.1,,,,,,,,,,,,,,,,,,,,,,,,,,,,,,,,,,,,,,,,,,,,,,,,,,,,,,,,,,,,,,,,,,,,,,,,,,,,,,,,,
,,,,,953060,001,2025-03-17_16h04.09.188,Utility_discrimination_2024_2cat,2024.2.4,MacIntel,126.5822785,,,,,,,,4,"[0.5,0.5]","[0,1]",d,"[0.5607197685118687,0.6464884232505657]","[0.43928023148813133,0.35351157674943434]",166.4645,169.0367,1,s,1,1.0592,,0.017671301,0.356499545,0.338828244,169.0394,169.0394,0,58,58,58,1,0.158537255,0.158537255,shape_difference3,1,,TRUE,,intensity,0.1,0.05,0.7,0.3,0.82,20,400,1E-11,3.5,0.01,0.5,0.1,,,,,,,,,,,,,,,,,,,,,,,,,,,,,,,,,,,,,,,,,,,,,,,,,,,,,,,,,,,,,,,,,,,,,,,,,,,,,,,,,
,,,,,953060,001,2025-03-17_16h04.09.188,Utility_discrimination_2024_2cat,2024.2.4,MacIntel,126.5822785,,,,,,,,4,"[0.5,0.5]","[0,1]",s,"[0.5,0.6757241735523081]","[0.5,0.3242758264476919]",169.0403,171.0783,1,d,1,0.5251,,0.013708882,0.319657374,0.305948492,171.0807,171.0807,0,59,59,59,1,0.175724174,0.175724174,shape_difference4,1,,TRUE,,intensity,0.1,0.05,0.7,0.3,0.82,20,400,1E-11,3.5,0.01,0.5,0.1,,,,,,,,,,,,,,,,,,,,,,,,,,,,,,,,,,,,,,,,,,,,,,,,,,,,,,,,,,,,,,,,,,,,,,,,,,,,,,,,,
,,,,,953060,001,2025-03-17_16h04.09.188,Utility_discrimination_2024_2cat,2024.2.4,MacIntel,126.5822785,,,,,,,,1,"[0.5,0.5]","[0.924,0.383]",d,"[0.5,0.6654916230557901]","[0.5,0.3345083769442098]",171.0815,173.2695,1,d,1,0.6742,,0.000321923,0.297422764,0.297100842,173.2714,173.2714,0,60,60,60,1,0.165491623,0.165491623,shape_difference4,1,,TRUE,,intensity,0.1,0.05,0.7,0.3,0.82,20,400,1E-11,3.5,0.01,0.5,0.1,,,,,,,,,,,,,,,,,,,,,,,,,,,,,,,,,,,,,,,,,,,,,,,,,,,,,,,,,,,,,,,,,,,,,,,,,,,,,,,,,
,,,,,953060,001,2025-03-17_16h04.09.188,Utility_discrimination_2024_2cat,2024.2.4,MacIntel,126.5822785,,,,,,,,0,"[0.5,0.5]","[1,0]",d,"[0.6360125312673672,0.556377488609742]","[0.3639874687326328,0.443622511390258]",173.2725,175.4118,1,d,1,0.6247,,0.004086229,0.341539731,0.337453502,175.4144,175.4144,0,61,61,61,1,0.147199709,0.147199709,shape_difference1,1,,TRUE,,intensity,0.1,0.05,0.7,0.3,0.82,20,400,1E-11,3.5,0.01,0.5,0.1,,,,,,,,,,,,,,,,,,,,,,,,,,,,,,,,,,,,,,,,,,,,,,,,,,,,,,,,,,,,,,,,,,,,,,,,,,,,,,,,,
,,,,,953060,001,2025-03-17_16h04.09.188,Utility_discrimination_2024_2cat,2024.2.4,MacIntel,126.5822785,,,,,,,,3,"[0.5,0.5]","[0.383,0.924]",d,"[0.6427637983600022,0.5]","[0.3572362016399978,0.5]",175.4154,177.5368,1,d,1,0.6075,,0.00313906,0.353209409,0.350070349,177.5394,177.5394,0,62,62,62,1,0.142763798,0.142763798,shape_difference0,1,,TRUE,,intensity,0.1,0.05,0.7,0.3,0.82,20,400,1E-11,3.5,0.01,0.5,0.1,,,,,,,,,,,,,,,,,,,,,,,,,,,,,,,,,,,,,,,,,,,,,,,,,,,,,,,,,,,,,,,,,,,,,,,,,,,,,,,,,
,,,,,953060,001,2025-03-17_16h04.09.188,Utility_discrimination_2024_2cat,2024.2.4,MacIntel,126.5822785,,,,,,,,2,"[0.5,0.5]","[0.707,0.707]",d,"[0.5546244116781014,0.6317831759544795]","[0.44537558832189866,0.3682168240455205]",177.5402,179.6118,1,d,1,0.5578,,0.033152339,0.395699972,0.362547633,179.6138,179.6138,0,63,63,63,1,0.142622485,0.142622485,shape_difference3,1,,TRUE,,intensity,0.1,0.05,0.7,0.3,0.82,20,400,1E-11,3.5,0.01,0.5,0.1,,,,,,,,,,,,,,,,,,,,,,,,,,,,,,,,,,,,,,,,,,,,,,,,,,,,,,,,,,,,,,,,,,,,,,,,,,,,,,,,,
,,,,,953060,001,2025-03-17_16h04.09.188,Utility_discrimination_2024_2cat,2024.2.4,MacIntel,126.5822785,,,,,,,,4,"[0.5,0.5]","[0,1]",d,"[0.6362449035071356,0.6362449035071356]","[0.3637550964928644,0.3637550964928644]",179.6146,182.3284,1,s,1,1.2005,,0.010625295,0.293974791,0.283349496,182.3304,182.3304,0,64,64,64,1,0.192708492,0.192708492,shape_difference2,1,,TRUE,,intensity,0.1,0.05,0.7,0.3,0.82,20,400,1E-11,3.5,0.01,0.5,0.1,,,,,,,,,,,,,,,,,,,,,,,,,,,,,,,,,,,,,,,,,,,,,,,,,,,,,,,,,,,,,,,,,,,,,,,,,,,,,,,,,
,,,,,953060,001,2025-03-17_16h04.09.188,Utility_discrimination_2024_2cat,2024.2.4,MacIntel,126.5822785,,,,,,,,3,"[0.5,0.5]","[0.383,0.924]",s,"[0.5,0.6564087579314531]","[0.5,0.34359124206854685]",182.3312,187.645,0,s,0,3.8002,,0.000206267,0.308893181,0.308686914,187.6471,187.6472,0,65,65,65,1,0.156408758,0.156408758,shape_difference4,1,,TRUE,,intensity,0.1,0.05,0.7,0.3,0.82,20,400,1E-11,3.5,0.01,0.5,0.1,,,,,,,,,,,,,,,,,,,,,,,,,,,,,,,,,,,,,,,,,,,,,,,,,,,,,,,,,,,,,,,,,,,,,,,,,,,,,,,,,
,,,,,953060,001,2025-03-17_16h04.09.188,Utility_discrimination_2024_2cat,2024.2.4,MacIntel,126.5822785,,,,,,,,2,"[0.5,0.5]","[0.707,0.707]",d,"[0.5486100564644466,0.617273347710571]","[0.4513899435355534,0.38272665228942904]",187.6479,189.7867,1,d,1,0.6252,,0.02669994,0.370042227,0.343342287,189.79,189.79,0,66,66,66,1,0.126919207,0.126919207,shape_difference3,1,,TRUE,,intensity,0.1,0.05,0.7,0.3,0.82,20,400,1E-11,3.5,0.01,0.5,0.1,,,,,,,,,,,,,,,,,,,,,,,,,,,,,,,,,,,,,,,,,,,,,,,,,,,,,,,,,,,,,,,,,,,,,,,,,,,,,,,,,
,,,,,953060,001,2025-03-17_16h04.09.188,Utility_discrimination_2024_2cat,2024.2.4,MacIntel,126.5822785,,,,,,,,0,"[0.5,0.5]","[1,0]",d,"[0.627931460123094,0.627931460123094]","[0.372068539876906,0.372068539876906]",189.7911,191.9708,0,d,0,0.6705,,0.001277137,0.298568483,0.297291346,191.9758,191.9759,0,67,67,67,1,0.180949731,0.180949731,shape_difference2,1,,TRUE,,intensity,0.1,0.05,0.7,0.3,0.82,20,400,1E-11,3.5,0.01,0.5,0.1,,,,,,,,,,,,,,,,,,,,,,,,,,,,,,,,,,,,,,,,,,,,,,,,,,,,,,,,,,,,,,,,,,,,,,,,,,,,,,,,,
,,,,,953060,001,2025-03-17_16h04.09.188,Utility_discrimination_2024_2cat,2024.2.4,MacIntel,126.5822785,,,,,,,,1,"[0.5,0.5]","[0.924,0.383]",s,"[0.6279921884156735,0.5]","[0.3720078115843265,0.5]",191.9766,194.0202,0,d,0,0.5339,,-0.027463102,0.285952249,0.313415351,194.0227,194.0227,0,68,68,68,1,0.127992188,0.127992188,shape_difference0,1,,TRUE,,intensity,0.1,0.05,0.7,0.3,0.82,20,400,1E-11,3.5,0.01,0.5,0.1,,,,,,,,,,,,,,,,,,,,,,,,,,,,,,,,,,,,,,,,,,,,,,,,,,,,,,,,,,,,,,,,,,,,,,,,,,,,,,,,,
,,,,,953060,001,2025-03-17_16h04.09.188,Utility_discrimination_2024_2cat,2024.2.4,MacIntel,126.5822785,,,,,,,,1,"[0.5,0.5]","[0.924,0.383]",s,"[0.6247923721142828,0.5517267083547298]","[0.37520762788571715,0.4482732916452702]",194.0241,196.4701,0,s,0,0.9334,,0.014869475,0.326802217,0.311932742,196.4726,196.4727,0,69,69,69,1,0.13505668,0.13505668,shape_difference1,1,,TRUE,,intensity,0.1,0.05,0.7,0.3,0.82,20,400,1E-11,3.5,0.01,0.5,0.1,,,,,,,,,,,,,,,,,,,,,,,,,,,,,,,,,,,,,,,,,,,,,,,,,,,,,,,,,,,,,,,,,,,,,,,,,,,,,,,,,
,,,,,953060,001,2025-03-17_16h04.09.188,Utility_discrimination_2024_2cat,2024.2.4,MacIntel,126.5822785,,,,,,,,3,"[0.5,0.5]","[0.383,0.924]",d,"[0.6518905536934576,0.5629589632733705]","[0.3481094463065424,0.4370410367266296]",196.4739,198.9036,1,s,1,0.9186,,-0.020488539,0.285404998,0.305893537,198.9054,198.9054,0,70,70,70,1,0.164383716,0.164383716,shape_difference1,1,,TRUE,,intensity,0.1,0.05,0.7,0.3,0.82,20,400,1E-11,3.5,0.01,0.5,0.1,,,,,,,,,,,,,,,,,,,,,,,,,,,,,,,,,,,,,,,,,,,,,,,,,,,,,,,,,,,,,,,,,,,,,,,,,,,,,,,,,
,,,,,953060,001,2025-03-17_16h04.09.188,Utility_discrimination_2024_2cat,2024.2.4,MacIntel,126.5822785,,,,,,,,0,"[0.5,0.5]","[1,0]",s,"[0.5420534816481442,0.6014553969788126]","[0.45794651835185585,0.39854460302118744]",198.9058,201.4866,1,s,1,1.0669,,0.013393696,0.372760258,0.359366562,201.4888,201.4888,0,71,71,71,1,0.109800213,0.109800213,shape_difference3,1,,TRUE,,intensity,0.1,0.05,0.7,0.3,0.82,20,400,1E-11,3.5,0.01,0.5,0.1,,,,,,,,,,,,,,,,,,,,,,,,,,,,,,,,,,,,,,,,,,,,,,,,,,,,,,,,,,,,,,,,,,,,,,,,,,,,,,,,,
,,,,,953060,001,2025-03-17_16h04.09.188,Utility_discrimination_2024_2cat,2024.2.4,MacIntel,126.5822785,,,,,,,,4,"[0.5,0.5]","[0,1]",s,"[0.6630030645226086,0.5]","[0.33699693547739146,0.5]",201.4899,203.8115,1,d,1,0.8073,,0.054863245,0.37339156,0.318528315,203.8124,203.8124,0,72,72,72,1,0.163003065,0.163003065,shape_difference0,1,,TRUE,,intensity,0.1,0.05,0.7,0.3,0.82,20,400,1E-11,3.5,0.01,0.5,0.1,,,,,,,,,,,,,,,,,,,,,,,,,,,,,,,,,,,,,,,,,,,,,,,,,,,,,,,,,,,,,,,,,,,,,,,,,,,,,,,,,
,,,,,953060,001,2025-03-17_16h04.09.188,Utility_discrimination_2024_2cat,2024.2.4,MacIntel,126.5822785,,,,,,,,2,"[0.5,0.5]","[0.707,0.707]",d,"[0.5,0.6949622080446403]","[0.5,0.3050377919553597]",203.8127,205.9618,0,d,0,0.6333,,0.10131341,0.452198677,0.350885267,205.9644,205.9644,0,73,73,73,1,0.194962208,0.194962208,shape_difference4,1,,TRUE,,intensity,0.1,0.05,0.7,0.3,0.82,20,400,1E-11,3.5,0.01,0.5,0.1,,,,,,,,,,,,,,,,,,,,,,,,,,,,,,,,,,,,,,,,,,,,,,,,,,,,,,,,,,,,,,,,,,,,,,,,,,,,,,,,,
,,,,,953060,001,2025-03-17_16h04.09.188,Utility_discrimination_2024_2cat,2024.2.4,MacIntel,126.5822785,,,,,,,,4,"[0.5,0.5]","[0,1]",s,"[0.6650162359763775,0.6650162359763775]","[0.3349837640236225,0.3349837640236225]",205.9655,208.6116,1,d,1,1.1353,,0.107249334,0.434094799,0.326845465,208.6135,208.6136,0,74,74,74,1,0.233403446,0.233403446,shape_difference2,1,,TRUE,,intensity,0.1,0.05,0.7,0.3,0.82,20,400,1E-11,3.5,0.01,0.5,0.1,,,,,,,,,,,,,,,,,,,,,,,,,,,,,,,,,,,,,,,,,,,,,,,,,,,,,,,,,,,,,,,,,,,,,,,,,,,,,,,,,
,,,,,953060,001,2025-03-17_16h04.09.188,Utility_discrimination_2024_2cat,2024.2.4,MacIntel,126.5822785,,,,,,,,1,"[0.5,0.5]","[0.924,0.383]",d,"[0.5,0.7420828131875495]","[0.5,0.25791718681245046]",208.6152,211.6118,1,s,1,1.4841,,0.012052905,0.295124889,0.283071984,211.6137,211.6137,0,75,75,75,1,0.242082813,0.242082813,shape_difference4,1,,TRUE,,intensity,0.1,0.05,0.7,0.3,0.82,20,400,1E-11,3.5,0.01,0.5,0.1,,,,,,,,,,,,,,,,,,,,,,,,,,,,,,,,,,,,,,,,,,,,,,,,,,,,,,,,,,,,,,,,,,,,,,,,,,,,,,,,,
,,,,,953060,001,2025-03-17_16h04.09.188,Utility_discrimination_2024_2cat,2024.2.4,MacIntel,126.5822785,,,,,,,,0,"[0.5,0.5]","[1,0]",s,"[0.6433497639793858,0.5594187874503298]","[0.3566502360206142,0.44058121254967014]",211.6147,214.095,1,d,1,0.9671,,0.01101228,0.328592279,0.317579999,214.097,214.097,0,76,76,76,1,0.155140437,0.155140437,shape_difference1,1,,TRUE,,intensity,0.1,0.05,0.7,0.3,0.82,20,400,1E-11,3.5,0.01,0.5,0.1,,,,,,,,,,,,,,,,,,,,,,,,,,,,,,,,,,,,,,,,,,,,,,,,,,,,,,,,,,,,,,,,,,,,,,,,,,,,,,,,,
,,,,,953060,001,2025-03-17_16h04.09.188,Utility_discrimination_2024_2cat,2024.2.4,MacIntel,126.5822785,,,,,,,,2,"[0.5,0.5]","[0.707,0.707]",d,"[0.6510830251428856,0.5]","[0.3489169748571143,0.5]",214.0979,216.6616,0,s,0,1.0491,,0.087391419,0.405959819,0.3185684,216.6637,216.6637,0,77,77,77,1,0.151083025,0.151083025,shape_difference0,1,,TRUE,,intensity,0.1,0.05,0.7,0.3,0.82,20,400,1E-11,3.5,0.01,0.5,0.1,,,,,,,,,,,,,,,,,,,,,,,,,,,,,,,,,,,,,,,,,,,,,,,,,,,,,,,,,,,,,,,,,,,,,,,,,,,,,,,,,
,,,,,953060,001,2025-03-17_16h04.09.188,Utility_discrimination_2024_2cat,2024.2.4,MacIntel,126.5822785,,,,,,,,3,"[0.5,0.5]","[0.383,0.924]",d,"[0.6520693811951415,0.6520693811951415]","[0.3479306188048586,0.3479306188048586]",216.6649,219.2117,1,d,1,1.0328,,-0.036785909,0.264281226,0.301067135,219.2134,219.2134,0,78,78,78,1,0.215091063,0.215091063,shape_difference2,1,,TRUE,,intensity,0.1,0.05,0.7,0.3,0.82,20,400,1E-11,3.5,0.01,0.5,0.1,,,,,,,,,,,,,,,,,,,,,,,,,,,,,,,,,,,,,,,,,,,,,,,,,,,,,,,,,,,,,,,,,,,,,,,,,,,,,,,,,
,,,,,953060,001,2025-03-17_16h04.09.188,Utility_discrimination_2024_2cat,2024.2.4,MacIntel,126.5822785,,,,,,,,2,"[0.5,0.5]","[0.707,0.707]",d,"[0.536336380196641,0.5876627031375882]","[0.463663619803359,0.4123372968624118]",219.2142,221.82,0,d,0,1.0921,,0.069059575,0.382287407,0.313227832,221.8225,221.8225,0,79,79,79,1,0.094873055,0.094873055,shape_difference3,1,,TRUE,,intensity,0.1,0.05,0.7,0.3,0.82,20,400,1E-11,3.5,0.01,0.5,0.1,,,,,,,,,,,,,,,,,,,,,,,,,,,,,,,,,,,,,,,,,,,,,,,,,,,,,,,,,,,,,,,,,,,,,,,,,,,,,,,,,
,,,,,953060,001,2025-03-17_16h04.09.188,Utility_discrimination_2024_2cat,2024.2.4,MacIntel,126.5822785,,,,,,,,3,"[0.5,0.5]","[0.383,0.924]",s,"[0.6394617604477191,0.6394617604477191]","[0.3605382395522809,0.3605382395522809]",221.8233,224.1191,1,s,1,0.7827,,0.007714963,0.312078701,0.304363738,224.1215,224.1217,0,80,80,80,1,0.197258501,0.197258501,shape_difference2,1,,TRUE,,intensity,0.1,0.05,0.7,0.3,0.82,20,400,1E-11,3.5,0.01,0.5,0.1,,,,,,,,,,,,,,,,,,,,,,,,,,,,,,,,,,,,,,,,,,,,,,,,,,,,,,,,,,,,,,,,,,,,,,,,,,,,,,,,,
,,,,,953060,001,2025-03-17_16h04.09.188,Utility_discrimination_2024_2cat,2024.2.4,MacIntel,126.5822785,,,,,,,,0,"[0.5,0.5]","[1,0]",s,"[0.5532697457761471,0.6285150002536812]","[0.44673025422385293,0.37148499974631877]",224.1225,226.2531,1,s,1,0.6161,,0.043876895,0.444398832,0.400521937,226.2542,226.2542,0,81,81,81,1,0.139085498,0.139085498,shape_difference3,1,,TRUE,,intensity,0.1,0.05,0.7,0.3,0.82,20,400,1E-11,3.5,0.01,0.5,0.1,,,,,,,,,,,,,,,,,,,,,,,,,,,,,,,,,,,,,,,,,,,,,,,,,,,,,,,,,,,,,,,,,,,,,,,,,,,,,,,,,
,,,,,953060,001,2025-03-17_16h04.09.188,Utility_discrimination_2024_2cat,2024.2.4,MacIntel,126.5822785,,,,,,,,4,"[0.5,0.5]","[0,1]",s,"[0.7018504120802092,0.5]","[0.2981495879197908,0.5]",226.2552,228.7701,1,s,1,0.9991,,0.105035459,0.396424584,0.291389124,228.7719,228.7719,0,82,82,82,1,0.201850412,0.201850412,shape_difference0,1,,TRUE,,intensity,0.1,0.05,0.7,0.3,0.82,20,400,1E-11,3.5,0.01,0.5,0.1,,,,,,,,,,,,,,,,,,,,,,,,,,,,,,,,,,,,,,,,,,,,,,,,,,,,,,,,,,,,,,,,,,,,,,,,,,,,,,,,,
,,,,,953060,001,2025-03-17_16h04.09.188,Utility_discrimination_2024_2cat,2024.2.4,MacIntel,126.5822785,,,,,,,,1,"[0.5,0.5]","[0.924,0.383]",s,"[0.5,0.7279006693074124]","[0.5,0.2720993306925876]",228.7735,231.1617,1,d,1,0.8733,,0.009831119,0.283082634,0.273251515,231.1636,231.1637,0,83,83,83,1,0.227900669,0.227900669,shape_difference4,1,,TRUE,,intensity,0.1,0.05,0.7,0.3,0.82,20,400,1E-11,3.5,0.01,0.5,0.1,,,,,,,,,,,,,,,,,,,,,,,,,,,,,,,,,,,,,,,,,,,,,,,,,,,,,,,,,,,,,,,,,,,,,,,,,,,,,,,,,
,,,,,953060,001,2025-03-17_16h04.09.188,Utility_discrimination_2024_2cat,2024.2.4,MacIntel,126.5822785,,,,,,,,0,"[0.5,0.5]","[1,0]",d,"[0.6354485461216749,0.5561437155461055]","[0.3645514538783251,0.44385628445389447]",231.1645,233.4117,1,s,1,0.7332,,0.035101599,0.394532049,0.35943045,233.4139,233.414,0,84,84,84,1,0.146589336,0.146589336,shape_difference1,1,,TRUE,,intensity,0.1,0.05,0.7,0.3,0.82,20,400,1E-11,3.5,0.01,0.5,0.1,,,,,,,,,,,,,,,,,,,,,,,,,,,,,,,,,,,,,,,,,,,,,,,,,,,,,,,,,,,,,,,,,,,,,,,,,,,,,,,,,
,,,,,953060,001,2025-03-17_16h04.09.188,Utility_discrimination_2024_2cat,2024.2.4,MacIntel,126.5822785,,,,,,,,3,"[0.5,0.5]","[0.383,0.924]",s,"[0.6880529169240063,0.5]","[0.3119470830759937,0.5]",233.415,235.92,1,s,1,0.9919,,0.005691521,0.28872611,0.28303459,235.9229,235.923,0,85,85,85,1,0.188052917,0.188052917,shape_difference0,1,,TRUE,,intensity,0.1,0.05,0.7,0.3,0.82,20,400,1E-11,3.5,0.01,0.5,0.1,,,,,,,,,,,,,,,,,,,,,,,,,,,,,,,,,,,,,,,,,,,,,,,,,,,,,,,,,,,,,,,,,,,,,,,,,,,,,,,,,
,,,,,953060,001,2025-03-17_16h04.09.188,Utility_discrimination_2024_2cat,2024.2.4,MacIntel,126.5822785,,,,,,,,4,"[0.5,0.5]","[0,1]",s,"[0.5481473130537172,0.6161569641295945]","[0.4518526869462828,0.3838430358704055]",235.9244,238.5117,0,d,0,1.0743,,0.103051838,0.379777129,0.276725291,238.5133,238.5134,0,86,86,86,1,0.125711,0.125711,shape_difference3,1,,TRUE,,intensity,0.1,0.05,0.7,0.3,0.82,20,400,1E-11,3.5,0.01,0.5,0.1,,,,,,,,,,,,,,,,,,,,,,,,,,,,,,,,,,,,,,,,,,,,,,,,,,,,,,,,,,,,,,,,,,,,,,,,,,,,,,,,,
,,,,,953060,001,2025-03-17_16h04.09.188,Utility_discrimination_2024_2cat,2024.2.4,MacIntel,126.5822785,,,,,,,,2,"[0.5,0.5]","[0.707,0.707]",s,"[0.5,0.7124984982759457]","[0.5,0.28750150172405425]",238.5149,240.9029,1,d,1,0.8771,,0.055610307,0.357956904,0.302346597,240.9049,240.905,0,87,87,87,1,0.212498498,0.212498498,shape_difference4,1,,TRUE,,intensity,0.1,0.05,0.7,0.3,0.82,20,400,1E-11,3.5,0.01,0.5,0.1,,,,,,,,,,,,,,,,,,,,,,,,,,,,,,,,,,,,,,,,,,,,,,,,,,,,,,,,,,,,,,,,,,,,,,,,,,,,,,,,,
,,,,,953060,001,2025-03-17_16h04.09.188,Utility_discrimination_2024_2cat,2024.2.4,MacIntel,126.5822785,,,,,,,,1,"[0.5,0.5]","[0.924,0.383]",d,"[0.6325205857937024,0.6325205857937024]","[0.3674794142062976,0.3674794142062976]",240.906,243.07,1,d,1,0.6487,,0.007356841,0.271756104,0.264399262,243.0718,243.0718,0,88,88,88,1,0.187440715,0.187440715,shape_difference2,1,,TRUE,,intensity,0.1,0.05,0.7,0.3,0.82,20,400,1E-11,3.5,0.01,0.5,0.1,,,,,,,,,,,,,,,,,,,,,,,,,,,,,,,,,,,,,,,,,,,,,,,,,,,,,,,,,,,,,,,,,,,,,,,,,,,,,,,,,
,,,,,953060,001,2025-03-17_16h04.09.188,Utility_discrimination_2024_2cat,2024.2.4,MacIntel,126.5822785,,,,,,,,0,"[0.5,0.5]","[1,0]",d,"[0.6270903059290479,0.5526792068948326]","[0.3729096940709521,0.44732079310516737]",243.0727,245.37,0,d,0,0.7837,,0.028708384,0.365927773,0.337219389,245.3718,245.3718,0,89,89,89,1,0.137543621,0.137543621,shape_difference1,1,,TRUE,,intensity,0.1,0.05,0.7,0.3,0.82,20,400,1E-11,3.5,0.01,0.5,0.1,,,,,,,,,,,,,,,,,,,,,,,,,,,,,,,,,,,,,,,,,,,,,,,,,,,,,,,,,,,,,,,,,,,,,,,,,,,,,,,,,
,,,,,953060,001,2025-03-17_16h04.09.188,Utility_discrimination_2024_2cat,2024.2.4,MacIntel,126.5822785,,,,,,,,3,"[0.5,0.5]","[0.383,0.924]",s,"[0.6776652886684872,0.5]","[0.3223347113315128,0.5]",245.3727,248.0364,1,s,1,1.1504,,0.01395618,0.349280482,0.335324302,248.0382,248.0383,0,90,90,90,1,0.177665289,0.177665289,shape_difference0,1,,TRUE,,intensity,0.1,0.05,0.7,0.3,0.82,20,400,1E-11,3.5,0.01,0.5,0.1,,,,,,,,,,,,,,,,,,,,,,,,,,,,,,,,,,,,,,,,,,,,,,,,,,,,,,,,,,,,,,,,,,,,,,,,,,,,,,,,,
,,,,,953060,001,2025-03-17_16h04.09.188,Utility_discrimination_2024_2cat,2024.2.4,MacIntel,126.5822785,,,,,,,,1,"[0.5,0.5]","[0.924,0.383]",s,"[0.5603289359184757,0.645545526863372]","[0.4396710640815244,0.35445447313662803]",248.0392,250.5281,1,d,1,0.9749,,0.01745039,0.292089149,0.274638759,250.5299,250.5299,0,91,91,91,1,0.157516804,0.157516804,shape_difference3,1,,TRUE,,intensity,0.1,0.05,0.7,0.3,0.82,20,400,1E-11,3.5,0.01,0.5,0.1,,,,,,,,,,,,,,,,,,,,,,,,,,,,,,,,,,,,,,,,,,,,,,,,,,,,,,,,,,,,,,,,,,,,,,,,,,,,,,,,,
,,,,,953060,001,2025-03-17_16h04.09.188,Utility_discrimination_2024_2cat,2024.2.4,MacIntel,126.5822785,,,,,,,,4,"[0.5,0.5]","[0,1]",d,"[0.6470940571996735,0.5609708050946698]","[0.35290594280032656,0.43902919490533016]",250.5312,252.745,0,d,0,0.7002,,0.101192976,0.35936631,0.258173334,252.747,252.747,0,92,92,92,1,0.159192703,0.159192703,shape_difference1,1,,TRUE,,intensity,0.1,0.05,0.7,0.3,0.82,20,400,1E-11,3.5,0.01,0.5,0.1,,,,,,,,,,,,,,,,,,,,,,,,,,,,,,,,,,,,,,,,,,,,,,,,,,,,,,,,,,,,,,,,,,,,,,,,,,,,,,,,,
,,,,,953060,001,2025-03-17_16h04.09.188,Utility_discrimination_2024_2cat,2024.2.4,MacIntel,126.5822785,,,,,,,,2,"[0.5,0.5]","[0.707,0.707]",s,"[0.5,0.6974014008644985]","[0.5,0.30259859913550147]",252.7479,254.9786,1,s,1,0.7205,,0.045545014,0.326710464,0.28116545,254.9805,254.9806,0,93,93,93,1,0.197401401,0.197401401,shape_difference4,1,,TRUE,,intensity,0.1,0.05,0.7,0.3,0.82,20,400,1E-11,3.5,0.01,0.5,0.1,,,,,,,,,,,,,,,,,,,,,,,,,,,,,,,,,,,,,,,,,,,,,,,,,,,,,,,,,,,,,,,,,,,,,,,,,,,,,,,,,
,,,,,953060,001,2025-03-17_16h04.09.188,Utility_discrimination_2024_2cat,2024.2.4,MacIntel,126.5822785,,,,,,,,3,"[0.5,0.5]","[0.383,0.924]",s,"[0.6269071823750292,0.6269071823750292]","[0.3730928176249708,0.3730928176249708]",254.9816,257.0532,1,s,1,0.5578,,0.011895148,0.299106706,0.287211558,257.0551,257.0552,0,94,94,94,1,0.179500965,0.179500965,shape_difference2,1,,TRUE,,intensity,0.1,0.05,0.7,0.3,0.82,20,400,1E-11,3.5,0.01,0.5,0.1,,,,,,,,,,,,,,,,,,,,,,,,,,,,,,,,,,,,,,,,,,,,,,,,,,,,,,,,,,,,,,,,,,,,,,,,,,,,,,,,,
,,,,,953060,001,2025-03-17_16h04.09.188,Utility_discrimination_2024_2cat,2024.2.4,MacIntel,126.5822785,,,,,,,,2,"[0.5,0.5]","[0.707,0.707]",s,"[0.5562568987498991,0.6357216042947959]","[0.44374310125010086,0.36427839570520415]",257.056,259.1531,1,s,1,0.5841,,0.037870478,0.297502023,0.259631545,259.1564,259.1564,0,95,95,95,1,0.146884853,0.146884853,shape_difference3,1,,TRUE,,intensity,0.1,0.05,0.7,0.3,0.82,20,400,1E-11,3.5,0.01,0.5,0.1,,,,,,,,,,,,,,,,,,,,,,,,,,,,,,,,,,,,,,,,,,,,,,,,,,,,,,,,,,,,,,,,,,,,,,,,,,,,,,,,,
,,,,,953060,001,2025-03-17_16h04.09.188,Utility_discrimination_2024_2cat,2024.2.4,MacIntel,126.5822785,,,,,,,,1,"[0.5,0.5]","[0.924,0.383]",s,"[0.6222539778014461,0.6222539778014461]","[0.3777460221985539,0.3777460221985539]",259.1577,261.519,1,d,1,0.8509,,0.062723901,0.366202553,0.303478652,261.5215,261.5215,0,96,96,96,1,0.172919346,0.172919346,shape_difference2,1,,TRUE,,intensity,0.1,0.05,0.7,0.3,0.82,20,400,1E-11,3.5,0.01,0.5,0.1,,,,,,,,,,,,,,,,,,,,,,,,,,,,,,,,,,,,,,,,,,,,,,,,,,,,,,,,,,,,,,,,,,,,,,,,,,,,,,,,,
,,,,,953060,001,2025-03-17_16h04.09.188,Utility_discrimination_2024_2cat,2024.2.4,MacIntel,126.5822785,,,,,,,,4,"[0.5,0.5]","[0,1]",d,"[0.67695521201877,0.5733483184017196]","[0.32304478798123004,0.42665168159828043]",261.5223,264.0864,1,s,1,1.05,,0.092976185,0.333508254,0.240532069,264.0892,264.0892,0,97,97,97,1,0.19150997,0.19150997,shape_difference1,1,,TRUE,,intensity,0.1,0.05,0.7,0.3,0.82,20,400,1E-11,3.5,0.01,0.5,0.1,,,,,,,,,,,,,,,,,,,,,,,,,,,,,,,,,,,,,,,,,,,,,,,,,,,,,,,,,,,,,,,,,,,,,,,,,,,,,,,,,
,,,,,953060,001,2025-03-17_16h04.09.188,Utility_discrimination_2024_2cat,2024.2.4,MacIntel,126.5822785,,,,,,,,0,"[0.5,0.5]","[1,0]",s,"[0.5,0.688793688936056]","[0.5,0.311206311063944]",264.0904,266.3781,0,d,0,0.7751,,0.023942214,0.32884994,0.304907725,266.3799,266.3799,0,98,98,98,1,0.188793689,0.188793689,shape_difference4,1,,TRUE,,intensity,0.1,0.05,0.7,0.3,0.82,20,400,1E-11,3.5,0.01,0.5,0.1,,,,,,,,,,,,,,,,,,,,,,,,,,,,,,,,,,,,,,,,,,,,,,,,,,,,,,,,,,,,,,,,,,,,,,,,,,,,,,,,,
,,,,,953060,001,2025-03-17_16h04.09.188,Utility_discrimination_2024_2cat,2024.2.4,MacIntel,126.5822785,,,,,,,,2,"[0.5,0.5]","[0.707,0.707]",s,"[0.6690507774756072,0.5]","[0.3309492225243929,0.5]",266.3815,268.5439,1,d,1,0.6503,,0.031917363,0.289551013,0.25763365,268.5456,268.5456,0,99,99,99,1,0.169050777,0.169050777,shape_difference0,1,,TRUE,,intensity,0.1,0.05,0.7,0.3,0.82,20,400,1E-11,3.5,0.01,0.5,0.1,,,,,,,,,,,,,,,,,,,,,,,,,,,,,,,,,,,,,,,,,,,,,,,,,,,,,,,,,,,,,,,,,,,,,,,,,,,,,,,,,
,,,,,953060,001,2025-03-17_16h04.09.188,Utility_discrimination_2024_2cat,2024.2.4,MacIntel,126.5822785,,,,,,,,3,"[0.5,0.5]","[0.383,0.924]",d,"[0.6182875358697681,0.6182875358697681]","[0.38171246413023185,0.38171246413023185]",268.5465,272.0949,1,s,1,2.0333,,0.00998548,0.286364326,0.276378846,272.0979,272.098,0,100,100,100,1,0.167309103,0.167309103,shape_difference2,1,,TRUE,,intensity,0.1,0.05,0.7,0.3,0.82,20,400,1E-11,3.5,0.01,0.5,0.1,,,,,,,,,,,,,,,,,,,,,,,,,,,,,,,,,,,,,,,,,,,,,,,,,,,,,,,,,,,,,,,,,,,,,,,,,,,,,,,,,
,,,,,953060,001,2025-03-17_16h04.09.188,Utility_discrimination_2024_2cat,2024.2.4,MacIntel,126.5822785,,,,,,,,0,"[0.5,0.5]","[1,0]",s,"[0.5522366339713416,0.6260225843068399]","[0.44776336602865835,0.3739774156931601]",272.0993,274.9192,1,s,1,1.3079,,0.020311936,0.295807883,0.275495946,274.9215,274.9215,0,101,101,101,1,0.136388078,0.136388078,shape_difference3,1,,TRUE,,intensity,0.1,0.05,0.7,0.3,0.82,20,400,1E-11,3.5,0.01,0.5,0.1,,,,,,,,,,,,,,,,,,,,,,,,,,,,,,,,,,,,,,,,,,,,,,,,,,,,,,,,,,,,,,,,,,,,,,,,,,,,,,,,,
,,,,,953060,001,2025-03-17_16h04.09.188,Utility_discrimination_2024_2cat,2024.2.4,MacIntel,126.5822785,,,,,,,,1,"[0.5,0.5]","[0.924,0.383]",s,"[0.6616310461100667,0.5]","[0.33836895388993327,0.5]",274.9234,277.3783,1,s,1,0.941,,0.051024836,0.33823754,0.287212704,277.3799,277.3799,0,102,102,102,1,0.161631046,0.161631046,shape_difference0,1,,TRUE,,intensity,0.1,0.05,0.7,0.3,0.82,20,400,1E-11,3.5,0.01,0.5,0.1,,,,,,,,,,,,,,,,,,,,,,,,,,,,,,,,,,,,,,,,,,,,,,,,,,,,,,,,,,,,,,,,,,,,,,,,,,,,,,,,,
,,,,,953060,001,2025-03-17_16h04.09.188,Utility_discrimination_2024_2cat,2024.2.4,MacIntel,126.5822785,,,,,,,,4,"[0.5,0.5]","[0,1]",s,"[0.6690224745867132,0.5700601815657047]","[0.33097752541328684,0.4299398184342953]",277.3814,279.6949,1,d,1,0.8044,,0.107838724,0.382577156,0.274738431,279.6972,279.6972,0,103,103,103,1,0.182924756,0.182924756,shape_difference1,1,,TRUE,,intensity,0.1,0.05,0.7,0.3,0.82,20,400,1E-11,3.5,0.01,0.5,0.1,,,,,,,,,,,,,,,,,,,,,,,,,,,,,,,,,,,,,,,,,,,,,,,,,,,,,,,,,,,,,,,,,,,,,,,,,,,,,,,,,
,,,,,953060,001,2025-03-17_16h04.09.188,Utility_discrimination_2024_2cat,2024.2.4,MacIntel,126.5822785,,,,,,,,4,"[0.5,0.5]","[0,1]",d,"[0.5,0.7257585316656587]","[0.5,0.2742414683343412]",279.6981,281.7196,1,d,1,0.5069,,0.1064007,0.365105896,0.258705196,281.7203,281.7203,0,104,104,104,1,0.225758532,0.225758532,shape_difference4,1,,TRUE,,intensity,0.1,0.05,0.7,0.3,0.82,20,400,1E-11,3.5,0.01,0.5,0.1,,,,,,,,,,,,,,,,,,,,,,,,,,,,,,,,,,,,,,,,,,,,,,,,,,,,,,,,,,,,,,,,,,,,,,,,,,,,,,,,,
,,,,,953060,001,2025-03-17_16h04.09.188,Utility_discrimination_2024_2cat,2024.2.4,MacIntel,126.5822785,,,,,,,,3,"[0.5,0.5]","[0.383,0.924]",d,"[0.5,0.7120865447140261]","[0.5,0.2879134552859739]",281.7207,283.7288,1,d,1,0.4953,,0.008415101,0.271261779,0.262846678,283.7311,283.7311,0,105,105,105,1,0.212086545,0.212086545,shape_difference4,1,,TRUE,,intensity,0.1,0.05,0.7,0.3,0.82,20,400,1E-11,3.5,0.01,0.5,0.1,,,,,,,,,,,,,,,,,,,,,,,,,,,,,,,,,,,,,,,,,,,,,,,,,,,,,,,,,,,,,,,,,,,,,,,,,,,,,,,,,
,,,,,953060,001,2025-03-17_16h04.09.188,Utility_discrimination_2024_2cat,2024.2.4,MacIntel,126.5822785,,,,,,,,2,"[0.5,0.5]","[0.707,0.707]",d,"[0.5479031499342273,0.6155679126350547]","[0.45209685006577277,0.3844320873649453]",283.7323,286.0363,1,d,1,0.7919,,0.027226881,0.281038071,0.25381119,286.0381,286.0381,0,106,106,106,1,0.125073499,0.125073499,shape_difference3,1,,TRUE,,intensity,0.1,0.05,0.7,0.3,0.82,20,400,1E-11,3.5,0.01,0.5,0.1,,,,,,,,,,,,,,,,,,,,,,,,,,,,,,,,,,,,,,,,,,,,,,,,,,,,,,,,,,,,,,,,,,,,,,,,,,,,,,,,,
,,,,,953060,001,2025-03-17_16h04.09.188,Utility_discrimination_2024_2cat,2024.2.4,MacIntel,126.5822785,,,,,,,,1,"[0.5,0.5]","[0.924,0.383]",d,"[0.6147998609033704,0.6147998609033704]","[0.38520013909662965,0.38520013909662965]",286.0391,288.0615,1,d,1,0.5088,,0.042163946,0.301597019,0.259433073,288.0637,288.0637,0,107,107,107,1,0.162376041,0.162376041,shape_difference2,1,,TRUE,,intensity,0.1,0.05,0.7,0.3,0.82,20,400,1E-11,3.5,0.01,0.5,0.1,,,,,,,,,,,,,,,,,,,,,,,,,,,,,,,,,,,,,,,,,,,,,,,,,,,,,,,,,,,,,,,,,,,,,,,,,,,,,,,,,
,,,,,953060,001,2025-03-17_16h04.09.188,Utility_discrimination_2024_2cat,2024.2.4,MacIntel,126.5822785,,,,,,,,0,"[0.5,0.5]","[1,0]",d,"[0.6625142064698007,0.5673624903440841]","[0.33748579353019925,0.4326375096559159]",288.0648,290.1365,0,d,0,0.5583,,0.01749212,0.284440622,0.266948502,290.1383,290.1383,0,108,108,108,1,0.175881176,0.175881176,shape_difference1,1,,TRUE,,intensity,0.1,0.05,0.7,0.3,0.82,20,400,1E-11,3.5,0.01,0.5,0.1,,,,,,,,,,,,,,,,,,,,,,,,,,,,,,,,,,,,,,,,,,,,,,,,,,,,,,,,,,,,,,,,,,,,,,,,,,,,,,,,,
,,,,,953060,001,2025-03-17_16h04.09.188,Utility_discrimination_2024_2cat,2024.2.4,MacIntel,126.5822785,,,,,,,,1,"[0.5,0.5]","[0.924,0.383]",s,"[0.654975232676918,0.5]","[0.34502476732308196,0.5]",290.1392,292.3368,1,s,1,0.6834,,0.103626918,0.373386038,0.269759119,292.3397,292.3397,0,109,109,109,1,0.154975233,0.154975233,shape_difference0,1,,TRUE,,intensity,0.1,0.05,0.7,0.3,0.82,20,400,1E-11,3.5,0.01,0.5,0.1,,,,,,,,,,,,,,,,,,,,,,,,,,,,,,,,,,,,,,,,,,,,,,,,,,,,,,,,,,,,,,,,,,,,,,,,,,,,,,,,,
,,,,,953060,001,2025-03-17_16h04.09.188,Utility_discrimination_2024_2cat,2024.2.4,MacIntel,126.5822785,,,,,,,,0,"[0.5,0.5]","[1,0]",s,"[0.6895730589224662,0.5785784432546587]","[0.31042694107753377,0.4214215567453414]",292.3407,294.5031,1,d,1,0.6498,,0.015262979,0.271913793,0.256650814,294.5058,294.5059,0,110,110,110,1,0.205165648,0.205165648,shape_difference1,1,,TRUE,,intensity,0.1,0.05,0.7,0.3,0.82,20,400,1E-11,3.5,0.01,0.5,0.1,,,,,,,,,,,,,,,,,,,,,,,,,,,,,,,,,,,,,,,,,,,,,,,,,,,,,,,,,,,,,,,,,,,,,,,,,,,,,,,,,
,,,,,953060,001,2025-03-17_16h04.09.188,Utility_discrimination_2024_2cat,2024.2.4,MacIntel,126.5822785,,,,,,,,3,"[0.5,0.5]","[0.383,0.924]",d,"[0.6487517428142283,0.5]","[0.3512482571857717,0.5]",294.5068,296.8615,0,s,0,0.8407,,0.007087596,0.252767579,0.245679983,296.8634,296.8634,0,111,111,111,1,0.148751743,0.148751743,shape_difference0,1,,TRUE,,intensity,0.1,0.05,0.7,0.3,0.82,20,400,1E-11,3.5,0.01,0.5,0.1,,,,,,,,,,,,,,,,,,,,,,,,,,,,,,,,,,,,,,,,,,,,,,,,,,,,,,,,,,,,,,,,,,,,,,,,,,,,,,,,,
,,,,,953060,001,2025-03-17_16h04.09.188,Utility_discrimination_2024_2cat,2024.2.4,MacIntel,126.5822785,,,,,,,,2,"[0.5,0.5]","[0.707,0.707]",d,"[0.5431007814775737,0.603982041998115]","[0.4568992185224263,0.396017958001885]",296.8651,298.8858,0,d,0,0.5079,,0.02347914,0.271542493,0.248063353,298.8875,298.8875,0,112,112,112,1,0.112534677,0.112534677,shape_difference3,1,,TRUE,,intensity,0.1,0.05,0.7,0.3,0.82,20,400,1E-11,3.5,0.01,0.5,0.1,,,,,,,,,,,,,,,,,,,,,,,,,,,,,,,,,,,,,,,,,,,,,,,,,,,,,,,,,,,,,,,,,,,,,,,,,,,,,,,,,
,,,,,953060,001,2025-03-17_16h04.09.188,Utility_discrimination_2024_2cat,2024.2.4,MacIntel,126.5822785,,,,,,,,4,"[0.5,0.5]","[0,1]",s,"[0.6116284640661293,0.6116284640661293]","[0.38837153593387075,0.38837153593387075]",298.8884,301.2949,1,d,1,0.8905,,0.105131321,0.343363989,0.238232668,301.2966,301.2967,0,113,113,113,1,0.157890331,0.157890331,shape_difference2,1,,TRUE,,intensity,0.1,0.05,0.7,0.3,0.82,20,400,1E-11,3.5,0.01,0.5,0.1,,,,,,,,,,,,,,,,,,,,,,,,,,,,,,,,,,,,,,,,,,,,,,,,,,,,,,,,,,,,,,,,,,,,,,,,,,,,,,,,,
,,,,,953060,001,2025-03-17_16h04.09.188,Utility_discrimination_2024_2cat,2024.2.4,MacIntel,126.5822785,,,,,,,,4,"[0.5,0.5]","[0,1]",d,"[0.5,0.698155009780784]","[0.5,0.30184499021921596]",301.2976,303.5443,1,d,1,0.7334,,0.103967462,0.315584328,0.211616867,303.5462,303.5462,0,114,114,114,1,0.19815501,0.19815501,shape_difference4,1,,TRUE,,intensity,0.1,0.05,0.7,0.3,0.82,20,400,1E-11,3.5,0.01,0.5,0.1,,,,,,,,,,,,,,,,,,,,,,,,,,,,,,,,,,,,,,,,,,,,,,,,,,,,,,,,,,,,,,,,,,,,,,,,,,,,,,,,,
,,,,,953060,001,2025-03-17_16h04.09.188,Utility_discrimination_2024_2cat,2024.2.4,MacIntel,126.5822785,,,,,,,,2,"[0.5,0.5]","[0.707,0.707]",d,"[0.5,0.6902184168843817]","[0.5,0.30978158311561826]",303.5471,305.9782,1,s,1,0.9202,,0.020447252,0.260564735,0.240117483,305.9789,305.9789,0,115,115,115,1,0.190218417,0.190218417,shape_difference4,1,,TRUE,,intensity,0.1,0.05,0.7,0.3,0.82,20,400,1E-11,3.5,0.01,0.5,0.1,,,,,,,,,,,,,,,,,,,,,,,,,,,,,,,,,,,,,,,,,,,,,,,,,,,,,,,,,,,,,,,,,,,,,,,,,,,,,,,,,
,,,,,953060,001,2025-03-17_16h04.09.188,Utility_discrimination_2024_2cat,2024.2.4,MacIntel,126.5822785,,,,,,,,3,"[0.5,0.5]","[0.383,0.924]",s,"[0.608642333389692,0.608642333389692]","[0.39135766661030796,0.39135766661030796]",305.9793,308.0691,1,d,1,0.5745,,0.012394736,0.286717787,0.274323051,308.0708,308.0709,0,116,116,116,1,0.153666667,0.153666667,shape_difference2,1,,TRUE,,intensity,0.1,0.05,0.7,0.3,0.82,20,400,1E-11,3.5,0.01,0.5,0.1,,,,,,,,,,,,,,,,,,,,,,,,,,,,,,,,,,,,,,,,,,,,,,,,,,,,,,,,,,,,,,,,,,,,,,,,,,,,,,,,,
,,,,,953060,001,2025-03-17_16h04.09.188,Utility_discrimination_2024_2cat,2024.2.4,MacIntel,126.5822785,,,,,,,,0,"[0.5,0.5]","[1,0]",d,"[0.5549193055423565,0.6324946170264684]","[0.44508069445764353,0.36750538297353164]",308.0719,310.5031,1,s,1,0.9156,,0.024998313,0.289460691,0.264462378,310.5049,310.5049,0,117,117,117,1,0.143392443,0.143392443,shape_difference3,1,,TRUE,,intensity,0.1,0.05,0.7,0.3,0.82,20,400,1E-11,3.5,0.01,0.5,0.1,,,,,,,,,,,,,,,,,,,,,,,,,,,,,,,,,,,,,,,,,,,,,,,,,,,,,,,,,,,,,,,,,,,,,,,,,,,,,,,,,
,,,,,953060,001,2025-03-17_16h04.09.188,Utility_discrimination_2024_2cat,2024.2.4,MacIntel,126.5822785,,,,,,,,1,"[0.5,0.5]","[0.924,0.383]",s,"[0.6630707454793481,0.5]","[0.336929254520652,0.5]",310.506,312.7866,1,d,1,0.7673,,0.102030017,0.350770273,0.248740256,312.7887,312.7887,0,118,118,118,1,0.163070745,0.163070745,shape_difference0,1,,TRUE,,intensity,0.1,0.05,0.7,0.3,0.82,20,400,1E-11,3.5,0.01,0.5,0.1,,,,,,,,,,,,,,,,,,,,,,,,,,,,,,,,,,,,,,,,,,,,,,,,,,,,,,,,,,,,,,,,,,,,,,,,,,,,,,,,,
,,,,,953060,001,2025-03-17_16h04.09.188,Utility_discrimination_2024_2cat,2024.2.4,MacIntel,126.5822785,,,,,,,,3,"[0.5,0.5]","[0.383,0.924]",d,"[0.6788068609448117,0.574115830889462]","[0.3211931390551883,0.425884169110538]",312.7898,315.5615,1,s,1,1.2584,,0.010716291,0.273206633,0.262490342,315.5632,315.5632,0,119,119,119,1,0.193513919,0.193513919,shape_difference1,1,,TRUE,,intensity,0.1,0.05,0.7,0.3,0.82,20,400,1E-11,3.5,0.01,0.5,0.1,,,,,,,,,,,,,,,,,,,,,,,,,,,,,,,,,,,,,,,,,,,,,,,,,,,,,,,,,,,,,,,,,,,,,,,,,,,,,,,,,
,,,,,953060,001,2025-03-17_16h04.09.188,Utility_discrimination_2024_2cat,2024.2.4,MacIntel,126.5822785,,,,,,,,4,"[0.5,0.5]","[0,1]",s,"[0.5512931189273095,0.6237463234695404]","[0.44870688107269047,0.37625367653045955]",315.5641,318.2112,1,d,1,1.1338,,0.102858712,0.297264535,0.194405823,318.2131,318.2131,0,120,120,120,1,0.133924592,0.133924592,shape_difference3,1,,TRUE,,intensity,0.1,0.05,0.7,0.3,0.82,20,400,1E-11,3.5,0.01,0.5,0.1,,,,,,,,,,,,,,,,,,,,,,,,,,,,,,,,,,,,,,,,,,,,,,,,,,,,,,,,,,,,,,,,,,,,,,,,,,,,,,,,,
,,,,,953060,001,2025-03-17_16h04.09.188,Utility_discrimination_2024_2cat,2024.2.4,MacIntel,126.5822785,,,,,,,,0,"[0.5,0.5]","[1,0]",d,"[0.5,0.6838235341264308]","[0.5,0.3161764658735692]",318.2139,320.5198,1,d,1,0.7914,,0.0215447,0.279117707,0.257573006,320.5218,320.5219,0,121,121,121,1,0.183823534,0.183823534,shape_difference4,1,,TRUE,,intensity,0.1,0.05,0.7,0.3,0.82,20,400,1E-11,3.5,0.01,0.5,0.1,,,,,,,,,,,,,,,,,,,,,,,,,,,,,,,,,,,,,,,,,,,,,,,,,,,,,,,,,,,,,,,,,,,,,,,,,,,,,,,,,
,,,,,953060,001,2025-03-17_16h04.09.188,Utility_discrimination_2024_2cat,2024.2.4,MacIntel,126.5822785,,,,,,,,1,"[0.5,0.5]","[0.924,0.383]",d,"[0.6577405330352377,0.5]","[0.3422594669647623,0.5]",320.5229,322.694,0,d,0,0.6589,,0.100476133,0.321916913,0.22144078,322.6961,322.6961,0,122,122,122,1,0.157740533,0.157740533,shape_difference0,1,,TRUE,,intensity,0.1,0.05,0.7,0.3,0.82,20,400,1E-11,3.5,0.01,0.5,0.1,,,,,,,,,,,,,,,,,,,,,,,,,,,,,,,,,,,,,,,,,,,,,,,,,,,,,,,,,,,,,,,,,,,,,,,,,,,,,,,,,
,,,,,953060,001,2025-03-17_16h04.09.188,Utility_discrimination_2024_2cat,2024.2.4,MacIntel,126.5822785,,,,,,,,2,"[0.5,0.5]","[0.707,0.707]",s,"[0.6717661283186755,0.5711974319762475]","[0.32823387168132445,0.42880256802375244]",322.6971,324.6946,1,s,1,0.4814,,0.017967557,0.24748922,0.229521663,324.6957,324.6957,0,123,123,123,1,0.185894078,0.185894078,shape_difference1,1,,TRUE,,intensity,0.1,0.05,0.7,0.3,0.82,20,400,1E-11,3.5,0.01,0.5,0.1,,,,,,,,,,,,,,,,,,,,,,,,,,,,,,,,,,,,,,,,,,,,,,,,,,,,,,,,,,,,,,,,,,,,,,,,,,,,,,,,,
,,,,,953060,001,2025-03-17_16h04.09.188,Utility_discrimination_2024_2cat,2024.2.4,MacIntel,126.5822785,,,,,,,,4,"[0.5,0.5]","[0,1]",s,"[0.6057318954987642,0.6057318954987642]","[0.39426810450123584,0.39426810450123584]",324.696,326.8032,1,s,1,0.592,,0.101763171,0.292113609,0.190350438,326.8057,326.8057,0,124,124,124,1,0.149550064,0.149550064,shape_difference2,1,,TRUE,,intensity,0.1,0.05,0.7,0.3,0.82,20,400,1E-11,3.5,0.01,0.5,0.1,,,,,,,,,,,,,,,,,,,,,,,,,,,,,,,,,,,,,,,,,,,,,,,,,,,,,,,,,,,,,,,,,,,,,,,,,,,,,,,,,
,,,,,953060,001,2025-03-17_16h04.09.188,Utility_discrimination_2024_2cat,2024.2.4,MacIntel,126.5822785,,,,,,,,2,"[0.5,0.5]","[0.707,0.707]",s,"[0.5,0.678613364265513]","[0.5,0.32138663573448695]",326.8075,329.0032,1,d,1,0.6835,,0.015501831,0.233863239,0.218361408,329.0055,329.0055,0,125,125,125,1,0.178613364,0.178613364,shape_difference4,1,,TRUE,,intensity,0.1,0.05,0.7,0.3,0.82,20,400,1E-11,3.5,0.01,0.5,0.1,,,,,,,,,,,,,,,,,,,,,,,,,,,,,,,,,,,,,,,,,,,,,,,,,,,,,,,,,,,,,,,,,,,,,,,,,,,,,,,,,
,,,,,953060,001,2025-03-17_16h04.09.188,Utility_discrimination_2024_2cat,2024.2.4,MacIntel,126.5822785,,,,,,,,0,"[0.5,0.5]","[1,0]",d,"[0.6024446908909022,0.6024446908909022]","[0.39755530910909775,0.39755530910909775]",329.0064,331.8115,1,s,1,1.2937,,0.071138623,0.322627965,0.251489342,331.814,331.814,0,126,126,126,1,0.144900553,0.144900553,shape_difference2,1,,TRUE,,intensity,0.1,0.05,0.7,0.3,0.82,20,400,1E-11,3.5,0.01,0.5,0.1,,,,,,,,,,,,,,,,,,,,,,,,,,,,,,,,,,,,,,,,,,,,,,,,,,,,,,,,,,,,,,,,,,,,,,,,,,,,,,,,,
,,,,,953060,001,2025-03-17_16h04.09.188,Utility_discrimination_2024_2cat,2024.2.4,MacIntel,126.5822785,,,,,,,,3,"[0.5,0.5]","[0.383,0.924]",s,"[0.6804875832974773,0.5]","[0.31951241670252273,0.5]",331.8159,334.1698,1,s,1,0.8416,,0.009357952,0.256834279,0.247476327,334.172,334.172,0,127,127,127,1,0.180487583,0.180487583,shape_difference0,1,,TRUE,,intensity,0.1,0.05,0.7,0.3,0.82,20,400,1E-11,3.5,0.01,0.5,0.1,,,,,,,,,,,,,,,,,,,,,,,,,,,,,,,,,,,,,,,,,,,,,,,,,,,,,,,,,,,,,,,,,,,,,,,,,,,,,,,,,
,,,,,953060,001,2025-03-17_16h04.09.188,Utility_discrimination_2024_2cat,2024.2.4,MacIntel,126.5822785,,,,,,,,1,"[0.5,0.5]","[0.924,0.383]",s,"[0.5473256373321586,0.6141746446342417]","[0.4526743626678414,0.3858253553657584]",334.1733,336.3531,1,s,1,0.666,,0.087241146,0.297641876,0.21040073,336.3553,336.3553,0,128,128,128,1,0.123565633,0.123565633,shape_difference3,1,,TRUE,,intensity,0.1,0.05,0.7,0.3,0.82,20,400,1E-11,3.5,0.01,0.5,0.1,,,,,,,,,,,,,,,,,,,,,,,,,,,,,,,,,,,,,,,,,,,,,,,,,,,,,,,,,,,,,,,,,,,,,,,,,,,,,,,,,
,,,,,953060,001,2025-03-17_16h04.09.188,Utility_discrimination_2024_2cat,2024.2.4,MacIntel,126.5822785,,,,,,,,1,"[0.5,0.5]","[0.924,0.383]",s,"[0.6660677910524584,0.5688354588453371]","[0.3339322089475416,0.43116454115466285]",336.3564,338.536,1,s,1,0.6667,,0.072381995,0.291456939,0.219074944,338.5381,338.5381,0,129,129,129,1,0.179727047,0.179727047,shape_difference1,1,,TRUE,,intensity,0.1,0.05,0.7,0.3,0.82,20,400,1E-11,3.5,0.01,0.5,0.1,,,,,,,,,,,,,,,,,,,,,,,,,,,,,,,,,,,,,,,,,,,,,,,,,,,,,,,,,,,,,,,,,,,,,,,,,,,,,,,,,
,,,,,953060,001,2025-03-17_16h04.09.188,Utility_discrimination_2024_2cat,2024.2.4,MacIntel,126.5822785,,,,,,,,2,"[0.5,0.5]","[0.707,0.707]",s,"[0.6613793176408642,0.5668920764680205]","[0.3386206823591357,0.4331079235319794]",338.5391,340.6941,1,d,1,0.6414,,0.013480791,0.216831659,0.203350868,340.6962,340.6963,0,130,130,130,1,0.174652941,0.174652941,shape_difference1,1,,TRUE,,intensity,0.1,0.05,0.7,0.3,0.82,20,400,1E-11,3.5,0.01,0.5,0.1,,,,,,,,,,,,,,,,,,,,,,,,,,,,,,,,,,,,,,,,,,,,,,,,,,,,,,,,,,,,,,,,,,,,,,,,,,,,,,,,,
,,,,,953060,001,2025-03-17_16h04.09.188,Utility_discrimination_2024_2cat,2024.2.4,MacIntel,126.5822785,,,,,,,,4,"[0.5,0.5]","[0,1]",d,"[0.5987774357136421,0.5987774357136421]","[0.40122256428635794,0.40122256428635794]",340.6972,342.9529,1,d,1,0.745,,0.100644406,0.286740983,0.186096577,342.9539,342.9539,0,131,131,131,1,0.139713488,0.139713488,shape_difference2,1,,TRUE,,intensity,0.1,0.05,0.7,0.3,0.82,20,400,1E-11,3.5,0.01,0.5,0.1,,,,,,,,,,,,,,,,,,,,,,,,,,,,,,,,,,,,,,,,,,,,,,,,,,,,,,,,,,,,,,,,,,,,,,,,,,,,,,,,,
,,,,,953060,001,2025-03-17_16h04.09.188,Utility_discrimination_2024_2cat,2024.2.4,MacIntel,126.5822785,,,,,,,,3,"[0.5,0.5]","[0.383,0.924]",d,"[0.5,0.6743165612377254]","[0.5,0.32568343876227457]",342.9545,345.3779,0,d,0,0.9067,,0.008238946,0.236444878,0.228205932,345.3786,345.3786,0,132,132,132,1,0.174316561,0.174316561,shape_difference4,1,,TRUE,,intensity,0.1,0.05,0.7,0.3,0.82,20,400,1E-11,3.5,0.01,0.5,0.1,,,,,,,,,,,,,,,,,,,,,,,,,,,,,,,,,,,,,,,,,,,,,,,,,,,,,,,,,,,,,,,,,,,,,,,,,,,,,,,,,
,,,,,953060,001,2025-03-17_16h04.09.188,Utility_discrimination_2024_2cat,2024.2.4,MacIntel,126.5822785,,,,,,,,0,"[0.5,0.5]","[1,0]",s,"[0.5428805313873034,0.6034506814670193]","[0.45711946861269653,0.3965493185329807]",345.3789,347.7358,1,d,1,0.842,,0.058913542,0.296782507,0.237868964,347.7376,347.7377,0,133,133,133,1,0.111959612,0.111959612,shape_difference3,1,,TRUE,,intensity,0.1,0.05,0.7,0.3,0.82,20,400,1E-11,3.5,0.01,0.5,0.1,,,,,,,,,,,,,,,,,,,,,,,,,,,,,,,,,,,,,,,,,,,,,,,,,,,,,,,,,,,,,,,,,,,,,,,,,,,,,,,,,
,,,,,953060,001,2025-03-17_16h04.09.188,Utility_discrimination_2024_2cat,2024.2.4,MacIntel,126.5822785,,,,,,,,4,"[0.5,0.5]","[0,1]",d,"[0.6747649900257926,0.5]","[0.3252350099742074,0.5]",347.7385,350.0864,1,s,1,0.834,,0.106032894,0.299318284,0.193285389,350.0884,350.0884,0,134,134,134,1,0.17476499,0.17476499,shape_difference0,1,,TRUE,,intensity,0.1,0.05,0.7,0.3,0.82,20,400,1E-11,3.5,0.01,0.5,0.1,,,,,,,,,,,,,,,,,,,,,,,,,,,,,,,,,,,,,,,,,,,,,,,,,,,,,,,,,,,,,,,,,,,,,,,,,,,,,,,,,
,,,,,953060,001,2025-03-17_16h04.09.188,Utility_discrimination_2024_2cat,2024.2.4,MacIntel,126.5822785,,,,,,,,3,"[0.5,0.5]","[0.383,0.924]",s,"[0.5,0.6907885650440108]","[0.5,0.30921143495598924]",350.0894,352.2612,1,d,1,0.6552,,0.007298256,0.210471088,0.203172832,352.2625,352.2625,0,135,135,135,1,0.190788565,0.190788565,shape_difference4,1,,TRUE,,intensity,0.1,0.05,0.7,0.3,0.82,20,400,1E-11,3.5,0.01,0.5,0.1,,,,,,,,,,,,,,,,,,,,,,,,,,,,,,,,,,,,,,,,,,,,,,,,,,,,,,,,,,,,,,,,,,,,,,,,,,,,,,,,,
,,,,,953060,001,2025-03-17_16h04.09.188,Utility_discrimination_2024_2cat,2024.2.4,MacIntel,126.5822785,,,,,,,,1,"[0.5,0.5]","[0.924,0.383]",d,"[0.5380044373354043,0.5916869454253618]","[0.4619955626645957,0.4083130545746382]",352.2632,354.4701,0,d,0,0.6956,,0.060693608,0.284972317,0.224278709,354.472,354.472,0,136,136,136,1,0.099228296,0.099228296,shape_difference3,1,,TRUE,,intensity,0.1,0.05,0.7,0.3,0.82,20,400,1E-11,3.5,0.01,0.5,0.1,,,,,,,,,,,,,,,,,,,,,,,,,,,,,,,,,,,,,,,,,,,,,,,,,,,,,,,,,,,,,,,,,,,,,,,,,,,,,,,,,
,,,,,953060,001,2025-03-17_16h04.09.188,Utility_discrimination_2024_2cat,2024.2.4,MacIntel,126.5822785,,,,,,,,2,"[0.5,0.5]","[0.707,0.707]",s,"[0.6574492610296251,0.5652630594960459]","[0.3425507389703749,0.43473694050395406]",354.4729,356.8693,1,d,1,0.8819,,0.011811951,0.199614644,0.187802693,356.8709,356.8709,0,137,137,137,1,0.170399633,0.170399633,shape_difference1,1,,TRUE,,intensity,0.1,0.05,0.7,0.3,0.82,20,400,1E-11,3.5,0.01,0.5,0.1,,,,,,,,,,,,,,,,,,,,,,,,,,,,,,,,,,,,,,,,,,,,,,,,,,,,,,,,,,,,,,,,,,,,,,,,,,,,,,,,,
,,,,,953060,001,2025-03-17_16h04.09.188,Utility_discrimination_2024_2cat,2024.2.4,MacIntel,126.5822785,,,,,,,,0,"[0.5,0.5]","[1,0]",d,"[0.5946122409702294,0.5946122409702294]","[0.40538775902977064,0.40538775902977064]",356.8718,359.0697,1,d,1,0.6845,,0.049391381,0.289196938,0.239805557,359.0715,359.0715,0,138,138,138,1,0.133822123,0.133822123,shape_difference2,1,,TRUE,,intensity,0.1,0.05,0.7,0.3,0.82,20,400,1E-11,3.5,0.01,0.5,0.1,,,,,,,,,,,,,,,,,,,,,,,,,,,,,,,,,,,,,,,,,,,,,,,,,,,,,,,,,,,,,,,,,,,,,,,,,,,,,,,,,
,,,,,953060,001,2025-03-17_16h04.09.188,Utility_discrimination_2024_2cat,2024.2.4,MacIntel,126.5822785,,,,,,,,0,"[0.5,0.5]","[1,0]",d,"[0.669995048976783,0.5]","[0.3300049510232171,0.5]",359.0731,361.5942,1,s,1,1.0072,,0.041861578,0.281168052,0.239306474,361.5964,361.5964,0,139,139,139,1,0.169995049,0.169995049,shape_difference0,1,,TRUE,,intensity,0.1,0.05,0.7,0.3,0.82,20,400,1E-11,3.5,0.01,0.5,0.1,,,,,,,,,,,,,,,,,,,,,,,,,,,,,,,,,,,,,,,,,,,,,,,,,,,,,,,,,,,,,,,,,,,,,,,,,,,,,,,,,
,,,,,953060,001,2025-03-17_16h04.09.188,Utility_discrimination_2024_2cat,2024.2.4,MacIntel,126.5822785,,,,,,,,4,"[0.5,0.5]","[0,1]",s,"[0.6659161006956211,0.5]","[0.33408389930437893,0.5]",361.5973,363.9197,1,s,1,0.8096,,0.105261974,0.294915635,0.189653661,363.9224,363.9225,0,140,140,140,1,0.165916101,0.165916101,shape_difference0,1,,TRUE,,intensity,0.1,0.05,0.7,0.3,0.82,20,400,1E-11,3.5,0.01,0.5,0.1,,,,,,,,,,,,,,,,,,,,,,,,,,,,,,,,,,,,,,,,,,,,,,,,,,,,,,,,,,,,,,,,,,,,,,,,,,,,,,,,,
,,,,,953060,001,2025-03-17_16h04.09.188,Utility_discrimination_2024_2cat,2024.2.4,MacIntel,126.5822785,,,,,,,,2,"[0.5,0.5]","[0.707,0.707]",s,"[0.5,0.6847157594204447]","[0.5,0.3152842405795553]",363.9235,366.3029,1,s,1,0.8676,,0.010422285,0.197718761,0.187296477,366.3052,366.3052,0,141,141,141,1,0.184715759,0.184715759,shape_difference4,1,,TRUE,,intensity,0.1,0.05,0.7,0.3,0.82,20,400,1E-11,3.5,0.01,0.5,0.1,,,,,,,,,,,,,,,,,,,,,,,,,,,,,,,,,,,,,,,,,,,,,,,,,,,,,,,,,,,,,,,,,,,,,,,,,,,,,,,,,
,,,,,953060,001,2025-03-17_16h04.09.188,Utility_discrimination_2024_2cat,2024.2.4,MacIntel,126.5822785,,,,,,,,1,"[0.5,0.5]","[0.924,0.383]",s,"[0.5898134938264289,0.5898134938264289]","[0.41018650617357116,0.41018650617357116]",366.3061,368.2939,1,d,1,0.4753,,0.051378458,0.277923597,0.226545139,368.2962,368.2963,0,142,142,142,1,0.127034645,0.127034645,shape_difference2,1,,TRUE,,intensity,0.1,0.05,0.7,0.3,0.82,20,400,1E-11,3.5,0.01,0.5,0.1,,,,,,,,,,,,,,,,,,,,,,,,,,,,,,,,,,,,,,,,,,,,,,,,,,,,,,,,,,,,,,,,,,,,,,,,,,,,,,,,,
,,,,,953060,001,2025-03-17_16h04.09.188,Utility_discrimination_2024_2cat,2024.2.4,MacIntel,126.5822785,,,,,,,,3,"[0.5,0.5]","[0.383,0.924]",d,"[0.6540841533860575,0.5638682150940044]","[0.3459158466139425,0.43613178490599563]",368.2971,370.4613,0,d,0,0.65,,0.011008996,0.259605389,0.248596393,370.4638,370.4639,0,143,143,143,1,0.166757742,0.166757742,shape_difference1,1,,TRUE,,intensity,0.1,0.05,0.7,0.3,0.82,20,400,1E-11,3.5,0.01,0.5,0.1,,,,,,,,,,,,,,,,,,,,,,,,,,,,,,,,,,,,,,,,,,,,,,,,,,,,,,,,,,,,,,,,,,,,,,,,,,,,,,,,,
,,,,,953060,001,2025-03-17_16h04.09.188,Utility_discrimination_2024_2cat,2024.2.4,MacIntel,126.5822785,,,,,,,,0,"[0.5,0.5]","[1,0]",s,"[0.5505698888188465,0.6220015072287577]","[0.4494301111811535,0.3779984927712423]",370.4649,372.7612,1,d,1,0.7834,,0.03582686,0.272337462,0.236510602,372.7636,372.7637,0,144,144,144,1,0.132036263,0.132036263,shape_difference3,1,,TRUE,,intensity,0.1,0.05,0.7,0.3,0.82,20,400,1E-11,3.5,0.01,0.5,0.1,,,,,,,,,,,,,,,,,,,,,,,,,,,,,,,,,,,,,,,,,,,,,,,,,,,,,,,,,,,,,,,,,,,,,,,,,,,,,,,,,
,,,,,953060,001,2025-03-17_16h04.09.188,Utility_discrimination_2024_2cat,2024.2.4,MacIntel,126.5822785,,,,,,,,1,"[0.5,0.5]","[0.924,0.383]",d,"[0.6623268576118206,0.5]","[0.3376731423881793,0.5]",372.7648,374.9947,1,d,1,0.7167,,0.103352012,0.295102187,0.191750176,374.9971,374.9972,0,145,145,145,1,0.162326858,0.162326858,shape_difference0,1,,TRUE,,intensity,0.1,0.05,0.7,0.3,0.82,20,400,1E-11,3.5,0.01,0.5,0.1,,,,,,,,,,,,,,,,,,,,,,,,,,,,,,,,,,,,,,,,,,,,,,,,,,,,,,,,,,,,,,,,,,,,,,,,,,,,,,,,,
,,,,,953060,001,2025-03-17_16h04.09.188,Utility_discrimination_2024_2cat,2024.2.4,MacIntel,126.5822785,,,,,,,,4,"[0.5,0.5]","[0,1]",d,"[0.6676194444577712,0.5694786225403965]","[0.3323805555422288,0.4305213774596035]",374.9981,377.1031,1,d,1,0.5916,,0.104547928,0.29042171,0.185873781,377.1063,377.1063,0,146,146,146,1,0.181406325,0.181406325,shape_difference1,1,,TRUE,,intensity,0.1,0.05,0.7,0.3,0.82,20,400,1E-11,3.5,0.01,0.5,0.1,,,,,,,,,,,,,,,,,,,,,,,,,,,,,,,,,,,,,,,,,,,,,,,,,,,,,,,,,,,,,,,,,,,,,,,,,,,,,,,,,
,,,,,953060,001,2025-03-17_16h04.09.188,Utility_discrimination_2024_2cat,2024.2.4,MacIntel,126.5822785,,,,,,,,3,"[0.5,0.5]","[0.383,0.924]",d,"[0.5,0.6797788284873221]","[0.5,0.3202211715126779]",377.1073,379.1689,1,d,1,0.549,,0.009766113,0.241450372,0.231684259,379.1717,379.1717,0,147,147,147,1,0.179778828,0.179778828,shape_difference4,1,,TRUE,,intensity,0.1,0.05,0.7,0.3,0.82,20,400,1E-11,3.5,0.01,0.5,0.1,,,,,,,,,,,,,,,,,,,,,,,,,,,,,,,,,,,,,,,,,,,,,,,,,,,,,,,,,,,,,,,,,,,,,,,,,,,,,,,,,
,,,,,953060,001,2025-03-17_16h04.09.188,Utility_discrimination_2024_2cat,2024.2.4,MacIntel,126.5822785,,,,,,,,2,"[0.5,0.5]","[0.707,0.707]",d,"[0.546876520806727,0.6130911363587878]","[0.45312347919327306,0.38690886364121224]",379.1729,381.3197,1,d,1,0.6334,,0.009253585,0.195838235,0.18658465,381.3228,381.3229,0,148,148,148,1,0.122393005,0.122393005,shape_difference3,1,,TRUE,,intensity,0.1,0.05,0.7,0.3,0.82,20,400,1E-11,3.5,0.01,0.5,0.1,,,,,,,,,,,,,,,,,,,,,,,,,,,,,,,,,,,,,,,,,,,,,,,,,,,,,,,,,,,,,,,,,,,,,,,,,,,,,,,,,
,,,,,953060,001,2025-03-17_16h04.09.188,Utility_discrimination_2024_2cat,2024.2.4,MacIntel,126.5822785,,,,,,,,0,"[0.5,0.5]","[1,0]",d,"[0.5842231078664974,0.5842231078664974]","[0.41577689213350255,0.41577689213350255]",381.3239,383.4521,0,d,0,0.6174,,0.03093312,0.262292247,0.231359128,383.4545,383.4545,0,149,149,149,1,0.119127451,0.119127451,shape_difference2,1,,TRUE,,intensity,0.1,0.05,0.7,0.3,0.82,20,400,1E-11,3.5,0.01,0.5,0.1,,,,,,,,,,,,,,,,,,,,,,,,,,,,,,,,,,,,,,,,,,,,,,,,,,,,,,,,,,,,,,,,,,,,,,,,,,,,,,,,,
,,,,,953060,001,2025-03-17_16h04.09.188,Utility_discrimination_2024_2cat,2024.2.4,MacIntel,126.5822785,,,,,,,,2,"[0.5,0.5]","[0.707,0.707]",s,"[0.6590684184788941,0.5]","[0.3409315815211059,0.5]",383.4555,385.5781,1,s,1,0.6085,,0.013814014,0.200074151,0.186260138,385.5807,385.5807,0,150,150,150,1,0.159068418,0.159068418,shape_difference0,1,,TRUE,,intensity,0.1,0.05,0.7,0.3,0.82,20,400,1E-11,3.5,0.01,0.5,0.1,,,,,,,,,,,,,,,,,,,,,,,,,,,,,,,,,,,,,,,,,,,,,,,,,,,,,,,,,,,,,,,,,,,,,,,,,,,,,,,,,
,,,,,953060,001,2025-03-17_16h04.09.188,Utility_discrimination_2024_2cat,2024.2.4,MacIntel,126.5822785,,,,,,,,1,"[0.5,0.5]","[0.924,0.383]",s,"[0.5984838287479177,0.5984838287479177]","[0.4015161712520823,0.4015161712520823]",385.5817,387.5947,1,s,1,0.4995,,0.10241233,0.28982885,0.18741652,387.5964,387.5964,0,151,151,151,1,0.139298202,0.139298202,shape_difference2,1,,TRUE,,intensity,0.1,0.05,0.7,0.3,0.82,20,400,1E-11,3.5,0.01,0.5,0.1,,,,,,,,,,,,,,,,,,,,,,,,,,,,,,,,,,,,,,,,,,,,,,,,,,,,,,,,,,,,,,,,,,,,,,,,,,,,,,,,,
,,,,,953060,001,2025-03-17_16h04.09.188,Utility_discrimination_2024_2cat,2024.2.4,MacIntel,126.5822785,,,,,,,,4,"[0.5,0.5]","[0,1]",s,"[0.6633321132012213,0.5677015144546188]","[0.3366678867987786,0.4322984855453812]",387.5978,389.8021,1,d,1,0.6921,,0.10386403,0.285684027,0.181819996,389.8038,389.8039,0,152,152,152,1,0.176766356,0.176766356,shape_difference1,1,,TRUE,,intensity,0.1,0.05,0.7,0.3,0.82,20,400,1E-11,3.5,0.01,0.5,0.1,,,,,,,,,,,,,,,,,,,,,,,,,,,,,,,,,,,,,,,,,,,,,,,,,,,,,,,,,,,,,,,,,,,,,,,,,,,,,,,,,
,,,,,953060,001,2025-03-17_16h04.09.188,Utility_discrimination_2024_2cat,2024.2.4,MacIntel,126.5822785,,,,,,,,3,"[0.5,0.5]","[0.383,0.924]",d,"[0.5,0.6757340808960877]","[0.5,0.32426591910391234]",389.8048,391.9362,1,s,1,0.6153,,0.008753564,0.21853196,0.209778396,391.9379,391.9379,0,153,153,153,1,0.175734081,0.175734081,shape_difference4,1,,TRUE,,intensity,0.1,0.05,0.7,0.3,0.82,20,400,1E-11,3.5,0.01,0.5,0.1,,,,,,,,,,,,,,,,,,,,,,,,,,,,,,,,,,,,,,,,,,,,,,,,,,,,,,,,,,,,,,,,,,,,,,,,,,,,,,,,,
,,,,,953060,001,2025-03-17_16h04.09.188,Utility_discrimination_2024_2cat,2024.2.4,MacIntel,126.5822785,,,,,,,,1,"[0.5,0.5]","[0.924,0.383]",s,"[0.5426955435300583,0.6030043922239527]","[0.45730445646994167,0.39699560777604725]",391.9389,394.1445,0,s,0,0.692,,0.101457529,0.284266794,0.182809264,394.1466,394.1466,0,154,154,154,1,0.111476615,0.111476615,shape_difference3,1,,TRUE,,intensity,0.1,0.05,0.7,0.3,0.82,20,400,1E-11,3.5,0.01,0.5,0.1,,,,,,,,,,,,,,,,,,,,,,,,,,,,,,,,,,,,,,,,,,,,,,,,,,,,,,,,,,,,,,,,,,,,,,,,,,,,,,,,,
,,,,,953060,001,2025-03-17_16h04.09.188,Utility_discrimination_2024_2cat,2024.2.4,MacIntel,126.5822785,,,,,,,,3,"[0.5,0.5]","[0.383,0.924]",d,"[0.6597965813370743,0.5662360288442635]","[0.3402034186629257,0.4337639711557365]",394.1482,397.0278,1,s,1,1.3673,,0.012583828,0.261507394,0.248923567,397.0291,397.0291,0,155,155,155,1,0.172940023,0.172940023,shape_difference1,1,,TRUE,,intensity,0.1,0.05,0.7,0.3,0.82,20,400,1E-11,3.5,0.01,0.5,0.1,,,,,,,,,,,,,,,,,,,,,,,,,,,,,,,,,,,,,,,,,,,,,,,,,,,,,,,,,,,,,,,,,,,,,,,,,,,,,,,,,
,,,,,953060,001,2025-03-17_16h04.09.188,Utility_discrimination_2024_2cat,2024.2.4,MacIntel,126.5822785,,,,,,,,0,"[0.5,0.5]","[1,0]",s,"[0.5531351988403278,0.6281904013797988]","[0.4468648011596722,0.37180959862020124]",397.0297,399.3778,1,s,1,0.8323,,0.026923851,0.250537597,0.223613746,399.3788,399.3788,0,156,156,156,1,0.138734201,0.138734201,shape_difference3,1,,TRUE,,intensity,0.1,0.05,0.7,0.3,0.82,20,400,1E-11,3.5,0.01,0.5,0.1,,,,,,,,,,,,,,,,,,,,,,,,,,,,,,,,,,,,,,,,,,,,,,,,,,,,,,,,,,,,,,,,,,,,,,,,,,,,,,,,,
,,,,,953060,001,2025-03-17_16h04.09.188,Utility_discrimination_2024_2cat,2024.2.4,MacIntel,126.5822785,,,,,,,,4,"[0.5,0.5]","[0,1]",s,"[0.6560114979818366,0.5]","[0.34398850201816344,0.5]",399.3791,401.5521,1,s,1,0.6591,,0.103187255,0.280540083,0.177352828,401.555,401.5551,0,157,157,157,1,0.156011498,0.156011498,shape_difference0,1,,TRUE,,intensity,0.1,0.05,0.7,0.3,0.82,20,400,1E-11,3.5,0.01,0.5,0.1,,,,,,,,,,,,,,,,,,,,,,,,,,,,,,,,,,,,,,,,,,,,,,,,,,,,,,,,,,,,,,,,,,,,,,,,,,,,,,,,,
,,,,,953060,001,2025-03-17_16h04.09.188,Utility_discrimination_2024_2cat,2024.2.4,MacIntel,126.5822785,,,,,,,,2,"[0.5,0.5]","[0.707,0.707]",s,"[0.5,0.6723925000951496]","[0.5,0.3276074999048504]",401.556,403.5694,1,d,1,0.5001,,0.012196271,0.198294577,0.186098306,403.572,403.5721,0,158,158,158,1,0.1723925,0.1723925,shape_difference4,1,,TRUE,,intensity,0.1,0.05,0.7,0.3,0.82,20,400,1E-11,3.5,0.01,0.5,0.1,,,,,,,,,,,,,,,,,,,,,,,,,,,,,,,,,,,,,,,,,,,,,,,,,,,,,,,,,,,,,,,,,,,,,,,,,,,,,,,,,
,,,,,953060,001,2025-03-17_16h04.09.188,Utility_discrimination_2024_2cat,2024.2.4,MacIntel,126.5822785,,,,,,,,2,"[0.5,0.5]","[0.707,0.707]",d,"[0.5945182554315961,0.5945182554315961]","[0.4054817445684039,0.4054817445684039]",403.5729,405.7114,1,d,1,0.6237,,0.010858965,0.196620841,0.185761876,405.7133,405.7134,0,159,159,159,1,0.133689187,0.133689187,shape_difference2,1,,TRUE,,intensity,0.1,0.05,0.7,0.3,0.82,20,400,1E-11,3.5,0.01,0.5,0.1,,,,,,,,,,,,,,,,,,,,,,,,,,,,,,,,,,,,,,,,,,,,,,,,,,,,,,,,,,,,,,,,,,,,,,,,,,,,,,,,,
,,,,,953060,001,2025-03-17_16h04.09.188,Utility_discrimination_2024_2cat,2024.2.4,MacIntel,126.5822785,,,,,,,,1,"[0.5,0.5]","[0.924,0.383]",d,"[0.5899265224604007,0.5899265224604007]","[0.4100734775395993,0.4100734775395993]",405.7142,407.8946,1,s,1,0.6668,,0.100459074,0.278212837,0.177753763,407.8966,407.8967,0,160,160,160,1,0.127194516,0.127194516,shape_difference2,1,,TRUE,,intensity,0.1,0.05,0.7,0.3,0.82,20,400,1E-11,3.5,0.01,0.5,0.1,,,,,,,,,,,,,,,,,,,,,,,,,,,,,,,,,,,,,,,,,,,,,,,,,,,,,,,,,,,,,,,,,,,,,,,,,,,,,,,,,
,,,,,953060,001,2025-03-17_16h04.09.188,Utility_discrimination_2024_2cat,2024.2.4,MacIntel,126.5822785,,,,,,,,0,"[0.5,0.5]","[1,0]",s,"[0.6568429088439086,0.5650117252026158]","[0.3431570911560914,0.4349882747973842]",407.8979,410.1862,1,d,1,0.7765,,0.023610124,0.236462349,0.212852225,410.1881,410.1881,0,161,161,161,1,0.169743408,0.169743408,shape_difference1,1,,TRUE,,intensity,0.1,0.05,0.7,0.3,0.82,20,400,1E-11,3.5,0.01,0.5,0.1,,,,,,,,,,,,,,,,,,,,,,,,,,,,,,,,,,,,,,,,,,,,,,,,,,,,,,,,,,,,,,,,,,,,,,,,,,,,,,,,,
,,,,,953060,001,2025-03-17_16h04.09.188,Utility_discrimination_2024_2cat,2024.2.4,MacIntel,126.5822785,,,,,,,,4,"[0.5,0.5]","[0,1]",d,"[0.6530472013777711,0.5]","[0.3469527986222289,0.5]",410.1898,412.5696,1,s,1,0.867,,0.102496956,0.274810457,0.172313501,412.5723,412.5723,0,162,162,162,1,0.153047201,0.153047201,shape_difference0,1,,TRUE,,intensity,0.1,0.05,0.7,0.3,0.82,20,400,1E-11,3.5,0.01,0.5,0.1,,,,,,,,,,,,,,,,,,,,,,,,,,,,,,,,,,,,,,,,,,,,,,,,,,,,,,,,,,,,,,,,,,,,,,,,,,,,,,,,,
,,,,,953060,001,2025-03-17_16h04.09.188,Utility_discrimination_2024_2cat,2024.2.4,MacIntel,126.5822785,,,,,,,,3,"[0.5,0.5]","[0.383,0.924]",s,"[0.5,0.6696058623209595]","[0.5,0.3303941376790405]",412.5733,414.7866,1,d,1,0.7033,,0.011123742,0.245158034,0.234034292,414.7899,414.7899,0,163,163,163,1,0.169605862,0.169605862,shape_difference4,1,,TRUE,,intensity,0.1,0.05,0.7,0.3,0.82,20,400,1E-11,3.5,0.01,0.5,0.1,,,,,,,,,,,,,,,,,,,,,,,,,,,,,,,,,,,,,,,,,,,,,,,,,,,,,,,,,,,,,,,,,,,,,,,,,,,,,,,,,
,,,,,953060,001,2025-03-17_16h04.09.188,Utility_discrimination_2024_2cat,2024.2.4,MacIntel,126.5822785,,,,,,,,3,"[0.5,0.5]","[0.383,0.924]",d,"[0.5500381104219163,0.6207185744904716]","[0.44996188957808375,0.3792814255095284]",414.791,417.553,0,d,0,1.252,,0.016521122,0.274997325,0.258476203,417.555,417.555,0,164,164,164,1,0.130647808,0.130647808,shape_difference3,1,,TRUE,,intensity,0.1,0.05,0.7,0.3,0.82,20,400,1E-11,3.5,0.01,0.5,0.1,,,,,,,,,,,,,,,,,,,,,,,,,,,,,,,,,,,,,,,,,,,,,,,,,,,,,,,,,,,,,,,,,,,,,,,,,,,,,,,,,
,,,,,953060,001,2025-03-17_16h04.09.188,Utility_discrimination_2024_2cat,2024.2.4,MacIntel,126.5822785,,,,,,,,4,"[0.5,0.5]","[0,1]",s,"[0.5575885538874994,0.6389342657755861]","[0.4424114461125006,0.3610657342244139]",417.556,419.9112,1,s,1,0.8418,,0.101773844,0.26829107,0.166517226,419.913,419.9131,0,165,165,165,1,0.150361759,0.150361759,shape_difference3,1,,TRUE,,intensity,0.1,0.05,0.7,0.3,0.82,20,400,1E-11,3.5,0.01,0.5,0.1,,,,,,,,,,,,,,,,,,,,,,,,,,,,,,,,,,,,,,,,,,,,,,,,,,,,,,,,,,,,,,,,,,,,,,,,,,,,,,,,,
,,,,,953060,001,2025-03-17_16h04.09.188,Utility_discrimination_2024_2cat,2024.2.4,MacIntel,126.5822785,,,,,,,,2,"[0.5,0.5]","[0.707,0.707]",s,"[0.5,0.6672566075198049]","[0.5,0.33274339248019513]",419.9148,422.8113,0,d,0,1.3833,,0.009747203,0.194937638,0.185190435,422.8147,422.8148,0,166,166,166,1,0.167256608,0.167256608,shape_difference4,1,,TRUE,,intensity,0.1,0.05,0.7,0.3,0.82,20,400,1E-11,3.5,0.01,0.5,0.1,,,,,,,,,,,,,,,,,,,,,,,,,,,,,,,,,,,,,,,,,,,,,,,,,,,,,,,,,,,,,,,,,,,,,,,,,,,,,,,,,
,,,,,953060,001,2025-03-17_16h04.09.188,Utility_discrimination_2024_2cat,2024.2.4,MacIntel,126.5822785,,,,,,,,1,"[0.5,0.5]","[0.924,0.383]",s,"[0.5845590254302603,0.5845590254302603]","[0.4154409745697397,0.4154409745697397]",422.8169,424.9779,1,s,1,0.6506,,0.091125006,0.271440496,0.18031549,424.9803,424.9804,0,167,167,167,1,0.119602582,0.119602582,shape_difference2,1,,TRUE,,intensity,0.1,0.05,0.7,0.3,0.82,20,400,1E-11,3.5,0.01,0.5,0.1,,,,,,,,,,,,,,,,,,,,,,,,,,,,,,,,,,,,,,,,,,,,,,,,,,,,,,,,,,,,,,,,,,,,,,,,,,,,,,,,,
,,,,,953060,001,2025-03-17_16h04.09.188,Utility_discrimination_2024_2cat,2024.2.4,MacIntel,126.5822785,,,,,,,,0,"[0.5,0.5]","[1,0]",s,"[0.6543380753748814,0.5639734663079865]","[0.3456619246251186,0.43602653369201344]",424.9815,427.7187,0,d,0,1.2253,,0.020850525,0.219294358,0.198443833,427.7205,427.7205,0,168,168,168,1,0.167032549,0.167032549,shape_difference1,1,,TRUE,,intensity,0.1,0.05,0.7,0.3,0.82,20,400,1E-11,3.5,0.01,0.5,0.1,,,,,,,,,,,,,,,,,,,,,,,,,,,,,,,,,,,,,,,,,,,,,,,,,,,,,,,,,,,,,,,,,,,,,,,,,,,,,,,,,
,,,,,953060,001,2025-03-17_16h04.09.188,Utility_discrimination_2024_2cat,2024.2.4,MacIntel,126.5822785,,,,,,,,3,"[0.5,0.5]","[0.383,0.924]",s,"[0.6500802143139538,0.5]","[0.3499197856860462,0.5]",427.7216,430.7029,1,s,1,1.4665,,0.014627497,0.260068357,0.245440859,430.7063,430.7064,0,169,169,169,1,0.150080214,0.150080214,shape_difference0,1,,TRUE,,intensity,0.1,0.05,0.7,0.3,0.82,20,400,1E-11,3.5,0.01,0.5,0.1,,,,,,,,,,,,,,,,,,,,,,,,,,,,,,,,,,,,,,,,,,,,,,,,,,,,,,,,,,,,,,,,,,,,,,,,,,,,,,,,,
,,,,,953060,001,2025-03-17_16h04.09.188,Utility_discrimination_2024_2cat,2024.2.4,MacIntel,126.5822785,,,,,,,,2,"[0.5,0.5]","[0.707,0.707]",s,"[0.5553515750047512,0.6335374812125067]","[0.4446484249952488,0.3664625187874932]",430.7077,433.4112,1,s,1,1.1939,,0.008816833,0.19319659,0.184379757,433.4133,433.4133,0,170,170,170,1,0.144521084,0.144521084,shape_difference3,1,,TRUE,,intensity,0.1,0.05,0.7,0.3,0.82,20,400,1E-11,3.5,0.01,0.5,0.1,,,,,,,,,,,,,,,,,,,,,,,,,,,,,,,,,,,,,,,,,,,,,,,,,,,,,,,,,,,,,,,,,,,,,,,,,,,,,,,,,
,,,,,953060,001,2025-03-17_16h04.09.188,Utility_discrimination_2024_2cat,2024.2.4,MacIntel,126.5822785,,,,,,,,1,"[0.5,0.5]","[0.924,0.383]",s,"[0.5782394727394876,0.5782394727394876]","[0.4217605272605124,0.4217605272605124]",433.4143,435.5864,1,s,1,0.6576,,0.104740627,0.288270748,0.183530121,435.5883,435.5884,0,171,171,171,1,0.110664035,0.110664035,shape_difference2,1,,TRUE,,intensity,0.1,0.05,0.7,0.3,0.82,20,400,1E-11,3.5,0.01,0.5,0.1,,,,,,,,,,,,,,,,,,,,,,,,,,,,,,,,,,,,,,,,,,,,,,,,,,,,,,,,,,,,,,,,,,,,,,,,,,,,,,,,,
,,,,,953060,001,2025-03-17_16h04.09.188,Utility_discrimination_2024_2cat,2024.2.4,MacIntel,126.5822785,,,,,,,,4,"[0.5,0.5]","[0,1]",s,"[0.6642499392292192,0.5680819553298603]","[0.33575006077078084,0.43191804467013967]",435.5901,437.9696,1,s,1,0.8677,,0.105325877,0.284676813,0.179350936,437.9718,437.9718,0,172,172,172,1,0.177759674,0.177759674,shape_difference1,1,,TRUE,,intensity,0.1,0.05,0.7,0.3,0.82,20,400,1E-11,3.5,0.01,0.5,0.1,,,,,,,,,,,,,,,,,,,,,,,,,,,,,,,,,,,,,,,,,,,,,,,,,,,,,,,,,,,,,,,,,,,,,,,,,,,,,,,,,
,,,,,953060,001,2025-03-17_16h04.09.188,Utility_discrimination_2024_2cat,2024.2.4,MacIntel,126.5822785,,,,,,,,0,"[0.5,0.5]","[1,0]",s,"[0.5,0.6764555103148482]","[0.5,0.3235444896851518]",437.9736,440.3194,1,s,1,0.8312,,0.018537566,0.199866938,0.181329372,440.32,440.32,0,173,173,173,1,0.17645551,0.17645551,shape_difference4,1,,TRUE,,intensity,0.1,0.05,0.7,0.3,0.82,20,400,1E-11,3.5,0.01,0.5,0.1,,,,,,,,,,,,,,,,,,,,,,,,,,,,,,,,,,,,,,,,,,,,,,,,,,,,,,,,,,,,,,,,,,,,,,,,,,,,,,,,,
,,,,,953060,001,2025-03-17_16h04.09.188,Utility_discrimination_2024_2cat,2024.2.4,MacIntel,126.5822785,,,,,,,,0,"[0.5,0.5]","[1,0]",s,"[0.6470236368303788,0.5]","[0.3529763631696212,0.5]",440.3203,442.911,1,s,1,1.0732,,0.016173104,0.198529508,0.182356404,442.9126,442.9126,0,174,174,174,1,0.147023637,0.147023637,shape_difference0,1,,TRUE,,intensity,0.1,0.05,0.7,0.3,0.82,20,400,1E-11,3.5,0.01,0.5,0.1,,,,,,,,,,,,,,,,,,,,,,,,,,,,,,,,,,,,,,,,,,,,,,,,,,,,,,,,,,,,,,,,,,,,,,,,,,,,,,,,,
,,,,,953060,001,2025-03-17_16h04.09.188,Utility_discrimination_2024_2cat,2024.2.4,MacIntel,126.5822785,,,,,,,,2,"[0.5,0.5]","[0.707,0.707]",s,"[0.643210756053459,0.5]","[0.356789243946541,0.5]",442.913,445.1783,1,s,1,0.7535,,0.00803207,0.191346379,0.183314309,445.1809,445.1809,0,175,175,175,1,0.143210756,0.143210756,shape_difference0,1,,TRUE,,intensity,0.1,0.05,0.7,0.3,0.82,20,400,1E-11,3.5,0.01,0.5,0.1,,,,,,,,,,,,,,,,,,,,,,,,,,,,,,,,,,,,,,,,,,,,,,,,,,,,,,,,,,,,,,,,,,,,,,,,,,,,,,,,,
,,,,,953060,001,2025-03-17_16h04.09.188,Utility_discrimination_2024_2cat,2024.2.4,MacIntel,126.5822785,,,,,,,,1,"[0.5,0.5]","[0.924,0.383]",s,"[0.57075885773376,0.57075885773376]","[0.42924114226624,0.42924114226624]",445.1819,447.603,1,d,1,0.9079,,0.104148939,0.28331562,0.179166681,447.605,447.6051,0,176,176,176,1,0.10008325,0.10008325,shape_difference2,1,,TRUE,,intensity,0.1,0.05,0.7,0.3,0.82,20,400,1E-11,3.5,0.01,0.5,0.1,,,,,,,,,,,,,,,,,,,,,,,,,,,,,,,,,,,,,,,,,,,,,,,,,,,,,,,,,,,,,,,,,,,,,,,,,,,,,,,,,
,,,,,953060,001,2025-03-17_16h04.09.188,Utility_discrimination_2024_2cat,2024.2.4,MacIntel,126.5822785,,,,,,,,4,"[0.5,0.5]","[0,1]",d,"[0.6609071191277505,0.5666963491622602]","[0.33909288087224954,0.4333036508377398]",447.6059,450.5441,0,d,0,1.425,,0.104874412,0.279973908,0.175099497,450.547,450.547,0,177,177,177,1,0.174141904,0.174141904,shape_difference1,1,,TRUE,,intensity,0.1,0.05,0.7,0.3,0.82,20,400,1E-11,3.5,0.01,0.5,0.1,,,,,,,,,,,,,,,,,,,,,,,,,,,,,,,,,,,,,,,,,,,,,,,,,,,,,,,,,,,,,,,,,,,,,,,,,,,,,,,,,
,,,,,953060,001,2025-03-17_16h04.09.188,Utility_discrimination_2024_2cat,2024.2.4,MacIntel,126.5822785,,,,,,,,3,"[0.5,0.5]","[0.383,0.924]",s,"[0.5,0.6732284176143409]","[0.5,0.32677158238565907]",450.548,452.7526,1,s,1,0.689,,0.012833281,0.24516351,0.232330229,452.7535,452.7535,0,178,178,178,1,0.173228418,0.173228418,shape_difference4,1,,TRUE,,intensity,0.1,0.05,0.7,0.3,0.82,20,400,1E-11,3.5,0.01,0.5,0.1,,,,,,,,,,,,,,,,,,,,,,,,,,,,,,,,,,,,,,,,,,,,,,,,,,,,,,,,,,,,,,,,,,,,,,,,,,,,,,,,,
,,,,,953060,001,2025-03-17_16h04.09.188,Utility_discrimination_2024_2cat,2024.2.4,MacIntel,126.5822785,,,,,,,,3,"[0.5,0.5]","[0.383,0.924]",s,"[0.5528481339931924,0.6274978480671274]","[0.44715186600680756,0.37250215193287256]",452.7537,455.2126,0,d,0,0.9494,,0.019460442,0.272193341,0.252732899,455.2146,455.2146,0,179,179,179,1,0.137984684,0.137984684,shape_difference3,1,,TRUE,,intensity,0.1,0.05,0.7,0.3,0.82,20,400,1E-11,3.5,0.01,0.5,0.1,,,,,,,,,,,,,,,,,,,,,,,,,,,,,,,,,,,,,,,,,,,,,,,,,,,,,,,,,,,,,,,,,,,,,,,,,,,,,,,,,
,,,,,953060,001,2025-03-17_16h04.09.188,Utility_discrimination_2024_2cat,2024.2.4,MacIntel,126.5822785,,,,,,,,0,"[0.5,0.5]","[1,0]",s,"[0.5589081880593187,0.6421179262841006]","[0.44109181194068126,0.35788207371589936]",455.215,457.3529,1,d,1,0.6266,,0.014229049,0.197246271,0.183017223,457.3552,457.3552,0,180,180,180,1,0.15380728,0.15380728,shape_difference3,1,,TRUE,,intensity,0.1,0.05,0.7,0.3,0.82,20,400,1E-11,3.5,0.01,0.5,0.1,,,,,,,,,,,,,,,,,,,,,,,,,,,,,,,,,,,,,,,,,,,,,,,,,,,,,,,,,,,,,,,,,,,,,,,,,,,,,,,,,
,,,,,953060,001,2025-03-17_16h04.09.188,Utility_discrimination_2024_2cat,2024.2.4,MacIntel,126.5822785,,,,,,,,1,"[0.5,0.5]","[0.924,0.383]",d,"[0.6388373710649716,0.5]","[0.3611626289350284,0.5]",457.3565,460.0278,1,s,1,1.1582,,0.106818675,0.295112445,0.18829377,460.0306,460.0307,0,181,181,181,1,0.138837371,0.138837371,shape_difference0,1,,TRUE,,intensity,0.1,0.05,0.7,0.3,0.82,20,400,1E-11,3.5,0.01,0.5,0.1,,,,,,,,,,,,,,,,,,,,,,,,,,,,,,,,,,,,,,,,,,,,,,,,,,,,,,,,,,,,,,,,,,,,,,,,,,,,,,,,,
,,,,,953060,001,2025-03-17_16h04.09.188,Utility_discrimination_2024_2cat,2024.2.4,MacIntel,126.5822785,,,,,,,,4,"[0.5,0.5]","[0,1]",s,"[0.6735709145439195,0.5719455197730748]","[0.32642908545608057,0.42805448022692516]",460.0317,462.2199,1,d,1,0.6797,,0.104442763,0.274700083,0.17025732,462.222,462.2221,0,182,182,182,1,0.18784731,0.18784731,shape_difference1,1,,TRUE,,intensity,0.1,0.05,0.7,0.3,0.82,20,400,1E-11,3.5,0.01,0.5,0.1,,,,,,,,,,,,,,,,,,,,,,,,,,,,,,,,,,,,,,,,,,,,,,,,,,,,,,,,,,,,,,,,,,,,,,,,,,,,,,,,,
,,,,,953060,001,2025-03-17_16h04.09.188,Utility_discrimination_2024_2cat,2024.2.4,MacIntel,126.5822785,,,,,,,,2,"[0.5,0.5]","[0.707,0.707]",d,"[0.5,0.6705580607969367]","[0.5,0.3294419392030633]",462.2237,464.8612,0,d,0,1.1254,,0.007363674,0.189331083,0.181967409,464.864,464.8641,0,183,183,183,1,0.170558061,0.170558061,shape_difference4,1,,TRUE,,intensity,0.1,0.05,0.7,0.3,0.82,20,400,1E-11,3.5,0.01,0.5,0.1,,,,,,,,,,,,,,,,,,,,,,,,,,,,,,,,,,,,,,,,,,,,,,,,,,,,,,,,,,,,,,,,,,,,,,,,,,,,,,,,,
,,,,,953060,001,2025-03-17_16h04.09.188,Utility_discrimination_2024_2cat,2024.2.4,MacIntel,126.5822785,,,,,,,,0,"[0.5,0.5]","[1,0]",s,"[0.5657439651889656,0.5657439651889656]","[0.43425603481103436,0.43425603481103436]",464.865,467.1779,0,s,0,0.8022,,0.012626871,0.195982526,0.183355655,467.1815,467.1816,0,184,184,184,1,0.09299005,0.09299005,shape_difference2,1,,TRUE,,intensity,0.1,0.05,0.7,0.3,0.82,20,400,1E-11,3.5,0.01,0.5,0.1,,,,,,,,,,,,,,,,,,,,,,,,,,,,,,,,,,,,,,,,,,,,,,,,,,,,,,,,,,,,,,,,,,,,,,,,,,,,,,,,,
,,,,,953060,001,2025-03-17_16h04.09.188,Utility_discrimination_2024_2cat,2024.2.4,MacIntel,126.5822785,,,,,,,,1,"[0.5,0.5]","[0.924,0.383]",d,"[0.633763501272378,0.5]","[0.366236498727622,0.5]",467.1825,470.1112,0,d,0,1.4166,,0.106275123,0.291126017,0.184850894,470.1138,470.1138,0,185,185,185,1,0.133763501,0.133763501,shape_difference0,1,,TRUE,,intensity,0.1,0.05,0.7,0.3,0.82,20,400,1E-11,3.5,0.01,0.5,0.1,,,,,,,,,,,,,,,,,,,,,,,,,,,,,,,,,,,,,,,,,,,,,,,,,,,,,,,,,,,,,,,,,,,,,,,,,,,,,,,,,
,,,,,953060,001,2025-03-17_16h04.09.188,Utility_discrimination_2024_2cat,2024.2.4,MacIntel,126.5822785,,,,,,,,2,"[0.5,0.5]","[0.707,0.707]",s,"[0.6687011820073698,0.5699270050961284]","[0.3312988179926302,0.43007299490387163]",470.115,472.2694,1,d,1,0.6419,,0.010005365,0.194200516,0.184195152,472.2713,472.2713,0,186,186,186,1,0.182577037,0.182577037,shape_difference1,1,,TRUE,,intensity,0.1,0.05,0.7,0.3,0.82,20,400,1E-11,3.5,0.01,0.5,0.1,,,,,,,,,,,,,,,,,,,,,,,,,,,,,,,,,,,,,,,,,,,,,,,,,,,,,,,,,,,,,,,,,,,,,,,,,,,,,,,,,
,,,,,953060,001,2025-03-17_16h04.09.188,Utility_discrimination_2024_2cat,2024.2.4,MacIntel,126.5822785,,,,,,,,4,"[0.5,0.5]","[0,1]",d,"[0.5848786169831849,0.5848786169831849]","[0.41512138301681506,0.41512138301681506]",472.273,474.453,1,d,1,0.6696,,0.106393153,0.287776308,0.181383155,474.4549,474.4549,0,187,187,187,1,0.120054621,0.120054621,shape_difference2,1,,TRUE,,intensity,0.1,0.05,0.7,0.3,0.82,20,400,1E-11,3.5,0.01,0.5,0.1,,,,,,,,,,,,,,,,,,,,,,,,,,,,,,,,,,,,,,,,,,,,,,,,,,,,,,,,,,,,,,,,,,,,,,,,,,,,,,,,,
,,,,,953060,001,2025-03-17_16h04.09.188,Utility_discrimination_2024_2cat,2024.2.4,MacIntel,126.5822785,,,,,,,,3,"[0.5,0.5]","[0.383,0.924]",d,"[0.5,0.6807536394222652]","[0.5,0.3192463605777348]",474.4566,477.0519,1,s,1,1.0861,,0.017132576,0.258290704,0.241158128,477.0545,477.0545,0,188,188,188,1,0.180753639,0.180753639,shape_difference4,1,,TRUE,,intensity,0.1,0.05,0.7,0.3,0.82,20,400,1E-11,3.5,0.01,0.5,0.1,,,,,,,,,,,,,,,,,,,,,,,,,,,,,,,,,,,,,,,,,,,,,,,,,,,,,,,,,,,,,,,,,,,,,,,,,,,,,,,,,
,,,,,953060,001,2025-03-17_16h04.09.188,Utility_discrimination_2024_2cat,2024.2.4,MacIntel,126.5822785,,,,,,,,2,"[0.5,0.5]","[0.707,0.707]",s,"[0.5570486450112666,0.6376317179906276]","[0.4429513549887334,0.36236828200937243]",477.0555,479.5028,1,s,1,0.9333,,0.009098376,0.192605607,0.183507231,479.5052,479.5052,0,189,189,189,1,0.148952076,0.148952076,shape_difference3,1,,TRUE,,intensity,0.1,0.05,0.7,0.3,0.82,20,400,1E-11,3.5,0.01,0.5,0.1,,,,,,,,,,,,,,,,,,,,,,,,,,,,,,,,,,,,,,,,,,,,,,,,,,,,,,,,,,,,,,,,,,,,,,,,,,,,,,,,,
,,,,,953060,001,2025-03-17_16h04.09.188,Utility_discrimination_2024_2cat,2024.2.4,MacIntel,126.5822785,,,,,,,,0,"[0.5,0.5]","[1,0]",s,"[0.5787618018367247,0.5787618018367247]","[0.42123819816327535,0.42123819816327535]",479.5062,481.8101,1,d,1,0.7918,,0.018694942,0.198759957,0.180065014,481.8115,481.8115,0,190,190,190,1,0.111402831,0.111402831,shape_difference2,1,,TRUE,,intensity,0.1,0.05,0.7,0.3,0.82,20,400,1E-11,3.5,0.01,0.5,0.1,,,,,,,,,,,,,,,,,,,,,,,,,,,,,,,,,,,,,,,,,,,,,,,,,,,,,,,,,,,,,,,,,,,,,,,,,,,,,,,,,
